"Time (s)","Linear Acceleration x (m/s^2)","Linear Acceleration y (m/s^2)","Linear Acceleration z (m/s^2)","Absolute acceleration (m/s^2)"
1.919708331E-3,2.241928462E-1,-1.302660245E-1,-7.506199372E-1,7.941422791E-1
1.191170833E-2,1.214840182E-1,-3.626840758E-1,-3.868664056E-1,5.440254786E-1
2.190270833E-2,-2.543497147E-1,-1.274321714E-1,-1.846661800E-1,3.391671177E-1
3.189470833E-2,-5.563839117E-1,4.890160936E-1,-4.001910406E-1,8.419338846E-1
4.188670833E-2,-6.085583246E-1,1.056224079E0,-1.134242308E0,1.665070014E0
5.187770833E-2,-4.905735726E-1,1.139281438E0,-1.866518945E0,2.241097409E0
6.186970833E-2,4.049759634E-2,-3.093098143E-1,-1.209812892E0,1.249383788E0
7.186070833E-2,-3.953314197E-1,7.318816575E-1,7.869171131E-1,1.145066040E0
8.185270833E-2,-7.240126209E-1,8.009030682E-1,2.021090090E0,2.291384986E0
9.184370833E-2,-6.728407131E-1,5.883231577E-1,1.745499122E0,1.961021659E0
1.018357083E-1,6.524776384E-2,2.469434121E-1,5.960107845E-1,6.484344028E-1
1.118267083E-1,3.788788167E-1,-4.993282431E-1,-6.235394758E-1,8.841263088E-1
1.218187083E-1,3.945878731E-1,-5.765521279E-1,-1.329055746E0,1.501499624E0
1.318107083E-1,-8.340643823E-2,-2.962632143E-1,-7.520677078E-1,8.126096007E-1
1.418017083E-1,-5.623015863E-1,-2.365461856E-2,-1.505827600E-1,5.825957282E-1
1.517937083E-1,-7.849840236E-1,8.525357366E-2,2.691531837E-1,8.342131175E-1
1.617847083E-1,-8.966433308E-1,4.322109783E-1,1.156134283E0,1.525589090E0
1.717767083E-1,-3.695197633E-1,8.532666385E-2,1.411025523E0,1.461101818E0
1.817677083E-1,-7.428770542E-2,-7.422487709E-1,8.804117525E-1,1.153939667E0
1.917597083E-1,-5.393574044E-1,-8.108696473E-1,7.294097471E-1,1.216739320E0
2.017507083E-1,-1.550435423E0,-2.700536549E-2,1.944548283E0,2.487136369E0
2.117427083E-1,-2.561062329E0,2.243363222E-1,1.026385152E0,2.768182350E0
2.217347083E-1,-5.376777917E-2,5.404680830E-1,2.725831604E-1,6.076991872E-1
2.317257083E-1,1.223026138E0,8.577342036E-1,-4.410560614E-1,1.557572261E0
2.417177083E-1,1.853604638E0,-8.319710791E-2,-1.489108656E0,2.379120951E0
2.517087083E-1,2.026361355E0,-1.031251790E0,-1.725570057E0,2.854332254E0
2.617007083E-1,3.480242291E-1,-9.858519611E-1,1.905664299E0,2.173610217E0
2.716917083E-1,-8.510463046E-1,-2.932521322E0,4.333763283E0,5.301458791E0
2.816837083E-1,-3.972145155E-2,-4.062575269E0,3.613113835E0,5.436974084E0
2.916757083E-1,-6.128800017E-1,-2.713026494E0,3.804703118E0,4.712950294E0
3.016667083E-1,-1.322660353E0,-2.723884774E0,1.600082962E0,3.424798411E0
3.116587083E-1,-3.449808995E0,-9.777684778E-2,7.660618490E-1,3.535193513E0
3.216497083E-1,-5.316586679E0,1.017238061E0,1.257134993E0,5.557090568E0
3.316417083E-1,-6.430297074E0,4.007614365E-1,6.579725593E-1,6.476284280E0
3.416327083E-1,1.705652102E0,-9.111184055E-1,-4.191323356E0,4.615904821E0
3.516247083E-1,1.225494423E1,-2.270067164E0,-9.039830482E0,1.539660346E1
3.616157083E-1,-6.969246635E-1,-4.675364639E0,-4.917104321E0,6.820751674E0
3.716077083E-1,-2.261597764E-1,-5.208374598E0,-1.540836049E0,5.436220188E0
3.815997083E-1,2.964172885E-1,-5.270598913E0,1.936083854E0,5.622765938E0
3.915907083E-1,1.690358124E0,-8.005700108E0,2.314398122E-1,8.185481610E0
4.015827083E-1,2.737917214E0,-1.119125969E1,-3.116565943E0,1.193538719E1
4.115737083E-1,2.064251313E0,-9.030151001E0,-4.173671197E0,1.015993562E1
4.215657083E-1,2.611078243E0,-8.565799048E0,-5.481117972E0,1.049920460E1
4.315567083E-1,2.024925864E0,-1.041957691E1,-6.804563899E0,1.260833048E1
4.415487083E-1,4.133975619E-1,-1.115687221E1,-6.494160948E0,1.291591350E1
4.515397083E-1,-1.130391916E0,-1.013791302E1,-3.821333184E0,1.089300939E1
4.615317083E-1,-1.654383715E0,-9.693597724E0,3.288941860E-2,9.833814317E0
4.715237083E-1,-2.518834323E0,-1.125069079E1,4.744813188E0,1.246739033E1
4.815147083E-1,-4.462204977E0,-1.115857024E1,7.792418824E0,1.432294503E1
4.915067083E-1,-6.286035154E0,-7.398620544E0,1.007547178E1,1.399174598E1
5.014977083E-1,-6.708537415E0,-4.856184228E0,1.140217343E1,1.409242912E1
5.114897083E-1,-7.330674144E0,-5.273214372E0,1.244935830E1,1.537959997E1
5.214807083E-1,-9.268208692E0,-4.202319337E0,1.229380950E1,1.595922718E1
5.314727083E-1,-1.116980157E1,-1.021101608E0,1.028341514E1,1.521695576E1
5.414637083E-1,-1.162574172E1,3.298909609E0,6.248382593E0,1.360451985E1
5.514557083E-1,-1.034679077E1,5.517284170E0,1.640163286E0,1.184004390E1
5.614477083E-1,-9.790897146E0,5.112832264E0,-3.661696011E-1,1.105155197E1
5.714387083E-1,-1.034560495E1,6.422803867E0,-1.477627648E0,1.226651274E1
5.814307083E-1,-1.242188808E1,8.671786848E0,-1.052066123E0,1.518584979E1
5.914217083E-1,-1.329577551E1,1.132679815E1,-2.265988439E0,1.761274272E1
6.014137083E-1,-1.250061382E1,1.226181237E1,-6.564939739E0,1.870069042E1
6.114047083E-1,-1.162645275E1,1.333147627E1,-9.661761974E0,2.015570161E1
6.213967083E-1,-9.129752473E0,1.263876365E1,-1.173335037E1,1.951312988E1
6.313877083E-1,-6.872902647E0,1.064900294E1,-1.236218684E1,1.770485012E1
6.413797083E-1,-4.965705208E0,9.190368218E0,-1.060992015E1,1.488930831E1
6.513717083E-1,-4.532287949E0,9.111195164E0,-8.348090837E0,1.316229965E1
6.613627083E-1,-5.207384080E0,1.063906969E1,-8.429686393E0,1.453844096E1
6.713547083E-1,-3.736738592E0,9.031723318E0,-8.264711881E0,1.280002749E1
6.813457083E-1,-1.372127506E0,6.098720770E0,-7.723765495E0,9.936482393E0
6.913377083E-1,-6.379604638E-2,7.029416238E0,-7.186816267E0,1.005321295E1
7.013287083E-1,8.082015628E-1,5.424546161E0,-6.971701881E0,8.870373043E0
7.113207083E-1,6.496145493E-1,2.976135703E0,-9.556177631E0,1.002995083E1
7.213127083E-1,1.216954097E0,2.360057421E0,-8.344114730E0,8.756431861E0
7.313037083E-1,4.263006127E-1,1.560141217E0,-6.464410899E0,6.663661239E0
7.412957083E-1,3.655057082E0,-3.573052222E-1,-1.110138330E0,3.836602196E0
7.512867083E-1,1.883509199E0,2.827379614E0,-1.046209552E0,3.554748487E0
7.612787083E-1,2.422186865E0,-1.898192435E0,-3.720092154E-1,3.099760407E0
7.712697083E-1,2.783757631E0,6.384916833E0,6.025029480E0,9.209638959E0
7.812617083E-1,4.383903742E0,-5.296441559E-1,5.152736002E0,6.786002009E0
7.912527083E-1,5.976195874E0,-4.513907812E0,1.391090318E0,7.617441377E0
8.012447083E-1,5.666283504E0,-5.216791665E0,1.061098902E0,7.774806423E0
8.112357083E-1,2.854593140E0,-2.753661135E0,-5.485441111E-1,4.004029505E0
8.212277083E-1,-3.551224566E-1,1.242194188E-1,-3.689586645E0,3.708718381E0
8.312197083E-1,-3.242128467E0,5.205345594E-1,-6.024407921E0,6.861183865E0
8.412107083E-1,-6.613116703E0,2.128879125E0,-4.757398735E0,8.420111732E0
8.512030000E-1,-9.264613239E0,1.921329575E0,-1.176574541E0,9.534615538E0
8.611940000E-1,-9.369733897E0,-8.719441071E-1,-5.315037167E-1,9.425215968E0
8.711860000E-1,-9.716139910E0,-2.302906297E0,-6.709400757E-1,1.000784256E1
8.811770000E-1,-1.041291459E1,1.436721404E0,2.077337966E0,1.071486312E1
8.911690000E-1,-9.669130050E0,2.183182802E0,5.800661291E0,1.148503524E1
9.011600000E-1,-8.722633066E0,-1.806918860E0,3.185944326E0,9.460418840E0
9.111520000E-1,-1.058429999E1,-2.571774282E-1,-1.463468323E0,1.068809085E1
9.211440000E-1,-6.310047914E0,-4.000258860E0,-1.637702193E0,7.648584451E0
9.311350000E-1,-2.929591867E0,-7.225166985E0,2.101537253E0,8.074775866E0
9.411270000E-1,1.289647851E0,-1.000520462E1,3.682096654E0,1.073895464E1
9.511180000E-1,3.970336611E0,-1.200033541E1,4.498883976E0,1.341683941E1
9.611100000E-1,6.220163931E0,-1.040798656E1,4.824865956E0,1.304974923E1
9.711010000E-1,7.747554892E0,-5.679273094E0,2.805243809E0,1.000740438E1
9.810930000E-1,7.786549973E0,-3.983557751E0,8.488161765E-1,8.787467311E0
9.910840000E-1,1.005250625E1,-5.350778857E0,1.266350059E0,1.145806959E1
1.001076000E0,1.058882807E1,-6.954369564E0,1.767681704E0,1.279106073E1
1.011068000E0,1.134395388E1,-5.998337526E0,4.556021067E-1,1.284028488E1
1.021059000E0,1.312791598E1,-5.112814137E0,-7.134538651E-1,1.410645465E1
1.031051000E0,1.339940922E1,-2.993470359E0,-1.375566838E0,1.379844978E1
1.041042000E0,1.394382476E1,-1.499617272E0,-7.224889827E-1,1.404283060E1
1.051034000E0,1.390126873E1,-1.988100684E0,-8.756113346E-1,1.406998620E1
1.061025000E0,1.228291848E1,-1.539896402E0,-1.177569298E0,1.243495222E1
1.071017000E0,9.609987803E0,-4.425401578E-1,-6.827422419E-1,9.644368529E0
1.081008000E0,6.492755862E0,3.717993734E-1,4.833697298E-1,6.521331133E0
1.091000000E0,3.852733317E0,3.053557809E-1,9.284586158E-1,3.974774404E0
1.100991000E0,1.191749089E0,-6.315723807E-1,5.574010348E-1,1.459399012E0
1.110983000E0,-1.443506806E0,-1.394639578E0,-1.349533572E0,2.418671601E0
1.120975000E0,-3.601521145E0,-6.022059095E-1,-1.886679267E0,4.110129581E0
1.130966000E0,-3.625661960E0,-1.624051868E0,-2.712654026E0,4.810557243E0
1.140958000E0,-2.716683050E0,-2.319313876E0,-2.449360630E0,4.331160485E0
1.150949000E0,-3.311468843E0,-2.455845484E0,-3.066396832E0,5.138072837E0
1.160941000E0,-5.419397103E0,-4.463156319E-1,-1.945875016E0,5.775421385E0
1.170932000E0,-6.393008210E0,2.390511328E-1,-9.070873350E-1,6.461463213E0
1.180924000E0,-7.302548452E0,-2.211639739E0,-1.442388818E0,7.765246276E0
1.190915000E0,-7.849499928E0,-3.266841139E0,-1.455334554E0,8.625827427E0
1.200907000E0,-8.223375574E0,-2.363533444E0,-2.287641263E0,8.856833448E0
1.210899000E0,-7.605439485E0,-1.923197175E0,-3.238618383E0,8.487051677E0
1.220890000E0,-5.321498925E0,-4.188464652E0,-1.836244985E0,7.016650383E0
1.230882000E0,-4.885721145E0,-4.754430104E0,3.675717634E-1,6.827150630E0
1.240873000E0,-2.731338804E0,-2.440172315E0,3.242032573E0,4.891362570E0
1.250865000E0,-1.222164404E0,-8.094704086E-1,1.968889657E0,2.454680153E0
1.260856000E0,-1.766097986E0,-1.304176428E0,-1.179021162E0,2.492001033E0
1.270848000E0,-2.000077098E0,1.061556154E-1,-2.881341228E0,3.509088868E0
1.280839000E0,-9.179662259E-1,2.707057949E0,-2.354069726E0,3.703035107E0
1.290831000E0,5.143748832E-1,4.818263572E0,-9.970286214E-1,4.947151852E0
1.300823000E0,-1.293353232E0,3.731204202E0,2.146617531E0,4.494731828E0
1.310814000E0,-1.651414791E0,-3.753011978E-1,2.276484776E0,2.837323516E0
1.320806000E0,-1.183480833E0,-3.716431797E0,2.534301670E0,4.651362933E0
1.330797000E0,-3.666098964E-1,-4.731166956E0,1.365233638E0,4.937834188E0
1.340789000E0,3.220079567E-1,-5.131909389E0,3.979679292E-1,5.157379332E0
1.350780000E0,1.116037659E0,-5.856337309E0,2.676006895E0,6.534771582E0
1.360772000E0,8.239230446E-1,-5.560467027E0,4.793846185E0,7.387733346E0
1.370763000E0,1.555221515E0,-4.363355457E0,6.121236643E0,7.676400384E0
1.380755000E0,2.505870461E0,-3.159184543E0,4.554569934E0,6.083086472E0
1.390746000E0,2.809009416E0,-1.727299079E0,2.841562620E0,4.352995995E0
1.400738000E0,2.052878478E0,1.033395964E-1,6.229646945E-1,2.147806818E0
1.410730000E0,1.793276721E0,3.388262665E-1,-1.685104401E0,2.483993052E0
1.420721000E0,2.297152929E0,9.262340426E-2,-2.229633960E0,3.202617409E0
1.430713000E0,2.442388118E0,2.382722837E-1,-3.123838710E0,3.972455372E0
1.440704000E0,2.747251709E0,6.967957324E-1,-4.231413036E0,5.092913952E0
1.450696000E0,2.867232481E0,1.663536946E0,-4.370075662E0,5.485065047E0
1.460687000E0,2.938896833E0,2.410654986E0,-3.701395974E0,5.305535243E0
1.470679000E0,3.506089031E0,2.429884139E0,-2.953543524E0,5.188488852E0
1.480670000E0,5.459355220E0,8.064152384E-1,2.506076575E0,6.060964012E0
1.490662000E0,9.339350595E0,-5.521735656E0,8.579098540E0,1.383162919E1
1.500653000E0,8.352770364E0,-5.914331748E0,5.350495852E0,1.154884837E1
1.510645000E0,7.002754689E0,-4.381842014E0,6.399291628E0,1.044940410E1
1.520637000E0,5.629365354E0,-3.341200181E0,3.746838195E0,7.542689799E0
1.530628000E0,5.074393837E0,-2.543745800E0,9.170957217E-1,5.749885223E0
1.540620000E0,4.351266339E0,-1.635670871E0,-1.110461097E0,4.779336962E0
1.550611000E0,3.367753556E0,-1.842265279E0,-2.244092370E0,4.446533025E0
1.560603000E0,1.452870537E0,-3.818217203E0,-3.045581329E0,5.095604090E0
1.570594000E0,-6.543827198E0,-4.910160753E0,-7.718111823E0,1.124724869E1
1.580586000E0,-4.918595010E1,1.047281932E0,-2.687270854E1,5.605797848E1
1.590577000E0,-4.066806782E1,-9.267373710E0,-1.690062489E1,4.500452285E1
1.600569000E0,2.851631525E-1,-1.259734782E1,1.385466174E0,1.267651398E1
1.610561000E0,3.120021062E0,-3.984909627E0,3.226063242E0,6.001793083E0
1.620552000E0,1.815113587E0,1.071836729E0,-2.125073465E0,2.993227111E0
1.630544000E0,2.952123528E0,2.186416605E0,-4.810486776E0,6.052787284E0
1.640535000E0,4.628574049E0,2.030421077E0,-1.629262322E0,5.310442844E0
1.650527000E0,5.200495475E0,1.537202005E0,-1.259371553E0,5.567239881E0
1.660518000E0,4.473366142E0,2.541167763E0,-7.405469388E-1,5.197782990E0
1.670510000E0,2.744342427E0,3.946314495E0,-3.839761269E-1,4.822058805E0
1.680501000E0,2.388074793E0,3.567245936E0,-2.568763697E-1,4.300480236E0
1.690493000E0,2.474133528E0,2.873677282E0,-2.059979556E-1,3.797603586E0
1.700484000E0,2.732957021E0,2.087847167E0,-1.052797025E-1,3.440820205E0
1.710476000E0,2.465238159E0,2.040056704E0,5.848911345E-2,3.200414272E0
1.720468000E0,1.782005482E0,2.631068704E0,-1.055849272E-1,3.179499055E0
1.730459000E0,9.089534739E-1,2.921107557E0,-2.760523134E-1,3.071688568E0
1.740451000E0,2.715002561E-1,2.954001068E0,-4.331699216E-1,2.997911087E0
1.750442000E0,3.107985154E-1,2.572660866E0,-7.080007517E-1,2.686344117E0
1.760434000E0,3.504929236E-1,2.200615398E0,-9.353662241E-1,2.416705070E0
1.770425000E0,2.080987506E-1,1.824011441E0,-9.992681050E-1,2.090181708E0
1.780417000E0,1.009448692E-1,1.676242361E0,-1.064752243E0,1.988385188E0
1.790408000E0,1.007086417E-1,1.481106741E0,-7.316270113E-1,1.655021901E0
1.800400000E0,2.020370883E-1,1.397189841E0,-3.463130414E-1,1.453578742E0
1.810391000E0,3.227654269E-1,1.313713236E0,-2.894477363E-1,1.383401598E0
1.820383000E0,3.910737696E-1,1.337762250E0,-2.787578201E-1,1.421355850E0
1.830375000E0,3.732505792E-1,1.417597209E0,-1.758433529E-1,1.476420917E0
1.840366000E0,3.079057516E-1,1.565706012E0,-1.770548594E-1,1.605487368E0
1.850358000E0,2.484632497E-1,1.723546336E0,-3.133347452E-1,1.769328862E0
1.860348875E0,3.121313882E-1,1.580874858E0,-5.322088909E-1,1.697008434E0
1.870340875E0,5.233955289E-1,1.245822970E0,-6.469546509E-1,1.498188263E0
1.880331875E0,8.378149326E-1,7.697344851E-1,-6.551676500E-1,1.312886015E0
1.890323875E0,1.148428822E0,2.719990236E-1,-5.271311688E-1,1.292570887E0
1.900314875E0,1.414377439E0,-1.795574677E-1,-4.201059993E-1,1.486335587E0
1.910306875E0,1.567357850E0,-4.081350678E-1,-2.982466630E-1,1.646856380E0
1.920297875E0,1.583859277E0,-3.962307215E-1,-1.413634551E-1,1.638777783E0
1.930289875E0,1.544241468E0,-3.230604190E-1,-2.097396255E-2,1.577811666E0
1.940281875E0,1.564880092E0,-3.430228132E-1,2.613931976E-2,1.602247677E0
1.950272875E0,1.661168239E0,-5.403160554E-1,8.360356249E-2,1.748831299E0
1.960264875E0,1.780666908E0,-8.912027889E-1,1.473685455E-1,1.996680880E0
1.970255875E0,1.986393590E0,-1.427623429E0,2.164778106E-1,2.455754628E0
1.980247875E0,2.113705308E0,-2.084217800E0,2.048279643E-1,2.975511462E0
1.990238875E0,1.996589380E0,-2.415923327E0,3.948743136E-1,3.158952421E0
2.000230875E0,1.429657091E0,-2.018575203E0,7.782854533E-1,2.593124273E0
2.010221875E0,6.084214997E-1,-1.294847195E0,1.287430587E0,1.924651526E0
2.020213875E0,-9.297862262E-2,-6.290001905E-1,1.693407740E0,1.808843840E0
2.030204875E0,-7.701701027E-1,-5.552925289E-2,2.135610440E0,2.270919954E0
2.040196875E0,-1.519049616E0,5.694012755E-1,2.680563630E0,3.133233302E0
2.050188875E0,-2.167968054E0,1.082335989E0,3.129922153E0,3.958276059E0
2.060179875E0,-2.203021235E0,7.633393854E-1,3.019950060E0,3.815244152E0
2.070171875E0,-1.757427734E0,7.593778968E-2,2.470104797E0,3.032447279E0
2.080162875E0,-1.597025160E0,-4.870409042E-1,-8.236597006E-1,1.861750120E0
2.090154875E0,-3.947691807E0,-1.241194314E0,1.471682053E0,4.392115890E0
2.100145875E0,-5.265540487E0,-1.595803970E0,6.337584207E0,8.392704004E0
2.110137875E0,-5.129842983E0,-2.618487834E0,7.970948936E0,9.834012127E0
2.120128875E0,-3.173912803E0,-4.121833291E0,6.992956510E0,8.715771504E0
2.130120875E0,9.596304148E-1,-4.939968688E0,-3.226238658E0,5.977691616E0
2.140111875E0,1.956841762E0,-2.533678649E0,-1.487234740E1,1.521300347E1
2.150103875E0,-2.897847625E0,1.408118872E0,-1.636295119E1,1.667712479E1
2.160095875E0,-2.461847944E0,1.522006845E0,-7.585473583E0,8.118904459E0
2.170086875E0,-1.201173046E-1,-3.814121228E-1,2.426317338E0,2.459048433E0
2.180078875E0,-1.295246852E0,-2.334647030E-1,2.431352960E0,2.764714703E0
2.190069875E0,-1.114446559E0,-9.147910416E-1,-1.345701599E-1,1.448082494E0
2.200061875E0,-1.067588142E0,-6.633783102E-1,-5.172506169E-1,1.359177481E0
2.210052875E0,-8.519112539E-1,-5.087451839E-1,-8.020473683E-1,1.275873986E0
2.220044875E0,-9.308258611E-1,-3.049948615E-1,-7.967637511E-1,1.262652416E0
2.230035875E0,-1.299220620E0,-3.199263114E-1,-5.099274179E-1,1.431905386E0
2.240027875E0,-1.563153994E0,-6.047395080E-1,-2.882829344E-1,1.700666732E0
2.250018875E0,-1.694462577E0,-7.951494080E-1,-2.773638074E-1,1.892193618E0
2.260010875E0,-1.862708022E0,-7.752940178E-1,-2.007290296E-1,2.027573459E0
2.270002875E0,-2.008648677E0,-7.788783610E-1,4.734958291E-2,2.154892803E0
2.279993875E0,-1.779874903E0,-5.876714855E-1,1.784453273E-2,1.874468157E0
2.289985875E0,-1.299949476E0,-3.527408856E-1,8.682762584E-2,1.349753240E0
2.299976875E0,-9.758023515E-1,-1.457915515E-1,2.832250929E-1,1.026480326E0
2.309968875E0,-6.387200171E-1,-7.043205142E-2,3.697334790E-1,7.413681809E-1
2.319959875E0,-2.076983625E-1,-3.111888170E-2,4.288523376E-1,4.775157820E-1
2.329951875E0,1.420607355E-1,-1.412558663E-1,3.928159475E-1,4.409521981E-1
2.339942875E0,5.296618438E-1,-2.550385898E-1,4.061019909E-1,7.144964507E-1
2.349934875E0,1.146158056E0,-4.153862000E-1,5.222066438E-1,1.326244232E0
2.359925875E0,1.694148582E0,-4.306567883E-1,5.399061656E-1,1.829509047E0
2.369917875E0,1.902531361E0,-3.363183957E-1,5.884895110E-1,2.019667187E0
2.379908875E0,1.701232776E0,-2.379717368E-1,6.694348562E-1,1.843628632E0
2.389900875E0,1.241964684E0,-1.648230690E-1,7.341927695E-1,1.452130140E0
2.399892875E0,8.363076666E-1,-4.992352724E-2,6.852387106E-1,1.082337730E0
2.409883875E0,4.533039317E-1,2.496053571E-1,6.453010583E-1,8.271642791E-1
2.419875875E0,1.740455899E-1,5.026664186E-1,6.704557800E-1,8.558483211E-1
2.429866875E0,6.217256695E-2,5.604082578E-1,7.197641802E-1,9.143212338E-1
2.439858875E0,8.671947062E-2,4.856352335E-1,7.354955292E-1,8.856158987E-1
2.449849875E0,1.284522182E-1,4.716399229E-1,6.247200286E-1,7.932334482E-1
2.459841875E0,7.241425753E-2,6.456226552E-1,5.374900961E-1,8.431892083E-1
2.469832875E0,-5.939221591E-2,9.345739263E-1,5.240251644E-1,1.073106813E0
2.479824875E0,-2.442671415E-1,1.271636673E0,4.959093761E-1,1.386597408E0
2.489815875E0,-5.260620055E-1,1.805291580E0,4.681830490E-1,1.937785925E0
2.499807875E0,-9.663339552E-1,2.778092848E0,4.206182885E-1,2.971282708E0
2.509799875E0,-1.490129872E0,3.933041316E0,4.107037862E-1,4.225870162E0
2.519790875E0,-2.045487890E0,5.088380962E0,4.355988185E-1,5.501398718E0
2.529782875E0,-2.566954276E0,6.166844341E0,4.732187076E-1,6.696503515E0
2.539773875E0,-3.032375978E0,7.116760191E0,5.116372534E-1,7.752764176E0
2.549765875E0,-3.439735120E0,7.983733288E0,5.853426126E-1,8.712887058E0
2.559756875E0,-3.665889926E0,8.597364072E0,5.797011459E-1,9.364265660E0
2.569748875E0,-3.740733702E0,8.990270652E0,5.391729248E-1,9.752372145E0
2.579739875E0,-3.742834899E0,9.250400997E0,4.859632623E-1,9.990740312E0
2.589731875E0,-3.599767273E0,9.343015630E0,4.244774143E-1,1.002149922E1
2.599722875E0,-3.262224762E0,9.170817468E0,3.389852742E-1,9.739656793E0
2.609714875E0,-2.911407318E0,8.660494121E0,3.964763411E-1,9.145361911E0
2.619705875E0,-2.376896379E0,7.550853388E0,5.508697315E-1,7.935268159E0
2.629697875E0,-1.608743565E0,5.890023703E0,6.331341720E-1,6.138509099E0
2.639688875E0,-1.021079096E0,4.438491594E0,6.218350124E-1,4.596682383E0
2.649680875E0,-7.789634380E-1,3.756524400E0,5.552505020E-1,3.876411063E0
2.659672875E0,-8.582002267E-1,3.573939244E0,4.884752627E-1,3.707850783E0
2.669663875E0,-6.041340289E-1,2.708570623E0,9.119633281E-1,2.921131606E0
2.679655875E0,2.218150029E-1,1.109310365E0,5.456715933E-1,1.255997161E0
2.689646875E0,2.241373415E0,-4.609778759E0,-6.147240965E0,8.003898205E0
2.699638875E0,3.685498564E0,-1.318757162E1,-1.553149818E1,2.070561229E1
2.709629875E0,2.462157261E0,-9.866680570E0,-7.410750593E0,1.258303732E1
2.719621875E0,3.036097438E0,-2.529910119E0,2.075304451E0,4.463767627E0
2.729612875E0,4.539285312E0,-2.033769193E0,2.762362376E0,5.689637438E0
2.739604875E0,5.790157937E0,-4.418670702E0,-8.378574711E-1,7.331615433E0
2.749595875E0,6.438267413E0,-7.274324527E0,-5.680971125E0,1.125346691E1
2.759587875E0,6.044754478E0,-8.835227636E0,-7.348909855E0,1.298486735E1
2.769579875E0,5.378582368E0,-9.063126374E0,-5.890374536E0,1.207335579E1
2.779570875E0,5.053686508E0,-9.709138454E0,-5.027830705E0,1.204517324E1
2.789562875E0,5.172567419E0,-1.106183508E1,-5.308654931E0,1.331545967E1
2.799553875E0,5.577878866E0,-1.253888151E1,-5.589267488E0,1.481810357E1
2.809545875E0,6.092404608E0,-1.371736444E1,-4.870084814E0,1.577977209E1
2.819536875E0,7.058718390E0,-1.496972576E1,-3.961617243E0,1.701800828E1
2.829528875E0,8.067454891E0,-1.614786487E1,-3.838521659E0,1.845458255E1
2.839519875E0,8.724132292E0,-1.681352126E1,-3.937800657E0,1.934712525E1
2.849511875E0,8.928987154E0,-1.708462858E1,-4.073532074E0,1.970291879E1
2.859502708E0,8.803376098E0,-1.700976785E1,-3.868910809E0,1.953970583E1
2.869494708E0,8.517736689E0,-1.664870696E1,-3.810221428E0,1.908531030E1
2.879485708E0,8.110836554E0,-1.678002841E1,-4.269386609E0,1.912021666E1
2.889477708E0,7.370078530E0,-1.654270864E1,-4.395439422E0,1.863596400E1
2.899469708E0,6.405931141E0,-1.567116828E1,-4.210190567E0,1.744554882E1
2.909460708E0,5.393658829E0,-1.473839822E1,-3.845611993E0,1.615860975E1
2.919452708E0,4.386793436E0,-1.373957333E1,-2.958146160E0,1.472312673E1
2.929443708E0,3.423884195E0,-1.239019617E1,-1.726118964E0,1.296994336E1
2.939435708E0,2.619243295E0,-1.084785271E1,-6.285474698E-1,1.117727229E1
2.949426708E0,1.707602148E0,-8.852711980E0,3.234469199E-1,9.021697867E0
2.959418708E0,4.855358309E-1,-6.174509456E0,1.092009915E0,6.289101503E0
2.969409708E0,-7.559648770E-1,-3.134086540E0,1.561783115E0,3.582338319E0
2.979401708E0,-1.817148564E0,-1.104211593E-1,1.861227214E0,2.603533844E0
2.989392708E0,-2.602405068E0,2.477084033E0,1.999995675E0,4.111987372E0
2.999384708E0,-3.162397588E0,4.439683256E0,2.127678984E0,5.851372812E0
3.009375708E0,-3.529180562E0,5.904040064E0,2.317294102E0,7.258281923E0
3.019367708E0,-3.814227648E0,7.072938818E0,2.486524656E0,8.411753737E0
3.029359708E0,-3.950723003E0,7.977546349E0,2.596951954E0,9.273274365E0
3.039350708E0,-4.114970999E0,8.669421065E0,2.787159541E0,9.993002863E0
3.049342708E0,-4.377767382E0,9.239196562E0,3.384338306E0,1.076946360E1
3.059333708E0,-4.370039702E0,9.524024377E0,3.575589913E0,1.107199759E1
3.069325708E0,-3.975523676E0,9.632215408E0,3.407535088E0,1.096337802E1
3.079316708E0,-3.320553955E0,9.596298886E0,2.959811447E0,1.057712223E1
3.089308708E0,-2.565651224E0,9.522665484E0,2.364288612E0,1.014167564E1
3.099299708E0,-1.930181528E0,9.532442613E0,2.010182694E0,9.931459982E0
3.109291708E0,-1.590501861E0,9.633488347E0,1.956397812E0,9.957976014E0
3.119282708E0,-1.205534484E0,9.760735454E0,1.921503968E0,1.002085064E1
3.129274708E0,-7.212825559E-1,9.910911248E0,1.898124461E0,1.011678243E1
3.139265708E0,-3.558509465E-1,1.003945994E1,1.868805206E0,1.021811229E1
3.149257708E0,-4.731786177E-3,1.011441306E1,1.731870432E0,1.026161533E1
3.159248708E0,2.816574178E-1,1.008720948E1,1.569231152E0,1.021242441E1
3.169240708E0,3.241449313E-1,9.995735636E0,1.487841711E0,1.011105701E1
3.179232708E0,3.294561034E-1,9.924455738E0,1.430683716E0,1.003245827E1
3.189223708E0,4.437379599E-1,9.903312206E0,1.384773717E0,1.000950020E1
3.199215708E0,6.108657455E-1,9.861691725E0,1.312736167E0,9.967416761E0
3.209206708E0,1.002439489E0,9.831903670E0,1.111486698E0,9.945180611E0
3.219198708E0,1.662324234E0,9.829926142E0,9.773399500E-1,1.001728322E1
3.229189708E0,2.232133645E0,9.912656057E0,9.844910947E-1,1.020844716E1
3.239181708E0,2.687054039E0,9.980773780E0,9.523314086E-1,1.037993448E1
3.249172708E0,2.942599583E0,1.012113970E1,9.231385267E-1,1.058057399E1
3.259164708E0,3.161916947E0,1.027178035E1,8.323710287E-1,1.077961186E1
3.269155708E0,3.281346327E0,1.035755198E1,6.644226229E-1,1.088519978E1
3.279147708E0,3.467302988E0,1.040691535E1,4.680521079E-1,1.097930553E1
3.289138708E0,4.060109498E0,1.075219694E1,1.309413779E-1,1.149397120E1
3.299130708E0,4.652661070E0,1.118616091E1,-1.604066304E-1,1.211623627E1
3.309121708E0,4.931653948E0,1.134596298E1,-2.599788841E-1,1.237415353E1
3.319113708E0,5.113702329E0,1.126694605E1,-2.255832410E-1,1.237517323E1
3.329104708E0,5.152185194E0,1.110598389E1,-9.177786034E-2,1.224321501E1
3.339096708E0,5.085341579E0,1.092219538E1,8.810233712E-2,1.204835312E1
3.349088708E0,4.836355442E0,1.070273885E1,2.983834147E-1,1.174853121E1
3.359079708E0,4.540777814E0,1.046732059E1,5.551978405E-1,1.142329673E1
3.369071708E0,4.204035495E0,1.025978654E1,8.095914459E-1,1.111721964E1
3.379062708E0,3.878008784E0,1.008434668E1,1.014921028E0,1.085186918E1
3.389054708E0,3.637484153E0,9.963720961E0,1.258134867E0,1.068128877E1
3.399045708E0,3.441077056E0,9.898549064E0,1.479462504E0,1.058352938E1
3.409037708E0,3.226138671E0,9.867658224E0,1.621881090E0,1.050757573E1
3.419028708E0,3.074216899E0,9.806012784E0,1.718834942E0,1.041936130E1
3.429020708E0,2.983285971E0,9.676986369E0,1.770947520E0,1.028009317E1
3.439011708E0,2.914185038E0,9.336389565E0,1.849763163E0,9.954007651E0
3.449003708E0,2.915669646E0,9.054967754E0,2.211106034E0,9.766399562E0
3.458994708E0,3.235234015E0,8.685157092E0,2.427730171E0,9.580843732E0
3.468986708E0,3.981603611E0,7.938222654E0,2.436131305E0,9.208869744E0
3.478977708E0,7.997179545E0,4.314244693E0,2.135976037E0,9.334344197E0
3.488969708E0,1.644109923E1,-6.656718221E0,4.281916022E0,1.824709418E1
3.498961708E0,2.706539301E1,-4.207608670E1,8.559777585E0,5.075630368E1
3.508952708E0,3.531587510E1,-7.054237669E1,1.110980330E1,7.966721830E1
3.518944708E0,2.403785911E1,-6.874943793E1,8.041172826E-1,7.283509107E1
3.528935708E0,1.180090793E1,-5.780913373E1,-3.620884784E0,5.911233523E1
3.538927708E0,1.921647663E0,-3.566417503E1,-4.888407941E0,3.604889239E1
3.548918708E0,-4.380115624E0,-2.242511517E1,-4.391058980E0,2.326698524E1
3.558910708E0,-7.022648671E0,-2.076194718E1,-1.749909092E0,2.198722873E1
3.568901708E0,-6.754802924E0,-2.024403123E1,-1.475719117E0,2.139219273E1
3.578893708E0,-6.957545772E0,-1.506058448E1,-3.528705769E0,1.696114419E1
3.588884708E0,-7.308592134E0,-9.796444400E0,-3.916566786E0,1.283453689E1
3.598876708E0,-8.643424344E0,-5.698341449E0,-5.000121335E0,1.149700365E1
3.608867708E0,-1.025344699E1,-2.999089533E0,-5.550345497E0,1.203885577E1
3.618859708E0,-1.001581380E1,-1.517597460E0,-4.420720443E0,1.105270996E1
3.628850708E0,-9.893681842E0,-6.269004554E-1,-3.476515861E0,1.050543227E1
3.638842708E0,-9.485168459E0,-1.810409063E-1,-2.024213673E0,9.700445222E0
3.648834708E0,-8.817910522E0,3.957284456E-1,-7.986782026E-1,8.862845697E0
3.658825708E0,-8.447042683E0,3.950332117E-1,-1.305580344E0,8.556466640E0
3.668817708E0,-7.476451077E0,2.151420434E0,-1.892972771E0,8.006826869E0
3.678808708E0,-6.362849441E0,4.642104506E0,-3.112506513E-1,7.882376813E0
3.688800708E0,-5.596055521E0,5.818457292E0,6.698361214E-1,8.100553257E0
3.698791708E0,-5.000873287E0,6.088220340E0,6.268389134E-1,7.903675573E0
3.708783708E0,-4.461522022E0,6.238892562E0,4.485622783E-1,7.683109219E0
3.718774708E0,-4.041693985E0,6.262786040E0,2.946191235E-1,7.459529454E0
3.728766708E0,-3.767299941E0,6.257013084E0,2.462354605E-1,7.307762550E0
3.738757708E0,-3.483876920E0,6.408439597E0,3.338947248E-1,7.301847859E0
3.748749708E0,-3.156290756E0,6.593796333E0,4.337429488E-1,7.323145114E0
3.758740708E0,-2.837480679E0,6.796254421E0,5.154520865E-1,7.382822063E0
3.768732708E0,-2.638674469E0,7.129725807E0,6.551628260E-1,7.630519731E0
3.778723708E0,-2.534526203E0,7.592562162E0,9.179226641E-1,8.056885582E0
3.788715708E0,-2.445973046E0,7.958009048E0,1.186198765E0,8.409504126E0
3.798706708E0,-2.305473809E0,8.215323374E0,1.373109838E0,8.642463668E0
3.808698708E0,-2.237471568E0,8.452444341E0,1.508937149E0,8.872822869E0
3.818690708E0,-2.165984679E0,8.659046935E0,1.551545956E0,9.059684227E0
3.828681708E0,-2.138123281E0,8.839539372E0,1.581574624E0,9.230948260E0
3.838673708E0,-2.133121865E0,9.004294029E0,1.589604021E0,9.389055373E0
3.848664708E0,-2.112431785E0,9.140724773E0,1.527413327E0,9.505167484E0
3.858657000E0,-2.121942281E0,9.213975767E0,1.482486831E0,9.570671642E0
3.868648000E0,-2.134131972E0,9.251017293E0,1.439233515E0,9.602459755E0
3.878640000E0,-2.104145988E0,9.218039582E0,1.395805221E0,9.557612478E0
3.888631000E0,-2.023506745E0,8.861795045E0,1.245046606E0,9.174755147E0
3.898623000E0,-1.871488201E0,8.001726340E0,9.635557969E-1,8.273967143E0
3.908614000E0,-1.641410351E0,5.569392217E0,3.122518408E-1,5.814624564E0
3.918606000E0,-1.190531991E0,1.791518463E0,-1.141308668E0,2.435054476E0
3.928597000E0,3.559527612E-1,-5.610420960E0,-5.899000933E0,8.148726141E0
3.938589000E0,2.312384341E0,-1.616008555E1,-1.265888626E1,2.065775612E1
3.948580000E0,1.089836213E0,-2.038872175E1,-1.073767480E1,2.306914341E1
3.958572000E0,5.450932306E-1,-2.149272752E1,-7.494942312E0,2.276858852E1
3.968564000E0,1.654373482E0,-2.152954627E1,-6.265139544E0,2.248355594E1
3.978555000E0,4.127541928E0,-2.021237440E1,-5.389212606E0,2.132182670E1
3.988547000E0,6.388878906E0,-1.903272788E1,-4.586617938E0,2.059367787E1
3.998538000E0,8.138643572E0,-1.854437194E1,-4.132475516E0,2.066902522E1
4.008530000E0,8.878343250E0,-1.915380150E1,-3.412064341E0,2.138539861E1
4.018521000E0,9.667442544E0,-2.012675713E1,-3.013698509E0,2.253060533E1
4.028513000E0,1.095892525E1,-2.066553829E1,-2.569467702E0,2.353220516E1
4.038504000E0,1.106395411E1,-1.987975203E1,-1.625140035E0,2.280913636E1
4.048496000E0,1.001206106E1,-1.821177179E1,-6.779859705E-1,2.079350050E1
4.058487000E0,9.197554446E0,-1.716187264E1,-3.110053606E-1,1.947361303E1
4.068479000E0,8.723107275E0,-1.663760427E1,-4.909240401E-1,1.879211225E1
4.078470000E0,8.237327031E0,-1.615634451E1,-9.924932286E-1,1.816221537E1
4.088462000E0,7.330008146E0,-1.509846274E1,-1.524669667E0,1.685281028E1
4.098453000E0,6.013397030E0,-1.327047812E1,-1.829800915E0,1.468382459E1
4.108445000E0,4.566461124E0,-1.086497804E1,-1.736452456E0,1.191283266E1
4.118436000E0,3.177143389E0,-8.130113654E0,-1.274382087E0,8.821396593E0
4.128428000E0,1.900289539E0,-5.251054010E0,-6.621878171E-1,5.623447452E0
4.138420000E0,7.462780872E-1,-2.388484683E0,-2.036950663E-2,2.502439806E0
4.148411000E0,-1.680419612E-1,1.749118549E-1,6.407566023E-1,6.851286602E-1
4.158403000E0,-9.160900006E-1,2.576583179E0,1.219891592E0,2.994350891E0
4.168394000E0,-1.438171806E0,4.533721687E0,1.720925614E0,5.058117777E0
4.178386000E0,-1.824840868E0,6.127341136E0,2.076550785E0,6.722084257E0
4.188377000E0,-2.207183868E0,7.542272015E0,2.328458190E0,8.196294609E0
4.198369000E0,-2.441179206E0,8.573251324E0,2.632231715E0,9.294548832E0
4.208360000E0,-2.534625898E0,9.216260859E0,2.883496219E0,9.983904202E0
4.218352000E0,-2.589530376E0,9.625245527E0,3.092564292E0,1.043623366E1
4.228343000E0,-2.344568000E0,9.790922874E0,3.232840457E0,1.057404498E1
4.238335000E0,-1.918030722E0,9.946100961E0,3.050900542E0,1.057883549E1
4.248326000E0,-1.442607943E0,1.004392722E1,2.495403360E0,1.044933632E1
4.258318000E0,-9.538415252E-1,1.014950688E1,1.943911668E0,1.037791386E1
4.268309000E0,-4.855509605E-1,1.028060263E1,1.775139974E0,1.044402566E1
4.278301000E0,-1.527952733E-1,1.036595560E1,1.760420193E0,1.051548673E1
4.288293000E0,-2.831521489E-2,1.042099427E1,1.560484010E0,1.053722135E1
4.298284000E0,1.292424694E-2,1.043085619E1,1.371575528E0,1.052065337E1
4.308276000E0,1.209023299E-1,1.038197464E1,1.228068630E0,1.045505463E1
4.318267000E0,2.594652062E-1,1.032237046E1,1.120040956E0,1.038619978E1
4.328259000E0,4.359549505E-1,1.032748092E1,1.023378514E0,1.038721438E1
4.338250000E0,5.808640109E-1,1.023344132E1,9.674229991E-1,1.029546656E1
4.348242000E0,7.967534454E-1,1.022047922E1,8.998830537E-1,1.029090866E1
4.358233000E0,1.040923962E0,1.029839570E1,8.042307917E-1,1.038206453E1
4.368225000E0,1.243903036E0,1.037876334E1,7.622536305E-1,1.048079453E1
4.378216000E0,1.475206024E0,1.048969438E1,7.475103879E-1,1.061926046E1
4.388208000E0,1.732750145E0,1.061709936E1,6.529808644E-1,1.077736545E1
4.398199000E0,1.931331091E0,1.065560328E1,6.363571572E-1,1.084789710E1
4.408191000E0,2.186982323E0,1.072884550E1,6.311578131E-1,1.096765142E1
4.418182000E0,2.540211158E0,1.087313490E1,7.174930485E-1,1.118894685E1
4.428174000E0,2.966939495E0,1.108338557E1,8.045640099E-1,1.150180373E1
4.438165000E0,3.601099561E0,1.140427258E1,9.861749467E-1,1.199991218E1
4.448157000E0,4.189988144E0,1.139664898E1,1.149835151E0,1.219679177E1
4.458149000E0,5.127571925E0,1.119395408E1,1.249760485E0,1.237572233E1
4.468140000E0,6.456979673E0,1.110900807E1,1.312014474E0,1.291603766E1
4.478132000E0,7.604374123E0,1.091547927E1,1.476175054E0,1.338481551E1
4.488123000E0,8.159257346E0,1.053165166E1,1.704144105E0,1.343105634E1
4.498115000E0,8.464903003E0,1.030640405E1,1.948421040E0,1.347860868E1
4.508106000E0,8.877476692E0,1.015935009E1,2.151498202E0,1.366202515E1
4.518098000E0,8.870045466E0,1.000803584E1,2.284281599E0,1.356673986E1
4.528089000E0,8.573126779E0,9.856426892E0,2.558586034E0,1.331142428E1
4.538081000E0,7.999720160E0,9.642957328E0,2.778430525E0,1.283362088E1
4.548072000E0,7.161284984E0,9.464960482E0,2.963288201E0,1.223317443E1
4.558064000E0,6.289855725E0,9.240116329E0,3.082191624E0,1.159491009E1
4.568055000E0,5.508409266E0,8.938953148E0,3.018353770E0,1.092510483E1
4.578047000E0,4.938512147E0,8.521748464E0,2.821234482E0,1.024541181E1
4.588038000E0,4.681825227E0,8.247426342E0,2.580332706E0,9.828410125E0
4.598030000E0,4.578362255E0,8.238070212E0,2.490724126E0,9.748379784E0
4.608021000E0,4.960384242E0,7.771974034E0,2.473573073E0,9.546075422E0
4.618013000E0,6.482302794E0,5.756717126E0,2.415559777E0,8.999720586E0
4.628005000E0,8.913223060E0,1.392298645E0,1.771136970E0,9.193528540E0
4.637996000E0,1.055122814E1,-4.732629345E0,1.266981850E0,1.163320415E1
4.647988000E0,-1.146116482E1,-5.396518351E1,1.951411160E0,5.520332722E1
4.657979000E0,-1.361829623E1,-6.181901389E1,-1.403780823E0,6.331681507E1
4.667971000E0,-1.338076128E1,-6.388683726E1,-9.414718866E0,6.594853811E1
4.677962000E0,-1.522455210E1,-6.064276927E1,-7.047188850E0,6.292054770E1
4.687954000E0,-2.283697433E1,-3.800692045E1,-2.977471207E0,4.444005776E1
4.697945000E0,-2.103059868E1,-3.022690299E1,-3.962414804E0,3.703582692E1
4.707937000E0,-1.872311430E1,-1.913104296E1,-2.101996844E0,2.685088834E1
4.717928000E0,-1.737933995E1,-7.255315229E0,2.132657304E0,1.895334491E1
4.727920000E0,-1.721690546E1,-2.841670793E-1,4.313378720E0,1.775127659E1
4.737911000E0,-1.563539852E1,3.359873264E0,3.786742811E0,1.643453244E1
4.747903000E0,-1.435895953E1,5.313947831E0,8.127987168E-1,1.533226670E1
4.757895000E0,-1.519103586E1,7.017481486E0,-1.009200069E1,1.954126646E1
4.767886000E0,-1.403330704E1,8.175043659E0,-1.062079597E1,1.940531763E1
4.777878000E0,-1.159020469E1,8.291576913E0,-4.205546708E0,1.485832142E1
4.787869000E0,-9.426754190E0,8.903606145E0,-2.867369306E-1,1.296996974E1
4.797861000E0,-7.458197824E0,9.459098648E0,2.386035869E0,1.227975689E1
4.807852000E0,-5.964664580E0,9.930038660E0,2.659491434E0,1.188510774E1
4.817844000E0,-4.957565299E0,1.017144681E1,2.260395431E0,1.153885485E1
4.827835000E0,-4.162232289E0,1.047796253E1,2.077898275E0,1.146427222E1
4.837827000E0,-3.694872528E0,1.060471613E1,1.887981588E0,1.138756171E1
4.847818000E0,-3.316071187E0,1.065610848E1,1.440033560E0,1.125267402E1
4.857809375E0,-2.951395842E0,1.059829355E1,7.838765609E-1,1.102946173E1
4.867800375E0,-2.719181273E0,1.043798394E1,1.867249846E-2,1.078637123E1
4.877792375E0,-2.492898705E0,1.000158987E1,-1.546165202E0,1.042290606E1
4.887783375E0,-2.235847942E0,9.425469557E0,-2.671088802E0,1.004854257E1
4.897775375E0,-2.244730448E0,9.263237389E0,-2.600638039E0,9.879762139E0
4.907766375E0,-2.670779484E0,9.395086840E0,-1.823525537E0,9.936094060E0
4.917758375E0,-2.599112501E0,9.424441032E0,-1.224180086E0,9.852618507E0
4.927750375E0,-2.339567754E0,9.053445139E0,-1.433457781E0,9.460087070E0
4.937741375E0,-1.975653278E0,8.718289754E0,-1.578876865E0,9.077699834E0
4.947733375E0,-1.720015787E0,8.889415537E0,-2.396367314E-1,9.057460387E0
4.957724375E0,-1.602192053E0,9.058563207E0,1.055537323E0,9.259521898E0
4.967716375E0,-1.463615381E0,8.508471776E0,5.241140056E-1,8.649332774E0
4.977707375E0,-1.145744219E0,3.881463026E0,-3.526420384E0,5.367879075E0
4.987699375E0,-7.558556803E-1,-1.041273099E1,-1.425841081E1,1.767197112E1
4.997690375E0,6.683367491E-4,-2.972932131E1,-2.722693520E1,4.031300716E1
5.007682375E0,4.014194237E0,-5.338884451E1,-3.343323305E1,6.312102301E1
5.017673375E0,9.649983927E0,-5.918067534E1,-2.549933558E1,6.515896437E1
5.027665375E0,9.128213485E0,-4.049100477E1,-1.017375061E1,4.273582748E1
5.037656375E0,6.713115785E0,-2.331150629E1,-3.053942848E0,2.445033365E1
5.047648375E0,6.403181781E0,-1.840371833E1,-2.852117429E0,1.969345473E1
5.057639375E0,7.128017836E0,-1.954585029E1,-2.991157200E0,2.101894201E1
5.067631375E0,7.763832371E0,-2.102258331E1,-1.642034834E0,2.247047798E1
5.077623375E0,7.374497856E0,-2.186796674E1,4.345981041E-1,2.308202901E1
5.087614375E0,6.187856310E0,-1.969898887E1,2.493503600E0,2.079801164E1
5.097606375E0,5.199572200E0,-1.604920597E1,2.358608042E0,1.703454124E1
5.107597375E0,4.998092351E0,-1.330267406E1,1.737888094E0,1.431650513E1
5.117589375E0,5.452281843E0,-1.005000247E1,1.982210492E0,1.160427014E1
5.127580375E0,7.397856313E0,-5.551544176E0,3.168222877E0,9.776786638E0
5.137572375E0,7.197692088E0,-4.276893264E-1,4.832923712E0,8.680255823E0
5.147563375E0,1.941521472E0,3.824615811E0,4.994493974E0,6.583476421E0
5.157555375E0,-6.385714978E-2,7.099751226E0,4.551352211E0,8.433584775E0
5.167546375E0,-1.865145141E0,8.517509233E0,4.281823636E0,9.713945830E0
5.177538375E0,-2.679502653E0,9.371214412E0,3.282963082E0,1.028480630E1
5.187529375E0,-2.792462381E0,9.716293107E0,1.492091905E0,1.021912600E1
5.197521375E0,-2.903925514E0,9.777124030E0,-4.239348292E-2,1.019934973E1
5.207512375E0,-2.945938050E0,9.858956398E0,-1.125637545E0,1.035106913E1
5.217504375E0,-2.934700287E0,9.921719241E0,-1.226756954E0,1.041911278E1
5.227495375E0,-2.934600299E0,9.901824675E0,-1.467568683E0,1.043128797E1
5.237487375E0,-2.846716940E0,9.822108414E0,-2.013292243E0,1.042261755E1
5.247479375E0,-2.866770844E0,9.810551977E0,-2.593563493E0,1.054475589E1
5.257470375E0,-2.738615956E0,9.740730375E0,-3.002706328E0,1.055452940E1
5.267462375E0,-2.850491026E0,9.821071118E0,-3.405375711E0,1.077846560E1
5.277453375E0,-2.822588405E0,9.884210522E0,-3.511894439E0,1.086268961E1
5.287445375E0,-2.614221706E0,9.976521685E0,-3.416203878E0,1.086441848E1
5.297436375E0,-2.427750490E0,1.023998319E1,-3.179866145E0,1.099376082E1
5.307428375E0,-2.431798518E0,1.021224400E1,-2.959864656E0,1.090707891E1
5.317419375E0,-2.375164726E0,1.022801043E1,-2.773887531E0,1.086038935E1
5.327411375E0,-2.175936640E0,1.051828727E1,-2.672886236E0,1.106857661E1
5.337402375E0,-1.804073897E0,1.120418437E1,-2.582259071E0,1.163857775E1
5.347394375E0,-1.412894001E0,1.167323164E1,-2.316338228E0,1.198440775E1
5.357385375E0,-8.795973815E-1,1.157892307E1,-1.851086242E0,1.175889754E1
5.367377375E0,-4.911884804E-1,1.171188875E1,-1.596569955E0,1.183041165E1
5.377368375E0,-3.343433525E-1,1.202502469E1,-1.778456953E0,1.216042407E1
5.387360375E0,-1.670675958E-1,1.212156339E1,-1.808824614E0,1.225691875E1
5.397351375E0,1.957682884E-1,1.244117454E1,-1.175117853E0,1.249808190E1
5.407343375E0,5.061814722E-1,1.268695523E1,-7.425671518E-1,1.271874438E1
5.417334375E0,6.897670137E-1,1.257320233E1,-6.384839357E-1,1.260828525E1
5.427326375E0,9.013206647E-1,1.259420436E1,-5.378538660E-1,1.263786569E1
5.437318375E0,1.079892584E0,1.262705635E1,-4.330664625E-1,1.268054678E1
5.447309375E0,1.196325997E0,1.250169556E1,-4.677503916E-1,1.256751281E1
5.457301375E0,1.330874522E0,1.246831731E1,-5.320451689E-1,1.255042771E1
5.467292375E0,1.437402313E0,1.243349948E1,-5.306202024E-1,1.252755334E1
5.477284375E0,1.543692999E0,1.240659644E1,-4.282670313E-1,1.250959776E1
5.487275375E0,1.587718440E0,1.221714432E1,-3.523491222E-1,1.232491846E1
5.497267375E0,1.538153493E0,1.184938018E1,-4.630269742E-1,1.195776404E1
5.507258375E0,1.288442009E0,1.138021129E1,-8.657796800E-1,1.148559386E1
5.517250375E0,1.238085349E0,1.136744214E1,-9.707804704E-1,1.147580110E1
5.527241375E0,1.217676228E0,1.156135102E1,-9.060775208E-1,1.166055527E1
5.537233375E0,1.199610670E0,1.164294774E1,-5.929380727E-1,1.171959357E1
5.547224375E0,1.149109877E0,1.142692937E1,-1.731559177E-1,1.148586746E1
5.557216375E0,1.012117508E0,1.094110762E1,5.868967295E-2,1.098797807E1
5.567207375E0,8.963873689E-1,1.038019240E1,2.402036190E-1,1.042159309E1
5.577199375E0,7.874285983E-1,9.996749543E0,4.493094063E-1,1.003777486E1
5.587190375E0,6.408247223E-1,9.680360212E0,6.357899773E-1,9.722358719E0
5.597182375E0,4.144570774E-1,9.372863327E0,9.001917136E-1,9.425109376E0
5.607173375E0,3.926346838E-2,9.113979608E0,1.296290288E0,9.205788094E0
5.617165375E0,-9.778434683E-1,8.869404026E0,2.185226111E0,9.186823106E0
5.627156375E0,-2.236118522E0,7.216307868E0,1.149872617E1,1.375848933E1
5.637148375E0,-4.624109700E0,-2.121494969E0,4.506279768E1,4.534907790E1
5.647140375E0,-4.540156547E0,1.503571159E0,7.981184487E0,9.304464171E0
5.657131375E0,-1.396553430E1,-7.451072992E0,-4.353190657E0,1.641660458E1
5.667123375E0,-5.557654049E1,-6.430864137E1,-7.565749170E0,8.533225514E1
5.677114375E0,-2.541518245E1,-6.737653041E1,1.850174690E1,7.434946528E1
5.687106375E0,1.046744923E1,-3.186618627E1,1.828084611E1,3.819961591E1
5.697097375E0,1.590011601E1,-7.860120810E0,9.906911752E0,2.031605495E1
5.707089375E0,1.445187413E1,-5.664593659E0,-3.231353510E0,1.585515476E1
5.717080375E0,1.689617867E1,-1.239876351E1,-1.496149639E1,2.574988475E1
5.727072375E0,1.875243341E1,-1.902283088E1,-2.226827180E1,3.477639692E1
5.737063375E0,1.485050454E1,-1.206773860E1,-1.731198938E1,2.580451078E1
5.747055375E0,7.401221386E0,-8.437397701E-1,-1.024909666E1,1.267019957E1
5.757046375E0,3.634996747E0,2.726391767E0,-7.313160564E0,8.609804344E0
5.767038375E0,2.015445773E0,3.316244849E0,-3.643012987E0,5.322691536E0
5.777029375E0,5.819024764E-1,3.657666695E0,-6.021813512E-2,3.704154744E0
5.787021375E0,-3.894550849E0,5.165244951E0,1.344957366E1,1.492442003E1
5.797013375E0,-5.458024979E0,4.716367069E0,5.577839105E0,9.118467200E0
5.807004375E0,-3.904991345E0,3.940506456E0,-7.076269977E0,8.991670886E0
5.816996375E0,-3.417588206E0,4.575716974E0,-3.135672305E0,6.515330826E0
5.826987375E0,-1.833626602E0,4.591375233E0,2.111430303E-1,4.948484053E0
5.836979375E0,-8.356171835E-1,4.516530873E0,5.611361631E-1,4.627329791E0
5.846970375E0,-7.243165299E-1,4.755023012E0,1.881794211E0,5.164884096E0
5.856963333E0,-8.908730060E-1,4.960660231E0,2.425718583E0,5.593381381E0
5.866954333E0,-9.130514219E-1,5.512364323E0,2.131241108E0,5.980134780E0
5.876946333E0,-6.352738144E-1,6.290651531E0,1.569476881E0,6.514532000E0
5.886937333E0,-3.568568869E-1,7.127734246E0,1.195583693E0,7.236115165E0
5.896929333E0,-2.343969684E-1,7.826863602E0,7.543071914E-1,7.866620311E0
5.906920333E0,-3.293719766E-1,8.427422935E0,2.476348454E-1,8.437491704E0
5.916912333E0,-4.947574016E-1,8.914038747E0,-2.089929360E-1,8.930204349E0
5.926903333E0,-6.464556641E-1,9.274441824E0,-6.458821984E-1,9.319352976E0
5.936895333E0,-8.016527543E-1,9.530974377E0,-1.079167968E0,9.625316786E0
5.946886333E0,-9.382295325E-1,9.681149586E0,-1.431955631E0,9.831349292E0
5.956878333E0,-1.023043396E0,9.776703030E0,-1.696324623E0,9.975372533E0
5.966869333E0,-1.116795020E0,9.847288864E0,-1.916900893E0,1.009409917E1
5.976861333E0,-1.306911901E0,9.762895415E0,-2.368754423E0,1.013080170E1
5.986852333E0,-1.601577510E0,9.497463984E0,-3.114034098E0,1.012245430E1
5.996844333E0,-1.857683071E0,9.047749951E0,-3.814983693E0,9.993341090E0
6.006836333E0,-1.872196591E0,8.539098322E0,-3.769961886E0,9.520185548E0
6.016827333E0,-1.700649516E0,7.181602305E0,-3.003145162E0,7.967841697E0
6.026819333E0,-1.561185529E0,2.137881791E0,-2.523486952E0,3.657297528E0
6.036810333E0,-1.944101848E0,-3.588480685E0,-3.165701850E0,5.165113147E0
6.046802333E0,-2.921375359E0,-6.373102534E0,-5.656364872E0,9.008070463E0
6.056793333E0,-1.945209457E0,-5.415289434E0,-5.963928416E0,8.287197453E0
6.066785333E0,2.974396157E0,-7.661583281E0,5.842346091E0,1.008364511E1
6.076776333E0,4.785330884E0,-1.548432752E1,1.191977057E0,1.625067998E1
6.086768333E0,6.250498701E0,-2.571888215E1,-8.121144025E0,2.768542240E1
6.096759333E0,8.313140275E0,-3.017957095E1,-6.230826913E0,3.191767548E1
6.106751333E0,1.136642356E1,-2.934696720E1,1.350889541E0,3.150023763E1
6.116742333E0,1.276950505E1,-3.302467406E1,1.989580761E0,3.546333018E1
6.126734333E0,1.126811783E1,-3.551055464E1,3.184905860E0,3.739135723E1
6.136725333E0,7.508643508E0,-3.274841650E1,5.711581299E0,3.408020939E1
6.146717333E0,3.859688288E0,-2.875442908E1,4.757530882E0,2.939980417E1
6.156708333E0,9.869047523E-2,-2.642532404E1,7.580096483E-1,2.643637776E1
6.166700333E0,-7.798364273E-1,-2.124813615E1,-3.610252208E0,2.156676507E1
6.176691333E0,2.967886159E0,-1.566624141E1,-2.471640276E0,1.613531760E1
6.186683333E0,5.582660719E0,-1.289950386E1,6.703353274E-1,1.407169677E1
6.196674333E0,4.480744451E0,-9.610392430E0,-3.870523471E0,1.128794337E1
6.206666333E0,3.544345901E0,-6.906938120E0,-6.699478909E0,1.025432590E1
6.216658333E0,2.762322615E0,-3.971894310E0,-3.537414612E0,5.993302326E0
6.226649333E0,1.384730009E0,-7.555941635E-1,-1.694764001E0,2.315302304E0
6.236641333E0,8.773103893E-2,2.315186327E0,-7.474905074E-1,2.434445834E0
6.246632333E0,-1.251581600E0,5.156440213E0,1.697551954E-1,5.308874551E0
6.256624333E0,-2.156406063E0,7.335070081E0,1.502126312E-1,7.646953905E0
6.266615333E0,-2.590719992E0,8.815875106E0,2.441879117E-1,9.191904683E0
6.276607333E0,-2.845517969E0,9.936713841E0,6.262006898E-1,1.035506551E1
6.286598333E0,-2.918672776E0,1.069444282E1,1.315401328E0,1.116333457E1
6.296590333E0,-2.864732212E0,1.115327150E1,2.019931172E0,1.169111961E1
6.306581333E0,-2.550958341E0,1.130437290E1,1.627536224E0,1.170235486E1
6.316573333E0,-2.206297722E0,1.120882589E1,5.370351827E-1,1.143651758E1
6.326564333E0,-1.976953699E0,1.112027215E1,-3.229265543E-1,1.129925131E1
6.336556333E0,-1.796391972E0,1.105843083E1,-6.797142613E-1,1.122398895E1
6.346547333E0,-1.550672966E0,1.082363354E1,-8.977113247E-1,1.097093958E1
6.356539333E0,-1.297204500E0,1.065122020E1,-1.074631698E0,1.078360165E1
6.366530333E0,-1.042857782E0,1.061932481E1,-1.229312187E0,1.074098786E1
6.376522333E0,-7.674072933E-1,1.071544836E1,-1.461718544E0,1.084188031E1
6.386513333E0,-5.067919946E-1,1.074860207E1,-1.724654968E0,1.089787683E1
6.396505333E0,-3.126744483E-1,1.069397505E1,-1.806769318E0,1.085003608E1
6.406496333E0,-1.318691848E-1,1.067125861E1,-1.717378693E0,1.080937276E1
6.416488333E0,5.814573571E-2,1.078791057E1,-1.612969640E0,1.090798177E1
6.426479333E0,2.337193127E-1,1.084658270E1,-1.611554176E0,1.096813967E1
6.436471333E0,4.000784452E-1,1.090958761E1,-1.656716461E0,1.104191442E1
6.446462333E0,5.925372460E-1,1.096348959E1,-1.661910982E0,1.110455548E1
6.456454333E0,7.822466496E-1,1.103101908E1,-1.631213977E0,1.117837872E1
6.466445333E0,9.658629620E-1,1.109426958E1,-1.562421046E0,1.124530428E1
6.476437333E0,1.143286781E0,1.107378211E1,-1.486934661E0,1.123150611E1
6.486429333E0,1.293207490E0,1.103463851E1,-1.324781431E0,1.118886404E1
6.496420333E0,1.451344998E0,1.098227318E1,-1.158458990E0,1.113816654E1
6.506412333E0,1.558548581E0,1.082429077E1,-9.044425663E-1,1.097325662E1
6.516403333E0,1.623930539E0,1.060819639E1,-5.772511625E-1,1.074728803E1
6.526395333E0,1.692921690E0,1.039293933E1,-2.863731607E-1,1.053381134E1
6.536386333E0,1.790329286E0,1.023897747E1,3.670702916E-2,1.039438723E1
6.546378333E0,1.916174231E0,1.012308799E1,3.233790922E-1,1.030791968E1
6.556369333E0,2.045415677E0,1.004644503E1,5.452440888E-1,1.026703824E1
6.566361333E0,2.164570822E0,9.991180655E0,6.986276650E-1,1.024681113E1
6.576352333E0,2.268509758E0,9.931708624E0,8.133032584E-1,1.021990386E1
6.586344333E0,2.377049868E0,9.873903050E0,8.864928567E-1,1.019461608E1
6.596335333E0,2.485413392E0,9.792717385E0,9.654583347E-1,1.014922181E1
6.606327333E0,2.596364894E0,9.759965376E0,1.029306421E0,1.015172431E1
6.616318333E0,2.705572756E0,9.710767488E0,1.075701739E0,1.013786286E1
6.626310333E0,2.800673918E0,9.649964631E0,1.137952293E0,1.011239473E1
6.636301333E0,2.881416072E0,9.600801827E0,1.218189029E0,1.009762045E1
6.646293333E0,2.949810954E0,9.564650831E0,1.337623086E0,1.009817636E1
6.656284333E0,2.995281826E0,9.504404045E0,1.469919848E0,1.007303697E1
6.666276333E0,3.028162474E0,9.402023976E0,1.580778526E0,1.000333362E1
6.676267333E0,3.074682337E0,9.158637133E0,1.645352690E0,9.800076076E0
6.686259333E0,3.086652172E0,8.847062400E0,1.676541739E0,9.518861641E0
6.696250333E0,3.155923551E0,8.760803105E0,1.695085452E0,9.464926793E0
6.706242333E0,3.275765744E0,8.706118775E0,1.557237489E0,9.431443894E0
6.716233333E0,3.876248187E0,8.086253105E0,1.313701103E0,9.063034805E0
6.726225333E0,5.426804355E0,6.454446074E0,1.117767777E0,8.506437823E0
6.736216333E0,6.241489896E0,4.981320782E0,6.291159654E-1,8.010339553E0
6.746208333E0,6.011739344E0,-1.614774091E0,2.325371007E0,6.644987255E0
6.756199333E0,9.964401577E0,-4.725654669E1,8.497222026E-1,4.830313170E1
6.766191333E0,1.990646211E1,-7.125321568E1,-1.145530591E1,7.486328881E1
6.776183333E0,8.684005482E-1,-6.844821745E1,-1.290290460E1,6.965915258E1
6.786174333E0,-8.134975614E0,-5.762198072E1,-5.919218266E0,5.849365466E1
6.796166333E0,-9.829399892E0,-2.341948097E1,-8.140005974E0,2.667112462E1
6.806157333E0,-1.362387915E1,-6.444522180E0,-1.392831093E1,2.052169083E1
6.816149333E0,-1.292781491E1,-8.239346659E-1,-3.771311424E0,1.349185148E1
6.826140333E0,-1.137585629E1,3.730178601E-1,2.469492009E0,1.164678665E1
6.836132333E0,-1.025807564E1,7.033802819E-1,1.433206497E0,1.038156735E1
6.846123333E0,-9.691794443E0,9.071598405E-1,5.753604653E-1,9.751146505E0
6.856115333E0,-9.860369085E0,1.766982377E0,3.604786523E-2,1.001750491E1
6.866109333E0,-1.062321321E1,2.149425364E0,-1.447691073E0,1.093473812E1
6.876101333E0,-1.086806069E1,2.086920968E0,-3.181719128E0,1.151491723E1
6.886092333E0,-1.067280345E1,1.972190995E0,-3.178669220E0,1.130938587E1
6.896084333E0,-1.020782350E1,2.617277461E0,-2.014668678E0,1.072887188E1
6.906075333E0,-9.756554695E0,3.475055811E0,-1.116217096E0,1.041692435E1
6.916067333E0,-8.507649658E0,4.080235029E0,-5.020045868E-1,9.448832161E0
6.926058333E0,-6.429541029E0,4.539480025E0,-3.290848053E-1,7.877447146E0
6.936050333E0,-4.668667238E0,4.856705507E0,-2.416805526E-1,6.741101664E0
6.946041333E0,-3.645074716E0,5.019036493E0,3.572648764E-2,6.203109976E0
6.956033333E0,-2.872005271E0,5.071555599E0,3.372183553E-1,5.838048192E0
6.966024333E0,-2.173069458E0,5.283686151E0,3.838393752E-1,5.725984883E0
6.976016333E0,-1.686517381E0,5.908243627E0,3.956051425E-1,6.156962486E0
6.986007333E0,-1.356019596E0,6.442135931E0,4.355333662E-1,6.597696099E0
6.995999333E0,-9.917847653E-1,6.885576487E0,5.811758137E-1,6.980871429E0
7.005990333E0,-7.222954398E-1,7.259454473E0,5.586639603E-1,7.316658757E0
7.015982333E0,-6.184070823E-1,7.733076602E0,4.887780388E-1,7.773146404E0
7.025973333E0,-5.719405020E-1,8.215929145E0,5.420555290E-1,8.253631434E0
7.035965333E0,-4.940972509E-1,8.517910936E0,5.088738227E-1,8.547390911E0
7.045956333E0,-3.468846068E-1,8.795640231E0,4.121188489E-1,8.812119947E0
7.055948333E0,-1.345293025E-1,8.890107847E0,3.418924733E-1,8.897696676E0
7.065939333E0,-2.905613020E-2,8.800523241E0,3.346559592E-1,8.806931826E0
7.075931333E0,-2.057108939E-2,8.596816188E0,3.577069259E-1,8.604279516E0
7.085922333E0,5.036616147E-2,8.230343117E0,3.461026148E-1,8.237771033E0
7.095914333E0,6.314422801E-2,7.732355640E0,3.305161306E-1,7.739673885E0
7.105905333E0,1.854926839E-2,6.963196521E0,2.635491391E-1,6.968206944E0
7.115897333E0,4.852238819E-2,5.403071676E0,-1.007019905E-1,5.404227868E0
7.125889333E0,1.506980963E-1,2.853947023E0,-1.116384399E0,3.068230378E0
7.135880333E0,3.605618289E-1,-7.058308500E-1,-2.868294336E0,2.975788033E0
7.145872333E0,8.161545070E-1,-4.926093830E0,-3.749128257E0,6.244074895E0
7.155863333E0,1.517540888E0,-1.108505554E1,-4.535694537E0,1.207285847E1
7.165855333E0,2.324779853E0,-2.022437289E1,-7.005311676E0,2.152914889E1
7.175846333E0,2.918253823E0,-2.980022698E1,-7.072800239E0,3.076677164E1
7.185838333E0,3.262611263E0,-3.470019604E1,-6.001845270E0,3.536623226E1
7.195829333E0,3.422225925E0,-2.902130301E1,-3.970998516E0,2.949095604E1
7.205821333E0,3.613637745E0,-1.995797374E1,-2.049177775E0,2.038573578E1
7.215812333E0,4.447798022E0,-1.921008679E1,-1.697615104E0,1.979121621E1
7.225804333E0,5.566731734E0,-2.302726612E1,-1.481305547E0,2.373684379E1
7.235795333E0,5.545867115E0,-2.555111618E1,-7.568472219E-1,2.615700667E1
7.245787333E0,4.275393161E0,-2.446372586E1,1.306186116E-1,2.483485315E1
7.255778333E0,2.480866890E0,-2.044008837E1,3.350887263E-1,2.059281907E1
7.265770333E0,1.097425460E0,-1.704390740E1,4.352702415E-1,1.708474707E1
7.275761333E0,8.757526910E-1,-1.473927296E1,8.305502057E-1,1.478860791E1
7.285753333E0,1.304585440E0,-1.208160820E1,1.488012303E0,1.224260513E1
7.295744333E0,1.414068560E0,-9.563946242E0,2.086686494E0,9.890546908E0
7.305736333E0,1.349710596E0,-6.909800917E0,2.575227209E0,7.496590064E0
7.315727333E0,1.149971171E0,-3.693355760E0,3.563966818E0,5.259769001E0
7.325719333E0,9.649000718E-1,-3.550908816E-1,4.064958594E0,4.192971506E0
7.335710333E0,7.954403070E-1,2.481403372E0,3.700233840E0,4.525684307E0
7.345702333E0,3.301241478E-1,4.803822119E0,3.292851309E0,5.833400265E0
7.355693333E0,1.062458818E-1,6.649972288E0,2.787171235E0,7.211223413E0
7.365685333E0,-7.714904040E-2,8.286712030E0,2.426780437E0,8.635091866E0
7.375676333E0,-4.187423556E-1,9.514841909E0,2.125724845E0,9.758394737E0
7.385668333E0,-4.745530057E-1,1.021909693E1,1.679367113E0,1.036703509E1
7.395659333E0,-3.329957154E-1,1.047567510E1,1.263996116E0,1.055690964E1
7.405651333E0,-1.842241305E-1,1.050994914E1,1.038178986E0,1.056270727E1
7.415642333E0,-1.442525278E-1,1.051121330E1,1.067039600E0,1.056621916E1
7.425634333E0,-4.225051850E-2,1.049194907E1,1.405153749E0,1.058570911E1
7.435625333E0,5.970168436E-2,1.052229846E1,2.005761176E0,1.071192826E1
7.445617333E0,2.508751165E-1,1.054914419E1,2.453715051E0,1.083365585E1
7.455608333E0,6.777867267E-1,1.050589117E1,2.510714879E0,1.082297710E1
7.465600333E0,1.180392992E0,1.041514238E1,2.353639956E0,1.074281804E1
7.475591333E0,1.512392853E0,1.029828695E1,1.934489318E0,1.058698706E1
7.485583333E0,1.737654644E0,1.015223519E1,1.412128308E0,1.039622188E1
7.495574333E0,1.838280401E0,1.009388466E1,1.164674141E0,1.032580497E1
7.505566333E0,1.921651318E0,1.002717728E1,8.754650080E-1,1.024711994E1
7.515557333E0,2.064200296E0,9.931056075E0,5.448903322E-1,1.015793794E1
7.525549333E0,2.202308460E0,9.760611493E0,3.040902972E-1,1.001060289E1
7.535540333E0,2.413734276E0,9.733984442E0,1.699341202E-1,1.003022651E1
7.545532333E0,2.455270411E0,9.825700943E0,-1.261419833E-2,1.012782854E1
7.555523333E0,2.453799251E0,9.902315841E0,-1.451688321E-1,1.020284587E1
7.565515333E0,2.583143462E0,1.017599594E1,-2.747419524E-1,1.050233339E1
7.575507333E0,2.585354587E0,1.038453572E1,-3.603405118E-1,1.070759010E1
7.585498333E0,2.506218370E0,1.035890386E1,-3.815518713E-1,1.066459571E1
7.595490333E0,2.619280424E0,1.044940590E1,-4.241324651E-1,1.078102972E1
7.605481333E0,2.777628287E0,1.055464408E1,-4.897054438E-1,1.092499620E1
7.615473333E0,2.963893973E0,1.062928379E1,-4.874572259E-1,1.104554009E1
7.625464333E0,3.205268789E0,1.075704545E1,-5.485495563E-1,1.123782370E1
7.635456333E0,3.508279105E0,1.084757438E1,-4.890401037E-1,1.141126866E1
7.645447333E0,3.808264657E0,1.089938773E1,-3.903092462E-1,1.155213720E1
7.655439333E0,4.186141261E0,1.099835887E1,-3.727833502E-1,1.177398165E1
7.665430333E0,4.555380943E0,1.099827818E1,-4.801558077E-1,1.191403240E1
7.675422333E0,5.053572487E0,1.092733976E1,-4.889260465E-1,1.204924885E1
7.685413333E0,5.848203832E0,1.082536198E1,-4.178350139E-1,1.231115495E1
7.695405333E0,6.520161177E0,1.062993049E1,-2.778058934E-1,1.247337565E1
7.705396333E0,6.876283507E0,1.043321379E1,-1.102211845E-1,1.249589427E1
7.715388333E0,6.996330353E0,1.019957893E1,4.131529290E-2,1.236857937E1
7.725379333E0,7.400052527E0,9.872413180E0,2.485125307E-1,1.234046506E1
7.735371333E0,7.886708685E0,9.581174478E0,4.517628980E-1,1.241785682E1
7.745362333E0,7.872770677E0,8.916862952E0,6.106598139E-1,1.191066196E1
7.755354333E0,7.354130834E0,8.029370221E0,6.835921347E-1,1.090968949E1
7.765345333E0,6.680943820E0,7.265761279E0,7.419017386E-1,9.898318821E0
7.775337333E0,6.806224508E0,6.816744819E0,8.255835807E-1,9.668210291E0
7.785328333E0,7.232242700E0,6.052159976E0,7.798549191E-1,9.462671322E0
7.795320333E0,8.325910594E0,3.969533789E0,4.172807709E-1,9.233206862E0
7.805311333E0,1.013445732E1,7.978537452E-1,7.654721573E-2,1.016610325E1
7.815303333E0,1.045703066E1,-3.829572496E0,-5.267499304E-1,1.114865827E1
7.825294333E0,9.333812113E0,-3.971570608E1,-6.634322508E-1,4.080315552E1
7.835286333E0,8.390477888E0,-7.085381810E1,-7.295332403E0,7.172088631E1
7.845277333E0,-1.156826944E1,-6.977416481E1,-8.848390303E0,7.127799762E1
7.855269333E0,-2.646991023E1,-6.822170099E1,-7.300903630E0,7.354019192E1
7.865256333E0,-2.097725570E1,-4.404747312E1,-4.167949111E0,4.896526263E1
7.875248333E0,-1.876462719E1,-1.471084146E1,-3.663094665E0,2.412339845E1
7.885239333E0,-1.601339879E1,-4.784880064E0,-2.171582803E0,1.685348006E1
7.895231333E0,-1.416288017E1,3.421416378E-1,-1.249939994E0,1.422204576E1
7.905222333E0,-1.370104954E1,2.978271691E0,-1.096238329E0,1.406380458E1
7.915214333E0,-1.327065470E1,4.461957055E0,-9.937138349E-1,1.403591124E1
7.925205333E0,-1.248619108E1,4.816624598E0,-2.620400459E0,1.363713089E1
7.935197333E0,-1.218397774E1,4.217414217E0,-4.746260959E0,1.373910075E1
7.945188333E0,-1.315709125E1,3.747224988E0,-6.309833906E0,1.506534929E1
7.955180333E0,-1.356024858E1,4.582800291E0,-5.450934645E0,1.531649727E1
7.965171333E0,-1.187694863E1,5.968118531E0,-2.709640079E0,1.356548919E1
7.975163333E0,-1.083006080E1,7.182976985E0,-1.492886542E0,1.308105828E1
7.985154333E0,-1.012889896E1,8.029504123E0,-1.101626539E0,1.297232098E1
7.995146333E0,-9.188990614E0,8.783158765E0,-1.259535275E0,1.277371737E1
8.005137333E0,-8.009271587E0,9.356035041E0,-1.872202438E0,1.245748630E1
8.015129333E0,-7.082150522E0,9.474794329E0,-2.187017698E0,1.202961471E1
8.025120333E0,-6.103922453E0,9.377914737E0,-1.981270552E0,1.136347601E1
8.035112333E0,-4.922806526E0,9.277577101E0,-1.749804427E0,1.064750095E1
8.045103333E0,-4.060124116E0,9.108234134E0,-1.600020981E0,1.009973287E1
8.055095333E0,-3.576660831E0,8.950251723E0,-1.307882978E0,9.726770609E0
8.065086333E0,-3.626265392E0,8.868765510E0,-1.121366154E0,9.646878481E0
8.075078333E0,-3.568818545E0,8.907380522E0,-8.232505417E-1,9.630972694E0
8.085069333E0,-3.504847375E0,9.005140706E0,-7.505345678E-1,9.692255485E0
8.095061333E0,-3.386750868E0,8.957243239E0,-6.124911618E-1,9.595698687E0
8.105052333E0,-3.332485198E0,8.877935699E0,-5.560632650E-1,9.499073966E0
8.115044333E0,-3.180519572E0,8.626141144E0,-6.377126149E-1,9.215893509E0
8.125035333E0,-3.008881280E0,8.281519702E0,-6.950527505E-1,8.838553811E0
8.135027333E0,-2.888388585E0,8.018621285E0,-5.678173379E-1,8.541867036E0
8.145018333E0,-2.741456826E0,7.646125581E0,-3.919214697E-1,8.132184477E0
8.155010333E0,-2.520002596E0,7.092109500E0,-2.965555751E-1,7.532355239E0
8.165001333E0,-2.295934369E0,6.387249287E0,-3.035864134E-1,6.794146951E0
8.174993333E0,-2.072083658E0,5.585171514E0,-3.644185062E-1,5.968288898E0
8.184984333E0,-1.773856364E0,4.650624484E0,-4.758968420E-1,5.000135228E0
8.194976333E0,-1.410177238E0,3.481996456E0,-6.746610244E-1,3.816813679E0
8.204967333E0,-8.534386928E-1,1.578408503E0,-1.383116763E0,2.265555778E0
8.214959333E0,-3.269296677E-1,-8.313173604E-1,-1.930758941E0,2.127393158E0
8.224950333E0,2.422483903E-1,-4.137706727E0,-2.998151640E0,5.115487709E0
8.234942333E0,5.948153213E-1,-7.975354813E0,-4.103734989E0,8.988922656E0
8.244933333E0,7.617730625E-1,-1.215702091E1,-4.606218975E0,1.302269975E1
8.254925333E0,1.534820141E0,-1.778893506E1,-5.723434775E0,1.874992238E1
8.264916333E0,2.920466117E0,-2.406647070E1,-7.260949606E0,2.530702518E1
8.274908333E0,4.382710910E0,-2.735172180E1,-7.419567025E0,2.867707822E1
8.284899333E0,5.040138509E0,-2.446001638E1,-5.042034177E0,2.547778457E1
8.294891333E0,5.390510103E0,-1.961643203E1,-2.963166287E0,2.055826742E1
8.304882333E0,6.155401340E0,-1.904690972E1,-2.647650238E0,2.019118093E1
8.314874333E0,7.021303811E0,-2.144368575E1,-2.874250602E0,2.274624546E1
8.324865333E0,7.318397330E0,-2.350319439E1,-2.886296451E0,2.478487025E1
8.334857333E0,6.866895803E0,-2.408737099E1,-2.709012673E0,2.519314289E1
8.344848333E0,5.887423446E0,-2.297770512E1,-2.384084215E0,2.383947451E1
8.354840333E0,4.876816713E0,-2.076651971E1,-1.854479674E0,2.141193071E1
8.364831333E0,4.180446365E0,-1.806950318E1,-1.606545597E0,1.861623125E1
8.374823333E0,3.975618109E0,-1.510244236E1,-1.846948314E0,1.572579163E1
8.384814333E0,4.025954449E0,-1.315728538E1,-2.391630339E0,1.396575682E1
8.394806333E0,3.945874200E0,-1.214948735E1,-2.705321618E0,1.305751627E1
8.404797333E0,3.702943147E0,-1.088763951E1,-2.612884448E0,1.179320343E1
8.414789333E0,2.750460953E0,-8.365985656E0,-2.070654598E0,9.046676844E0
8.424780333E0,1.613524687E0,-5.025561401E0,-1.162571483E0,5.404748076E0
8.434772333E0,6.384378889E-1,-1.554032630E0,-2.315405305E-1,1.695945569E0
8.444763333E0,-2.346921797E-1,1.662694947E0,6.694781987E-1,1.807715676E0
8.454755333E0,-9.886760201E-1,4.278363254E0,1.336606840E0,4.590031618E0
8.464746333E0,-1.537304916E0,6.408282307E0,1.777287071E0,6.825550371E0
8.474738333E0,-1.807240895E0,8.062391787E0,1.934304546E0,8.485859713E0
8.484729333E0,-1.936405889E0,9.202870735E0,1.877234406E0,9.589916921E0
8.494721333E0,-2.006934858E0,9.789654613E0,1.750058635E0,1.014533539E1
8.504712333E0,-1.990390892E0,9.933647561E0,1.709399582E0,1.027429106E1
8.514704333E0,-1.984610627E0,1.000272423E1,1.747419202E0,1.034633487E1
8.524695333E0,-1.902660438E0,1.004782263E1,1.744378796E0,1.037408858E1
8.534687333E0,-1.819730840E0,1.014225166E1,1.762423157E0,1.045384257E1
8.544678333E0,-1.795505241E0,1.028207145E1,2.021882973E0,1.063169051E1
8.554670333E0,-1.796016288E0,1.041643812E1,2.490529121E0,1.085958531E1
8.564661333E0,-1.803137320E0,1.056890544E1,3.116365968E0,1.116533937E1
8.574653333E0,-1.653283269E0,1.059830758E1,3.177424933E0,1.118720244E1
8.584644333E0,-1.246681049E0,1.046965714E1,2.270729946E0,1.078536735E1
8.594636333E0,-7.397417772E-1,1.036198651E1,1.187925010E0,1.045605797E1
8.604627333E0,-2.442051793E-1,1.033903268E1,6.132290804E-1,1.036008122E1
8.614619333E0,3.092264915E-1,1.077322704E1,3.653515756E-1,1.078385476E1
8.624610333E0,9.727808028E-1,1.136981377E1,-8.473784924E-3,1.141135573E1
8.634602333E0,1.298627712E0,1.142509920E1,-4.190325236E-1,1.150629888E1
8.644593333E0,1.573999702E0,1.157405818E1,-6.903573632E-1,1.170097822E1
8.654585333E0,1.865795644E0,1.185277858E1,-8.808064395E-1,1.203101714E1
8.664576333E0,2.250689930E0,1.200479917E1,-1.027449930E0,1.225709842E1
8.674568333E0,2.692595446E0,1.195941075E1,-1.037714133E0,1.230261867E1
8.684559333E0,3.309939796E0,1.190434401E1,-9.569143832E-1,1.239293318E1
8.694551333E0,3.804734108E0,1.169252979E1,-9.939471388E-1,1.233609280E1
8.704542333E0,4.175152296E0,1.151177364E1,-1.007144305E0,1.228686977E1
8.714534333E0,4.510396266E0,1.110783161E1,-7.210774648E-1,1.201031017E1
8.724525333E0,4.824671536E0,1.096245112E1,-7.587499058E-1,1.200118708E1
8.734517333E0,5.198945378E0,1.091448290E1,-9.069604504E-1,1.212342969E1
8.744508333E0,5.362993691E0,1.080601471E1,-7.650801015E-1,1.208788662E1
8.754500333E0,5.532207434E0,1.066668141E1,-5.467585176E-1,1.202839791E1
8.764491333E0,5.716197091E0,1.044180101E1,-3.451657812E-1,1.190904097E1
8.774483333E0,5.907310996E0,1.017059077E1,-1.443630767E-1,1.176257117E1
8.784474333E0,5.953906873E0,9.828269041E0,1.539220135E-2,1.149104505E1
8.794466333E0,5.951710074E0,9.427128997E0,1.190627593E-1,1.114934033E1
8.804457333E0,6.073699365E0,9.226199956E0,1.821080232E-1,1.104743196E1
8.814449333E0,6.270361108E0,9.168943436E0,2.328910911E-1,1.111040910E1
8.824440333E0,6.429618797E0,9.154473331E0,2.541001117E-1,1.118968037E1
8.834432333E0,6.526501898E0,9.127708871E0,2.654998434E-1,1.122411629E1
8.844423333E0,6.529715527E0,9.029817710E0,2.906673924E-1,1.114716467E1
8.854415333E0,6.436860573E0,8.795610411E0,3.036119950E-1,1.090358275E1
8.864407083E0,6.015734746E0,8.401601046E0,3.115899360E-1,1.033794240E1
8.874399083E0,5.654015461E0,8.067225680E0,3.206144921E-1,9.856511283E0
8.884390083E0,5.568331532E0,7.797764933E0,3.373153460E-1,9.587764893E0
8.894382083E0,5.732544737E0,7.547930365E0,3.367142522E-1,9.484023326E0
8.904373083E0,5.956909418E0,7.232653175E0,3.117653525E-1,9.375139434E0
8.914365083E0,6.088102811E0,6.823625237E0,3.068864357E-1,9.149920027E0
8.924356083E0,6.540065099E0,5.300531394E0,4.351240246E-1,8.429556185E0
8.934348083E0,8.097014320E0,2.863030087E0,-2.748822490E-1,8.592679584E0
8.944339083E0,7.812372447E0,-5.701403636E0,-8.983124185E-1,9.713193701E0
8.954331083E0,1.156676788E1,-5.512223054E1,-4.885891299E0,5.653425822E1
8.964322083E0,1.363468364E1,-7.117621018E1,-1.257549210E1,7.355338534E1
8.974314083E0,-1.203092102E1,-6.839245840E1,-1.593363926E0,6.946085398E1
8.984305083E0,-1.475249469E1,-5.781867170E1,-1.442869459E0,5.968849780E1
8.994297083E0,-1.267774470E1,-2.153255173E1,-4.439942873E0,2.537891029E1
9.004288083E0,-1.349281381E1,-5.759774635E0,-7.710991522E-1,1.469100481E1
9.014280083E0,-1.333317664E1,-1.415529048E0,7.781416118E-1,1.343066738E1
9.024271083E0,-1.349432707E1,1.325490113E0,1.405527971E0,1.363192195E1
9.034263083E0,-1.365882445E1,2.426576954E0,2.179870062E0,1.404291973E1
9.044254083E0,-1.381309154E1,2.883838574E0,2.527337928E0,1.433546162E1
9.054246083E0,-1.219674455E1,3.416839178E0,1.698298059E0,1.277965508E1
9.064237083E0,-1.134963854E1,3.451479253E0,2.541558065E-2,1.186286854E1
9.074229083E0,-1.214586208E1,3.552464760E0,-1.264961491E0,1.271778672E1
9.084220083E0,-1.279461183E1,4.685390275E0,-1.374158828E0,1.369464444E1
9.094212083E0,-1.257369233E1,6.546059080E0,-2.021860753E0,1.431909736E1
9.104203083E0,-1.093501716E1,7.849216923E0,-3.865342838E0,1.400448791E1
9.114195083E0,-8.572094160E0,8.886013627E0,-5.029208894E0,1.333172827E1
9.124186083E0,-6.843059628E0,9.760423797E0,-4.882000562E0,1.288127584E1
9.134178083E0,-6.132124159E0,1.037135141E1,-4.500649250E0,1.286171530E1
9.144169083E0,-5.557838119E0,1.060600953E1,-4.050488489E0,1.264054824E1
9.154161083E0,-4.907385664E0,1.060497341E1,-3.391734157E0,1.216765202E1
9.164152083E0,-4.434098580E0,1.049409616E1,-2.749906345E0,1.171961046E1
9.174144083E0,-3.980730037E0,1.030438208E1,-1.963013790E0,1.121962231E1
9.184135083E0,-3.698622639E0,1.014347373E1,-1.291585618E0,1.087373266E1
9.194127083E0,-3.546397689E0,1.003579023E1,-8.982334810E-1,1.068179973E1
9.204118083E0,-3.530487415E0,9.910041182E0,-6.883073294E-1,1.054262892E1
9.214110083E0,-3.490486905E0,9.627632360E0,-3.657579571E-1,1.024736954E1
9.224101083E0,-3.317880315E0,9.256301422E0,-2.024048781E-1,9.835060424E0
9.234093083E0,-3.138345944E0,8.998433365E0,-5.266819200E-2,9.530151742E0
9.244084083E0,-3.147443919E0,8.174781704E0,-8.732465744E-2,8.760198898E0
9.254075083E0,-3.434069460E0,5.849293753E0,-4.991814780E-1,6.801194940E0
9.264067083E0,-2.869530729E0,3.432961121E0,-1.102381414E0,4.608109530E0
9.274058083E0,-1.752871876E0,1.305191504E0,-1.942060293E0,2.923642054E0
9.284050083E0,-7.348593521E-1,1.558581179E-1,-2.157029668E0,2.284094352E0
9.294041083E0,-4.119071066E-1,1.234205722E0,-1.209917557E0,1.776747512E0
9.304033083E0,-6.244832164E-1,3.164442945E0,7.143879578E-2,3.226264394E0
9.314024083E0,-7.212917653E-1,4.178638406E0,8.339040224E-1,4.321652075E0
9.324016083E0,-5.102680913E-1,4.420414926E0,1.232656209E0,4.617345880E0
9.334007083E0,-5.363943279E-2,4.156349990E0,1.283447464E0,4.350328702E0
9.343999083E0,3.127134785E-1,2.809550868E0,1.065259927E0,3.020950929E0
9.353990083E0,4.254214838E-1,3.473813277E-1,6.628565924E-1,8.608345299E-1
9.363982083E0,7.090748852E-1,-2.145598361E0,8.944836617E-2,2.261499620E0
9.373973083E0,1.102885444E0,-4.938446074E0,-5.137702811E-1,5.086115003E0
9.383965083E0,1.468367997E0,-8.503518600E0,-1.117445011E0,8.701414627E0
9.393956083E0,2.470861134E0,-1.265264962E1,-1.712206099E0,1.300485858E1
9.403948083E0,4.367595273E0,-1.640129723E1,-2.329985483E0,1.713205393E1
9.413939083E0,6.588722704E0,-1.941659759E1,-3.019150161E0,2.072512476E1
9.423931083E0,8.941099076E0,-2.075587310E1,-3.943301425E0,2.294121067E1
9.433922083E0,1.063161917E1,-2.022622295E1,-4.421309843E0,2.327400699E1
9.443914083E0,1.053348535E1,-1.819510371E1,-4.220491899E0,2.144361594E1
9.453905083E0,8.657734820E0,-1.527201512E1,-3.033528464E0,1.781553011E1
9.463897083E0,8.233208252E0,-1.492878122E1,-2.260031734E0,1.719773155E1
9.473888083E0,8.870208603E0,-1.611024038E1,-1.969352903E0,1.849591297E1
9.483880083E0,9.041139089E0,-1.672266722E1,-1.667188386E0,1.908322070E1
9.493871083E0,8.751272728E0,-1.669165359E1,-1.421806765E0,1.890020128E1
9.503863083E0,8.092620138E0,-1.544610076E1,-1.208730426E0,1.747951826E1
9.513854083E0,7.170061655E0,-1.342936334E1,-1.035236814E0,1.525874500E1
9.523846083E0,6.287642553E0,-1.145805176E1,-1.086173956E0,1.311492177E1
9.533837083E0,5.544645047E0,-9.928095045E0,-1.683232123E0,1.149536560E1
9.543829083E0,4.850953309E0,-8.802100235E0,-2.103449000E0,1.026806770E1
9.553820083E0,4.329981012E0,-7.968892470E0,-1.875576282E0,9.261196961E0
9.563812083E0,3.907359467E0,-7.292530417E0,-1.424194768E0,8.395045481E0
9.573803083E0,3.466140269E0,-6.562383921E0,-1.122264286E0,7.505896896E0
9.583795083E0,2.918074898E0,-5.437992418E0,-7.863896942E-1,6.221360896E0
9.593786083E0,2.408354984E0,-3.957127751E0,-1.977351455E-1,4.636607915E0
9.603778083E0,1.800082296E0,-2.253922125E0,5.741461448E-1,2.941106086E0
9.613769083E0,9.110494083E-1,-6.487368822E-2,1.298006007E0,1.587148139E0
9.623761083E0,-1.043175432E-1,2.214724145E0,1.810324863E0,2.862369874E0
9.633752083E0,-9.813428807E-1,4.194090258E0,2.205486714E0,4.839173337E0
9.643744083E0,-1.699047379E0,5.868767320E0,2.496288629E0,6.600049149E0
9.653735083E0,-2.162252693E0,7.125362030E0,2.656249738E0,7.905806944E0
9.663727083E0,-2.524484780E0,8.155168973E0,2.620160723E0,8.930008208E0
9.673718083E0,-2.877762440E0,8.930401595E0,2.703912731E0,9.764462779E0
9.683710083E0,-3.101899956E0,9.507835191E0,2.791164883E0,1.038322275E1
9.693701083E0,-3.142372921E0,9.716869642E0,2.782073632E0,1.058451685E1
9.703693083E0,-3.162501377E0,9.769813841E0,2.838480552E0,1.065399687E1
9.713684083E0,-3.159696760E0,9.822901297E0,2.880889238E0,1.071319730E1
9.723676083E0,-3.238583008E0,9.908614461E0,3.015509684E0,1.085183667E1
9.733667083E0,-3.278958032E0,9.989400762E0,3.233902019E0,1.099990071E1
9.743658083E0,-3.213212231E0,9.990973663E0,3.352206395E0,1.101733068E1
9.753650083E0,-3.105014184E0,9.979010260E0,3.352708086E0,1.097553691E1
9.763642083E0,-2.935782314E0,9.960430148E0,3.200461793E0,1.086609140E1
9.773633083E0,-2.842168391E0,9.997924833E0,2.827138416E0,1.077168203E1
9.783624083E0,-2.798972086E0,1.006480646E1,1.965700732E0,1.063007776E1
9.793616083E0,-2.511921452E0,1.004400791E1,1.268194417E0,1.043073158E1
9.803607083E0,-2.081512293E0,9.995670147E0,9.528808276E-1,1.025446717E1
9.813599083E0,-1.780463425E0,1.001249259E1,5.976660582E-1,1.018711257E1
9.823590083E0,-1.489329388E0,1.004491189E1,3.093937218E-1,1.015943312E1
9.833582083E0,-1.197852997E0,1.006008074E1,6.901713487E-2,1.013137896E1
9.843573083E0,-1.000712513E0,1.007206753E1,-2.268930538E-1,1.012420122E1
9.853565083E0,-8.034818365E-1,1.004753027E1,-4.949937022E-1,1.009175239E1
9.863559833E0,-6.873627848E-1,1.011071996E1,-7.180848598E-1,1.015946709E1
9.873551833E0,-5.810877400E-1,1.016298705E1,-8.852158248E-1,1.021800254E1
9.883542833E0,-5.011389796E-1,1.021670893E1,-1.081830205E0,1.028604094E1
9.893534833E0,-3.997751574E-1,1.025614957E1,-1.233891141E0,1.033783882E1
9.903525833E0,-2.584551910E-1,1.026039348E1,-1.383143660E0,1.035642602E1
9.913517833E0,-1.268691668E-1,1.030390729E1,-1.450617605E0,1.040629101E1
9.923508833E0,-5.660981834E-3,1.034313743E1,-1.544826774E0,1.045786851E1
9.933500833E0,9.184618140E-2,1.038531573E1,-1.640704154E0,1.051451990E1
9.943491833E0,2.125591711E-1,1.049360968E1,-1.646164868E0,1.062407098E1
9.953483833E0,3.899507753E-1,1.080524405E1,-1.592775112E0,1.092896579E1
9.963474833E0,4.323213445E-1,1.116535301E1,-1.581904553E0,1.128514208E1
9.973466833E0,4.211168002E-1,1.129964134E1,-1.537801344E0,1.141157599E1
9.983457833E0,5.218178040E-1,1.139327865E1,-1.465896964E0,1.149904109E1
9.993449833E0,6.264008108E-1,1.142896888E1,-1.407641739E0,1.153235288E1
1.000344083E1,7.347865543E-1,1.132560297E1,-1.324788448E0,1.142647183E1
1.001343283E1,8.717518799E-1,1.115763118E1,-1.260162681E0,1.126235743E1
1.002342383E1,1.004054416E0,1.092968800E1,-1.049603276E0,1.102578216E1
1.003341583E1,1.084479652E0,1.032736866E1,-7.429776263E-1,1.041069908E1
1.004340683E1,1.120187282E0,9.769115683E0,-5.731125398E-1,9.849817195E0
1.005339783E1,1.262404504E0,9.421813878E0,-4.953678509E-1,9.518909139E0
1.006338983E1,1.641260370E0,9.036677663E0,-5.194543960E-1,9.199190816E0
1.007338083E1,2.128386497E0,8.630233610E0,-4.562261142E-1,8.900511419E0
1.008337283E1,2.329052414E0,8.458398560E0,-2.767393796E-1,8.777560939E0
1.009336383E1,2.345550479E0,8.468509566E0,-1.742809403E-1,8.789063383E0
1.010335583E1,1.848249173E0,4.077224298E0,-5.537575178E0,7.120710768E0
1.011334683E1,3.914233747E0,-3.891438961E1,-2.588840931E1,4.690267243E1
1.012333883E1,1.874041387E1,-7.090009063E1,-2.834335812E1,7.862170128E1
1.013332983E1,6.881378186E0,-6.869093303E1,-8.260352197E0,6.952719658E1
1.014332183E1,-9.596701759E-1,-5.265910264E1,-5.037004986E-1,5.267025510E1
1.015331283E1,-3.788430317E0,-1.549646283E1,2.795553803E0,1.619591571E1
1.016330483E1,-6.255824345E0,-2.376895502E0,4.438307991E0,8.030164898E0
1.017329583E1,-7.068535280E0,2.379962366E0,6.568308905E0,9.938364742E0
1.018328783E1,-7.456409746E0,4.317850086E0,6.846404235E0,1.100523178E1
1.019327883E1,-7.435304221E0,4.858575447E0,6.027332114E0,1.073397581E1
1.020327083E1,-6.543830706E0,4.788357403E0,4.841596302E0,9.444106187E0
1.021326183E1,-5.576460332E0,4.676158106E0,3.555974844E0,8.099896391E0
1.022325383E1,-4.940711870E0,4.741494893E0,2.701994845E0,7.361601982E0
1.023324483E1,-4.401187820E0,4.965578324E0,2.034758395E0,6.940292792E0
1.024323683E1,-4.094957149E0,5.169683572E0,1.360139544E0,6.733816293E0
1.025322783E1,-3.941966506E0,5.243915144E0,8.166127825E-1,6.610945652E0
1.026321983E1,-3.831313797E0,5.506791927E0,4.108300495E-1,6.721049327E0
1.027321083E1,-3.663595771E0,5.853261673E0,2.130878873E-1,6.908546348E0
1.028320283E1,-3.467267904E0,6.104600145E0,5.105437875E-2,7.020733309E0
1.029319383E1,-3.238977987E0,6.339374040E0,-2.367783201E-1,7.122829886E0
1.030318583E1,-2.979903649E0,6.639467180E0,-3.656508800E-1,7.286703697E0
1.031317683E1,-2.624454918E0,6.951176400E0,-5.037024721E-1,7.447169471E0
1.032316883E1,-2.265146440E0,7.252333733E0,-1.130515950E0,7.681490694E0
1.033315983E1,-1.894142945E0,7.340387539E0,-2.019279792E0,7.845161413E0
1.034315183E1,-1.458584875E0,7.126412190E0,-3.350108414E0,8.008523392E0
1.035314283E1,-1.501059634E0,6.922019843E0,-3.222595843E0,7.781559144E0
1.036313483E1,-1.886351823E0,7.110884324E0,-1.498125647E0,7.507821224E0
1.037312583E1,-1.908349341E0,7.316705731E0,-4.927469826E-1,7.577518033E0
1.038311683E1,-1.848110740E0,7.497117476E0,-6.031987667E-3,7.721549077E0
1.039310883E1,-1.788557726E0,7.456688658E0,1.897515035E-1,7.670537798E0
1.040309983E1,-1.688985783E0,6.935837399E0,1.316605854E-1,7.139737244E0
1.041309183E1,-1.575822133E0,5.926693931E0,-3.353144288E-1,6.141771090E0
1.042308283E1,-1.387164644E0,4.840261382E0,-1.106624008E0,5.155285898E0
1.043307483E1,-1.107589383E0,3.529413282E0,-2.209836896E0,4.308931592E0
1.044306583E1,-1.011168651E0,1.943308089E0,-3.304032354E0,3.964282806E0
1.045305783E1,-1.330877299E0,7.945389587E-1,-3.558483299E0,3.881408241E0
1.046304883E1,-1.243895143E0,-3.478303939E-1,-3.456988792E0,3.690397352E0
1.047304083E1,-6.453916901E-1,-5.108104205E-1,-1.945031556E0,2.112014553E0
1.048303183E1,-8.220512778E-2,-6.205872166E-1,-5.717664742E-1,8.478225507E-1
1.049302383E1,5.178168467E-1,-1.814951180E0,-2.585802484E-1,1.905005464E0
1.050301483E1,3.694485734E-1,-3.857864833E0,-9.420317575E-1,3.988362716E0
1.051300683E1,2.088046557E-1,-6.675777805E0,-2.280988009E0,7.057798168E0
1.052299783E1,6.997300114E-1,-9.808000837E0,-3.807250458E0,1.054427136E1
1.053298983E1,1.444594973E0,-1.214274201E1,-4.389445441E0,1.299231578E1
1.054298083E1,1.859041379E0,-1.353987922E1,-4.104945948E0,1.427007167E1
1.055297283E1,2.012359174E0,-1.538108323E1,-4.160025842E0,1.606029657E1
1.056296383E1,2.692871434E0,-1.795992870E1,-4.708524199E0,1.876115123E1
1.057295583E1,3.487547802E0,-2.040568569E1,-4.972558730E0,2.129040484E1
1.058294683E1,3.687493634E0,-2.099885999E1,-4.280976667E0,2.174572352E1
1.059293883E1,4.099427345E0,-1.901750290E1,-2.897899666E0,1.966897414E1
1.060292983E1,5.203158882E0,-1.605358437E1,-1.540942761E0,1.694594164E1
1.061292183E1,5.975315284E0,-1.440537122E1,-4.986110821E-1,1.560345237E1
1.062291283E1,6.480791874E0,-1.360645796E1,-3.058795452E-2,1.507107485E1
1.063290483E1,7.156590255E0,-1.344465498E1,-1.624561161E-2,1.523075164E1
1.064289583E1,7.839876580E0,-1.379028156E1,-4.035374022E-1,1.586815593E1
1.065288683E1,8.343131229E0,-1.383441400E1,-7.407964687E-1,1.617243423E1
1.066287883E1,8.106400856E0,-1.280110808E1,-8.976108988E-1,1.517853117E1
1.067286983E1,7.246219885E0,-1.070041400E1,-6.839780509E-1,1.294118960E1
1.068286183E1,6.055050255E0,-8.096283419E0,-9.034883738E-2,1.011046990E1
1.069285283E1,4.519137854E0,-5.339780245E0,6.926716912E-1,7.029626880E0
1.070284483E1,2.991701284E0,-2.685056046E0,1.350517366E0,4.240719243E0
1.071283583E1,1.631753236E0,-2.501842314E-1,1.801448936E0,2.443446141E0
1.072282783E1,5.539517623E-1,1.926452320E0,2.107860578E0,2.908806854E0
1.073281883E1,-2.880104542E-1,3.828328208E0,2.311759712E0,4.481437254E0
1.074281083E1,-9.746905035E-1,5.445511352E0,2.360309436E0,6.014538727E0
1.075280183E1,-1.508149529E0,6.872348331E0,2.344196995E0,7.416127435E0
1.076279383E1,-1.901085929E0,8.004042422E0,2.251511317E0,8.529251199E0
1.077278483E1,-2.237924289E0,8.918928189E0,2.269342840E0,9.471298859E0
1.078277683E1,-2.492714226E0,9.571427169E0,2.471685884E0,1.019485524E1
1.079276783E1,-2.577209415E0,9.854214306E0,2.249509231E0,1.043109964E1
1.080275983E1,-2.515287986E0,9.884014056E0,1.850918573E0,1.036563105E1
1.081275083E1,-2.381120992E0,9.873486729E0,1.495778429E0,1.026610104E1
1.082274283E1,-2.219524417E0,9.873983742E0,1.192262474E0,1.019035492E1
1.083273383E1,-2.085910569E0,9.847532108E0,1.009126584E0,1.011648397E1
1.084272583E1,-1.967485302E0,9.836956834E0,9.049830683E-1,1.007252265E1
1.085271683E1,-1.855405288E0,9.817338256E0,8.183892397E-1,1.002459077E1
1.086270508E1,-1.711290279E0,9.800469038E0,6.546601117E-1,9.970270190E0
1.087269608E1,-1.582832945E0,9.787173055E0,5.352049311E-1,9.928774388E0
1.088268708E1,-1.468206907E0,9.799661538E0,4.565903592E-1,9.919550017E0
1.089267908E1,-1.352878325E0,9.817276275E0,3.977767984E-1,9.918035068E0
1.090267008E1,-1.244898817E0,9.835196822E0,3.242655301E-1,9.918972614E0
1.091266208E1,-1.118349283E0,9.877679182E0,2.264159576E-1,9.943365393E0
1.092265308E1,-9.838681470E-1,9.918464681E0,1.774758589E-1,9.968722879E0
1.093264508E1,-8.808641808E-1,9.954936104E0,1.234745931E-1,9.994594565E0
1.094263608E1,-7.704245297E-1,1.001937242E1,3.223222811E-2,1.004900077E1
1.095262808E1,-6.630385870E-1,1.009090726E1,-1.182061422E-1,1.011335761E1
1.096261908E1,-5.621705355E-1,1.015794325E1,-3.163087121E-1,1.017840350E1
1.097261108E1,-4.561325222E-1,1.024244253E1,-5.211319256E-1,1.026582994E1
1.098260208E1,-4.465214539E-1,1.028971259E1,-9.829824400E-1,1.034619839E1
1.099259408E1,-6.489766181E-1,1.039863218E1,-1.797367433E0,1.057275989E1
1.100258508E1,-8.836461398E-1,1.076502807E1,-4.287508299E0,1.162107514E1
1.101257708E1,-5.428730428E-1,1.096113199E1,-3.401099643E0,1.148949975E1
1.102256808E1,4.084950736E-2,1.117954421E1,-8.298730981E-1,1.121037763E1
1.103256008E1,2.565231979E-1,1.128047767E1,-7.173761773E-1,1.130617571E1
1.104255108E1,3.590845299E-1,1.128492039E1,-7.662214780E-1,1.131660131E1
1.105254308E1,4.060426417E-1,1.119392719E1,-7.406165206E-1,1.122574672E1
1.106253408E1,4.521023288E-1,1.106987032E1,-7.372608036E-1,1.110360207E1
1.107252508E1,5.281237337E-1,1.102474502E1,-7.009139264E-1,1.105962014E1
1.108251708E1,6.116968176E-1,1.105036167E1,-6.930213547E-1,1.108895598E1
1.109250808E1,6.430998740E-1,1.099873193E1,-6.982288849E-1,1.103961978E1
1.110250008E1,6.738451186E-1,1.092704506E1,-6.810181904E-1,1.096896380E1
1.111249108E1,7.142540565E-1,1.083711488E1,-6.710884488E-1,1.088134080E1
1.112248308E1,7.497080639E-1,1.066794792E1,-6.157351971E-1,1.071197017E1
1.113247408E1,7.925585067E-1,1.019535958E1,-4.749348289E-1,1.023714164E1
1.114246608E1,7.516277048E-1,9.788820800E0,-3.445805115E-1,9.823680196E0
1.115245708E1,8.089283717E-1,9.581829951E0,-1.927406001E-1,9.617846914E0
1.116244908E1,9.583884662E-1,9.415118816E0,-2.158914810E-1,9.466233670E0
1.117244008E1,1.156671496E0,9.211417610E0,-4.621709784E-1,9.295251764E0
1.118243208E1,1.480469395E0,8.836753174E0,-1.008727731E0,9.016514178E0
1.119242308E1,3.531664752E0,6.439151512E0,-2.078712062E0,7.632586191E0
1.120241508E1,3.984202698E0,-1.273303948E1,-1.646288829E1,2.119034819E1
1.121240608E1,2.267172266E1,-6.517997473E1,-3.995589566E1,7.974277217E1
1.122239808E1,3.615995811E1,-7.016146099E1,-1.473073837E1,8.029425777E1
1.123238908E1,9.233505467E0,-6.372099152E1,-9.931215119E-1,6.439416645E1
1.124238108E1,-4.029706023E0,-2.626790062E1,3.332537531E0,2.678333325E1
1.125237208E1,-1.575371810E1,-2.288022501E0,1.074005461E1,1.920321468E1
1.126236408E1,-2.077867022E1,-1.969666167E0,1.054350865E1,2.338371860E1
1.127235508E1,-1.155535528E1,-5.308737962E0,2.261561512E0,1.291602086E1
1.128234608E1,-6.513002431E0,-8.300058884E0,1.050071054E0,1.060249156E1
1.129233808E1,-3.754442499E0,-1.077715520E1,4.051933336E-1,1.141959256E1
1.130232908E1,-2.707807854E0,-1.098966640E1,-7.021605527E-1,1.134010672E1
1.131232108E1,-3.398027515E0,-8.078083375E0,-1.986582162E0,8.986018623E0
1.132231208E1,-4.361791912E0,-3.987425684E0,-2.619322232E0,6.464181404E0
1.133230408E1,-4.656616711E0,-1.102284935E0,-2.171209166E0,5.254832111E0
1.134229508E1,-4.780879107E0,1.014115355E0,-1.281226691E0,5.052403074E0
1.135228708E1,-4.788672568E0,2.594002619E0,-6.630999827E-1,5.486340870E0
1.136227808E1,-4.696558456E0,3.707789612E0,-5.808110936E-1,6.011880460E0
1.137227008E1,-4.496589528E0,4.674089361E0,-5.138369393E-1,6.506186067E0
1.138226108E1,-4.347292571E0,5.422000868E0,-5.433593850E-1,6.970816705E0
1.139225308E1,-4.240597258E0,6.045636238E0,-4.637133642E-1,7.399149458E0
1.140224408E1,-4.151802025E0,6.501032011E0,-2.529680177E-1,7.717828068E0
1.141223608E1,-4.054413725E0,6.754138681E0,-1.868993048E-1,7.879821782E0
1.142222708E1,-3.971401682E0,6.912707568E0,-2.806149689E-1,7.977236489E0
1.143221908E1,-3.876211642E0,6.959040320E0,-3.405114341E-1,7.973029970E0
1.144221008E1,-3.793605980E0,7.232460217E0,-3.040412537E-1,8.172659800E0
1.145220108E1,-3.764684190E0,7.565614100E0,-2.828076017E-1,8.455255401E0
1.146219308E1,-3.719107775E0,7.882162474E0,-2.774736619E-1,8.719933460E0
1.147218408E1,-3.707818263E0,8.124288073E0,-1.871600175E-1,8.932357015E0
1.148217608E1,-3.661878736E0,8.244263583E0,-1.077244600E-1,9.021576495E0
1.149216708E1,-3.604362307E0,8.302790118E0,-6.004860241E-2,9.051594182E0
1.150215908E1,-3.575272702E0,8.300619047E0,2.920452157E-2,9.037903759E0
1.151215008E1,-3.520880148E0,8.279916980E0,1.112327893E-1,8.998110632E0
1.152214208E1,-3.490013866E0,8.253139071E0,2.148267031E-1,8.963294697E0
1.153213308E1,-3.493449105E0,8.284422260E0,3.592119992E-1,8.998048238E0
1.154212508E1,-3.479807551E0,8.281282890E0,4.960356760E-1,8.996374730E0
1.155211608E1,-3.406649527E0,8.067698720E0,5.919720761E-1,8.777440093E0
1.156210808E1,-3.274462692E0,7.629478558E0,6.283336079E-1,8.326214753E0
1.157209908E1,-3.064722482E0,6.988902050E0,6.449630892E-1,7.658541189E0
1.158209108E1,-2.748812623E0,6.202482535E0,5.948138595E-1,6.810327743E0
1.159208208E1,-2.545455526E0,5.452226880E0,5.304617429E-1,6.040489338E0
1.160207408E1,-2.459875970E0,4.173680552E0,4.350913167E-1,4.864144693E0
1.161206508E1,-2.298337867E0,1.800602113E0,6.218164841E-2,2.920340987E0
1.162205608E1,-1.888541605E0,-1.435011386E0,-5.024711215E-1,2.424525583E0
1.163204808E1,-4.067484006E-1,-6.041805727E0,-1.819168192E0,6.322834302E0
1.164203908E1,2.748354202E0,-1.148917299E1,-3.933688602E0,1.245104223E1
1.165203108E1,4.762465055E0,-1.483954102E1,-4.574888424E0,1.624261848E1
1.166202208E1,4.496308862E0,-1.568394328E1,-3.818821220E0,1.675667824E1
1.167201408E1,6.151467333E0,-1.787447047E1,-5.067873023E0,1.957091163E1
1.168200508E1,9.525146458E0,-2.143685620E1,-6.739783766E0,2.440680037E1
1.169199708E1,1.193917353E1,-2.369013455E1,-6.970493846E0,2.742907443E1
1.170198808E1,1.157192161E1,-2.086244913E1,-4.769136436E0,2.432890905E1
1.171198008E1,9.252645743E0,-1.613370292E1,-2.126924547E0,1.871981921E1
1.172197108E1,8.846171869E0,-1.557480032E1,-1.249436403E0,1.795522913E1
1.173196308E1,9.952494307E0,-1.862844554E1,-1.096722333E0,2.114885165E1
1.174195408E1,1.064020405E1,-2.184260151E1,-1.081846139E0,2.432043532E1
1.175194608E1,1.096616878E1,-2.399827346E1,-1.245278155E0,2.641447907E1
1.176193708E1,1.081577255E1,-2.399944524E1,-1.246921077E0,2.635354094E1
1.177192908E1,9.993261094E0,-2.149070672E1,-1.020700489E0,2.372251193E1
1.178192008E1,8.348777300E0,-1.740268320E1,-5.657286394E-1,1.930998482E1
1.179191208E1,6.353309709E0,-1.298781202E1,1.347549319E-2,1.445849186E1
1.180190308E1,4.874839477E0,-9.041989274E0,5.026276807E-1,1.028466162E1
1.181189508E1,4.114358503E0,-6.494642758E0,8.599964914E-1,7.736144028E0
1.182188608E1,3.905280198E0,-4.982456312E0,9.515043931E-1,6.401675166E0
1.183187708E1,3.539890323E0,-3.198514670E0,1.016912663E0,4.878056063E0
1.184186908E1,2.653539846E0,-9.000689220E-1,1.264295640E0,3.074059408E0
1.185186008E1,1.567180095E0,1.580529873E0,1.413221737E0,2.636536328E0
1.186185208E1,5.581120563E-1,4.025226179E0,1.584249287E0,4.361625919E0
1.187184308E1,-2.095456441E-1,6.116254231E0,1.616806583E0,6.329813482E0
1.188183508E1,-7.120138420E-1,7.706227942E0,1.526288323E0,7.888122010E0
1.189182608E1,-1.075950976E0,8.832423896E0,1.280889891E0,8.989441656E0
1.190181808E1,-1.321870979E0,9.677809657E0,1.239007455E0,9.845937341E0
1.191180908E1,-1.509047661E0,1.021208145E1,1.655883526E0,1.045494058E1
1.192180108E1,-1.417165830E0,1.045152376E1,1.537484425E0,1.065863810E1
1.193179208E1,-1.108038595E0,1.047869226E1,1.216846581E0,1.060714177E1
1.194178408E1,-9.395608704E-1,1.043298107E1,9.203388798E-1,1.051555477E1
1.195177508E1,-8.162310324E-1,1.031212614E1,6.812474743E-1,1.036678719E1
1.196176608E1,-6.787039355E-1,1.024265537E1,6.497052542E-1,1.028565724E1
1.197175808E1,-5.162867034E-1,1.018998716E1,6.337049333E-1,1.022271843E1
1.198174908E1,-3.498781254E-1,1.014581144E1,6.020679883E-1,1.016967995E1
1.199174108E1,-1.341111900E-1,1.009659777E1,6.612851532E-1,1.011911905E1
1.200173208E1,1.360386881E-1,1.012657878E1,7.717576949E-1,1.015685553E1
1.201172408E1,4.159501639E-1,1.021017408E1,8.792844093E-1,1.025640339E1
1.202171508E1,6.699026334E-1,1.025625599E1,9.541205835E-1,1.032230122E1
1.203170708E1,8.677166433E-1,1.030570355E1,1.038257412E0,1.039415395E1
1.204169808E1,1.071581498E0,1.036910257E1,1.011415111E0,1.047327722E1
1.205169008E1,1.290553292E0,1.042108900E1,9.618669748E-1,1.054465798E1
1.206168108E1,1.611556515E0,1.058488471E1,9.876205245E-1,1.075231571E1
1.207167308E1,2.071472039E0,1.094761089E1,1.058858249E0,1.119206689E1
1.208166408E1,2.484864923E0,1.115340832E1,1.177117162E0,1.148732674E1
1.209165608E1,2.807691161E0,1.119730688E1,1.350122094E0,1.162263484E1
1.210164708E1,3.185118114E0,1.138406344E1,1.458952811E0,1.191093703E1
1.211163808E1,3.656646940E0,1.168779822E1,1.560310786E0,1.234545519E1
1.212163008E1,4.234065041E0,1.194339288E1,1.840468429E0,1.280465792E1
1.213162108E1,4.987209513E0,1.203938896E1,1.927307622E0,1.317321753E1
1.214161308E1,5.843651190E0,1.220025990E1,1.937220991E0,1.366555619E1
1.215160408E1,6.609531190E0,1.227961597E1,1.873555630E0,1.407071717E1
1.216159608E1,7.265808057E0,1.214408219E1,1.774530402E0,1.426252632E1
1.217158708E1,7.945618798E0,1.192003560E1,1.636349001E0,1.441865960E1
1.218157908E1,8.723942842E0,1.140781366E1,1.302066168E0,1.442015144E1
1.219157008E1,9.095861426E0,1.077123314E1,8.767456213E-1,1.412525544E1
1.220156208E1,9.409862169E0,1.025036551E1,5.306300696E-1,1.392469272E1
1.221155308E1,9.283709076E0,9.509327400E0,3.346934545E-1,1.329385503E1
1.222154508E1,8.909548085E0,8.924454977E0,2.067085019E-1,1.261224295E1
1.223153608E1,8.107215958E0,8.637068421E0,-2.282201891E-1,1.184812162E1
1.224152708E1,7.603483592E0,8.772125654E0,-3.731038141E-1,1.161474742E1
1.225151908E1,7.300886673E0,9.356384119E0,-2.107980446E-1,1.186968011E1
1.226151008E1,6.641837057E0,9.408334292E0,1.085406947E-1,1.151705408E1
1.227150208E1,6.049629301E0,8.792662829E0,3.363342198E-1,1.067811102E1
1.228149308E1,5.644903160E0,8.206664817E0,3.782902944E-1,9.967817346E0
1.229148508E1,5.389926551E0,7.760499458E0,3.718840849E-1,9.455948278E0
1.230147608E1,5.339487884E0,7.574970229E0,4.924605422E-1,9.280777027E0
1.231146808E1,5.278306713E0,7.557274801E0,6.432497089E-1,9.240492105E0
1.232145908E1,5.183170760E0,7.563994421E0,3.822476900E-1,9.177438859E0
1.233145108E1,5.126469140E0,7.382155370E0,-1.706392213E-1,8.989216956E0
1.234144208E1,5.989813455E0,4.997952603E0,-1.643794992E0,7.972418542E0
1.235143408E1,6.815606951E0,1.925827253E0,-3.221490719E0,7.780701200E0
1.236142508E1,5.684622127E0,-9.826510198E0,-1.996948106E0,1.152662280E1
1.237141708E1,6.089179283E0,-5.812949565E1,-7.605076958E0,5.894025420E1
1.238140808E1,-4.281274290E0,-7.103799604E1,-1.559235951E1,7.285497832E1
1.239140008E1,-3.353690652E1,-6.827185607E1,-1.623806724E0,7.608158239E1
1.240139108E1,-3.343050123E1,-4.909865819E1,8.988206584E0,6.007549006E1
1.241138208E1,-2.523312822E1,-1.177966734E1,9.502379154E0,2.942391089E1
1.242137408E1,-1.625263762E1,-1.112154450E0,-1.368928494E0,1.634806051E1
1.243136508E1,-2.005683145E1,4.302864257E0,-2.458809613E1,3.202133039E1
1.244135708E1,-1.872213431E1,4.988159686E0,-1.473868239E1,2.434396863E1
1.245134808E1,-1.577918506E1,2.054012838E0,8.873005911E0,1.821899788E1
1.246134008E1,-1.818217435E1,1.034232116E0,1.057588117E1,2.105968572E1
1.247133108E1,-1.689176870E1,2.548384981E0,-2.900642302E0,1.732743032E1
1.248132308E1,-1.487563588E1,4.654818107E0,-5.485877606E0,1.652412562E1
1.249131408E1,-9.993022528E0,5.599695997E0,-1.739273007E0,1.158629212E1
1.250130608E1,-4.353931500E0,4.022493775E0,-2.681831306E0,6.506104428E0
1.251129708E1,-2.516498360E0,2.578441424E0,-2.457319275E0,4.361140011E0
1.252128908E1,-1.751165074E0,3.646531257E0,1.879330194E-1,4.049578761E0
1.253128008E1,-1.354853515E0,5.141098289E0,2.018961704E0,5.687066557E0
1.254127108E1,-9.443765641E-1,6.084992677E0,2.760275213E0,6.748192515E0
1.255126308E1,-5.430278479E-1,6.721184358E0,2.464469250E0,7.179331940E0
1.256125408E1,-2.862340701E-1,7.240865589E0,1.704801332E0,7.444354371E0
1.257124608E1,-1.728581665E-1,7.562443154E0,7.861066890E-1,7.605155497E0
1.258123708E1,-2.220560543E-1,7.838252808E0,3.548523152E-1,7.849422663E0
1.259122908E1,-2.481283504E-1,8.130063953E0,3.180908704E-1,8.140066914E0
1.260122008E1,-2.816260256E-1,8.567079003E0,7.366193640E-1,8.603299597E0
1.261121208E1,-2.415205581E-1,9.043658654E0,9.832619369E-1,9.100159233E0
1.262120308E1,-1.764290611E-1,9.462094762E0,1.210088296E0,9.540790228E0
1.263119508E1,-2.175643694E-1,9.716994188E0,1.309065285E0,9.807189313E0
1.264118608E1,-1.132351318E-1,9.930532165E0,1.122747851E0,9.994441155E0
1.265117808E1,1.994825859E-1,1.026913507E1,7.205751890E-1,1.029631764E1
1.266116908E1,5.919675811E-1,1.045198218E1,6.628397816E-1,1.048969559E1
1.267116008E1,1.083309405E0,1.037274422E1,7.737924528E-1,1.045782658E1
1.268115208E1,1.906312755E0,1.003450034E1,8.768063593E-1,1.025153719E1
1.269114308E1,4.005736532E0,9.111220307E0,1.146294004E0,1.001869505E1
1.270113508E1,5.209416572E0,8.303730351E0,1.289176565E0,9.886957822E0
1.271112608E1,4.298113394E0,7.940016580E0,9.741893971E-1,9.081117058E0
1.272111808E1,2.934435993E0,7.941738001E0,4.983499674E-1,8.481183276E0
1.273110908E1,2.070409162E0,8.051338795E0,3.917597942E-3,8.313282495E0
1.274110108E1,1.586267745E0,7.592132977E0,-4.542058647E-1,7.769364933E0
1.275109208E1,-5.323385529E-1,4.784878895E0,-4.831526227E0,6.820710817E0
1.276108408E1,-4.125379627E0,-1.709669139E0,-1.188714735E1,1.269826751E1
1.277107508E1,-4.250094305E0,-6.552642460E0,-9.339721309E0,1.217500796E1
1.278106708E1,-3.637093851E0,-9.056968671E0,-7.220695034E0,1.214065772E1
1.279105808E1,-7.230556510E-1,-9.736668899E0,-3.422816786E-1,9.769477339E0
1.280105008E1,9.084924940E-1,-1.051402815E1,3.761590720E0,1.120355798E1
1.281104108E1,1.522052161E0,-1.257772807E1,3.203303540E0,1.306816896E1
1.282103208E1,2.864884239E0,-1.682063615E1,1.415213445E0,1.712145412E1
1.283102408E1,4.333408358E0,-2.274388666E1,-2.263970565E0,2.326345570E1
1.284101508E1,6.576027814E0,-2.915658653E1,-1.712818332E1,3.444888016E1
1.285100708E1,5.790492398E0,-3.028855837E1,-1.651802403E1,3.498244829E1
1.286099808E1,4.862272641E0,-2.800447923E1,-5.827749102E0,2.901474128E1
1.287098983E1,3.932786377E0,-2.438792723E1,-5.440464621E0,2.529498880E1
1.288098083E1,2.416908145E0,-2.186215928E1,-5.177751560E0,2.259656090E1
1.289097283E1,1.266283254E0,-2.093996683E1,-4.905302886E0,2.154408691E1
1.290096383E1,1.952012546E-1,-2.056256649E1,-4.527169297E0,2.105593754E1
1.291095583E1,-1.290125715E0,-1.970483608E1,-3.986934518E0,2.014548675E1
1.292094683E1,-2.662858846E0,-1.854549694E1,-3.505198792E0,1.906076317E1
1.293093883E1,-3.527104216E0,-1.664120147E1,-2.674087254E0,1.721977913E1
1.294092983E1,-3.875118505E0,-1.404918223E1,-1.685306715E0,1.467093465E1
1.295092183E1,-3.651629444E0,-1.123177621E1,-8.106756659E-1,1.183825957E1
1.296091283E1,-2.845925812E0,-8.182702927E0,-1.102725669E-1,8.664183802E0
1.297090383E1,-1.925685604E0,-4.806415944E0,6.862898938E-1,5.223111438E0
1.298089583E1,-1.381465947E0,-1.346733048E0,1.440207953E0,2.407558310E0
1.299088683E1,-1.104427063E0,1.808963047E0,2.137860156E0,3.010407363E0
1.300087883E1,-9.149626574E-1,4.311110585E0,2.951911858E0,5.304395796E0
1.301086983E1,2.455821072E-1,6.305375989E0,3.272794189E0,7.108393542E0
1.302086183E1,1.164594619E0,7.756253210E0,3.102026256E0,8.434353051E0
1.303085283E1,1.101397913E0,8.848454037E0,2.689410467E0,9.313492625E0
1.304084483E1,8.154953796E-1,9.539362208E0,2.405525808E0,9.871728241E0
1.305083583E1,5.385879839E-1,9.875467765E0,1.941060419E0,1.007882216E1
1.306082783E1,2.251446633E-1,1.007254934E1,1.415029696E0,1.017394954E1
1.307081883E1,-1.887715101E-1,1.016313323E1,7.761652529E-1,1.019447617E1
1.308081083E1,-2.187434970E-1,1.019690090E1,2.777368963E-1,1.020302771E1
1.309080183E1,-1.404281929E-1,1.024826752E1,-3.720817208E-2,1.024929714E1
1.310079283E1,-1.590914089E-1,1.026817379E1,-2.049414003E-1,1.027145092E1
1.311078483E1,-1.101376424E-1,1.027947996E1,-2.401837385E-1,1.028287542E1
1.312077583E1,-7.136526704E-2,1.026938299E1,-1.703048337E-1,1.027104297E1
1.313076783E1,-7.047473609E-2,1.024942410E1,-9.254095852E-2,1.025008414E1
1.314075883E1,-5.656570841E-2,1.020278320E1,-2.897645960E-2,1.020298115E1
1.315075083E1,1.318426531E-2,1.019157760E1,2.833561619E-2,1.019162552E1
1.316074183E1,3.429359090E-2,1.019968184E1,1.381159298E-1,1.020067457E1
1.317073383E1,1.550889898E-2,1.017908327E1,2.524149259E-1,1.018222422E1
1.318072483E1,4.203625459E-2,1.012670859E1,4.023293309E-1,1.013478479E1
1.319071683E1,1.029045270E-1,1.011443528E1,5.740083333E-1,1.013123270E1
1.320070783E1,1.780210752E-1,1.014982146E1,7.057940856E-1,1.017588878E1
1.321069983E1,2.350896625E-1,1.017815941E1,8.070350432E-1,1.021281066E1
1.322069083E1,2.797261190E-1,1.020043847E1,8.676823640E-1,1.024109683E1
1.323068183E1,3.126120293E-1,1.022540491E1,9.120533022E-1,1.027075816E1
1.324067383E1,3.504128167E-1,1.026988117E1,9.450269938E-1,1.031922112E1
1.325066483E1,4.265777707E-1,1.042350390E1,9.590299058E-1,1.047621785E1
1.326065683E1,4.979500544E-1,1.066659253E1,9.150576016E-1,1.071734487E1
1.327064783E1,4.675287455E-1,1.077414154E1,8.010358000E-1,1.081398943E1
1.328063983E1,5.192871290E-1,1.086797883E1,7.529412818E-1,1.090639920E1
1.329063083E1,6.063156250E-1,1.099859627E1,8.434726254E-1,1.104754202E1
1.330062283E1,7.166175011E-1,1.110575468E1,9.020933743E-1,1.116535267E1
1.331061383E1,8.474580145E-1,1.118428513E1,9.711488450E-1,1.125831022E1
1.332060583E1,9.381307876E-1,1.119460663E1,1.109525615E0,1.128850540E1
1.333059683E1,1.031939788E0,1.116314510E1,1.201848473E0,1.127497885E1
1.334058883E1,1.111355575E0,1.107917675E1,1.291308168E0,1.120940433E1
1.335057983E1,1.190730211E0,1.097413503E1,1.330076669E0,1.111838936E1
1.336057083E1,1.357596882E0,1.097046415E1,1.253172920E0,1.112495372E1
1.337056283E1,1.583958826E0,1.098977399E1,1.311970035E0,1.118057795E1
1.338055383E1,1.773303071E0,1.087043349E1,1.345542409E0,1.109600885E1
1.339054583E1,1.968096775E0,1.072086171E1,1.406637772E0,1.099040084E1
1.340053683E1,2.191717983E0,1.057716522E1,1.464975443E0,1.090074332E1
1.341052883E1,2.365179436E0,1.034291290E1,1.555946424E0,1.072338054E1
1.342051983E1,2.510400884E0,9.960170531E0,1.656345602E0,1.040435439E1
1.343051183E1,2.662646007E0,9.383849076E0,1.739906845E0,9.908258327E0
1.344050283E1,2.858507558E0,8.879061288E0,1.731443439E0,9.487185631E0
1.345049483E1,3.410573594E0,8.449151773E0,1.616689493E0,9.253856647E0
1.346048583E1,4.487192176E0,7.635370798E0,1.442338386E0,8.972966113E0
1.347047783E1,6.098600317E0,5.753883566E0,1.268684413E0,8.479956489E0
1.348046883E1,6.374661402E0,3.996747315E0,2.169496078E0,7.830517883E0
1.349046083E1,6.705459441E0,-1.182861906E0,4.324693083E0,8.066307635E0
1.350045183E1,4.876430212E0,-3.445780790E1,1.931427570E0,3.485470570E1
1.351044383E1,1.534866744E1,-7.080244680E1,-1.156020496E1,7.336352230E1
1.352043483E1,-2.641997150E0,-6.891767402E1,-1.374587897E1,7.032478319E1
1.353042583E1,-1.203532749E1,-6.115346041E1,-6.234741039E0,6.263758316E1
1.354041783E1,-7.786631250E0,-2.221793195E1,-3.712039368E0,2.383374420E1
1.355040883E1,-8.138002717E0,-1.816139919E0,1.344076073E-1,8.339275618E0
1.356040083E1,-8.870681058E0,3.569687149E0,2.712975916E0,9.939410802E0
1.357039183E1,-1.307869997E1,5.914149315E0,5.058692894E0,1.521906465E1
1.358038383E1,-1.597508199E1,5.444792145E0,6.032595778E0,1.792320334E1
1.359037483E1,-1.030708584E1,2.687299622E0,-5.708421025E-1,1.066693294E1
1.360036683E1,-8.916091704E0,3.111028630E-1,-2.909532409E0,9.383967983E0
1.361035783E1,-8.553299455E0,-5.225574768E-1,-4.349941944E0,9.610098480E0
1.362034983E1,-7.053682183E0,9.118189019E-1,-5.716118739E0,9.124684076E0
1.363034083E1,-6.370475965E0,2.254808562E0,-5.438243848E0,8.674192863E0
1.364033283E1,-5.670902805E0,3.225368593E0,-2.817062201E0,7.106193118E0
1.365032383E1,-5.008409178E0,4.606891989E0,-7.206155348E-1,6.843018562E0
1.366031583E1,-4.783293130E0,5.945478696E0,-6.545957923E-2,7.631048096E0
1.367030683E1,-4.727189096E0,6.932826083E0,1.717276074E-2,8.391107742E0
1.368029783E1,-4.499514890E0,7.790548300E0,1.069555511E-1,8.997206041E0
1.369028983E1,-4.235795816E0,8.499749485E0,1.397776902E-1,9.497749486E0
1.370028083E1,-3.897842247E0,9.012570178E0,1.215238341E-1,9.820099971E0
1.371027283E1,-3.581287148E0,9.445317346E0,1.892772943E-1,1.010324024E1
1.372026383E1,-3.300481340E0,9.787881737E0,2.760704398E-1,1.033305477E1
1.373025583E1,-3.099316364E0,1.002942846E1,4.158919841E-1,1.050562532E1
1.374024683E1,-2.984589608E0,1.015751172E1,5.329801387E-1,1.060032487E1
1.375023883E1,-2.919943084E0,1.015217906E1,6.387977850E-1,1.058304634E1
1.376022983E1,-2.811541845E0,1.011944869E1,7.786421335E-1,1.053158548E1
1.377022183E1,-2.652687029E0,1.006548122E1,9.380056572E-1,1.045134036E1
1.378021283E1,-2.484131975E0,1.000597762E1,1.030619706E0,1.036111368E1
1.379020483E1,-2.328106334E0,9.940418637E0,1.051550399E0,1.026341853E1
1.380019583E1,-2.230957331E0,9.861165476E0,1.044868201E0,1.016422671E1
1.381018783E1,-2.192801764E0,9.768543826E0,1.010962536E0,1.006254805E1
1.382017883E1,-2.150496136E0,9.672322630E0,9.141830043E-1,9.950587382E0
1.383016983E1,-2.038730117E0,9.610602345E0,5.884626138E-1,9.842072250E0
1.384016183E1,-1.907926879E0,9.519271760E0,4.507244325E-1,9.719046884E0
1.385015283E1,-1.768697950E0,9.443143936E0,4.154692304E-1,9.616333736E0
1.386014483E1,-1.549809771E0,9.137826308E0,3.480520034E-1,9.274854185E0
1.387013621E1,-1.170044078E0,8.213044129E0,1.896439512E-1,8.298136046E0
1.388012821E1,-5.501167198E-1,5.616524284E0,-7.639620408E-1,5.694875893E0
1.389011921E1,2.720583728E-1,1.251057982E0,-3.275307323E0,3.516646114E0
1.390011121E1,1.403092021E0,-7.115716463E0,-1.231979921E1,1.429613726E1
1.391010221E1,7.309519503E-1,-1.422936535E1,-1.545548905E1,2.102097217E1
1.392009421E1,-4.409167515E-1,-1.496001237E1,-6.641952832E0,1.637412334E1
1.393008521E1,2.575797898E-1,-1.959382669E1,-2.948970709E0,1.981617572E1
1.394007721E1,2.073125632E0,-2.774383141E1,-4.659968335E0,2.820874573E1
1.395006821E1,4.761765436E0,-3.461822977E1,-6.713147360E0,3.558317847E1
1.396006021E1,6.862427945E0,-3.440417958E1,-5.590915818E0,3.552462286E1
1.397005121E1,8.593634133E0,-2.772949871E1,-3.548534846E0,2.924667068E1
1.398004221E1,9.472858901E0,-2.283489272E1,-2.938922853E0,2.489587614E1
1.399003421E1,9.363244658E0,-2.065026536E1,-3.001553550E0,2.287166662E1
1.400002521E1,1.011483640E1,-2.179816267E1,-3.151905345E0,2.423642545E1
1.401001721E1,1.050860895E1,-2.298051646E1,-3.077717042E0,2.545598831E1
1.402000821E1,9.438581353E0,-2.218300302E1,-2.850653286E0,2.427547456E1
1.403000021E1,7.561764293E0,-2.079534180E1,-2.558121765E0,2.227488511E1
1.403999121E1,5.793290291E0,-1.816798199E1,-2.223210648E0,1.919844909E1
1.404998321E1,4.236600686E0,-1.429288482E1,-1.680247704E0,1.500195235E1
1.405997421E1,3.063387563E0,-1.050866976E1,-1.032911522E0,1.099469826E1
1.406996621E1,2.314936650E0,-7.401078714E0,-5.802108769E-1,7.776345059E0
1.407995721E1,1.744208349E0,-4.478975376E0,-1.041763330E-1,4.807737086E0
1.408994921E1,1.202035949E0,-1.618856032E0,3.883793727E-1,2.053393244E0
1.409994021E1,6.676283589E-1,7.827059484E-1,1.032749554E0,1.457713233E0
1.410993221E1,9.943307161E-2,2.785263873E0,1.578666365E0,3.203087459E0
1.411992321E1,-4.131559257E-1,4.413231037E0,2.006437114E0,4.865500581E0
1.412991421E1,-8.586551401E-1,5.844295553E0,2.329909616E0,6.349925824E0
1.413990621E1,-1.116938788E0,7.102204717E0,2.485616291E0,7.607046237E0
1.414989721E1,-1.203826659E0,8.120444114E0,2.546748930E0,8.595158017E0
1.415988921E1,-1.151902068E0,8.991526049E0,2.572951473E0,9.423083272E0
1.416988021E1,-1.007443243E0,9.613071039E0,3.258240470E0,1.020010822E1
1.417987221E1,-9.655700165E-1,9.905642906E0,3.834729155E0,1.066579742E1
1.418986321E1,-7.346374503E-1,9.998019558E0,4.024566028E0,1.080264870E1
1.419985521E1,-5.268894596E-1,1.011531120E1,4.204929242E0,1.096715838E1
1.420984621E1,-4.218380542E-1,1.024584912E1,4.344966549E0,1.113706001E1
1.421983821E1,-2.327624889E-1,1.030565678E1,4.222663847E0,1.113964227E1
1.422982921E1,7.309370399E-2,1.027213352E1,3.721917654E0,1.092587483E1
1.423982121E1,3.893427014E-1,1.021229078E1,3.016110778E0,1.065548661E1
1.424981221E1,6.606461987E-1,1.012507371E1,2.427345132E0,1.043290829E1
1.425980421E1,1.090194647E0,9.977281823E0,1.497050929E0,1.014770114E1
1.426979521E1,1.233164040E0,9.936847157E0,1.139224428E0,1.007767122E1
1.427978621E1,1.290456521E0,9.956309030E0,1.145618139E0,1.010474188E1
1.428977821E1,1.463622982E0,9.989935198E0,1.113520433E0,1.015780120E1
1.429976921E1,1.621146679E0,1.004003180E1,1.079015867E0,1.022715163E1
1.430976121E1,1.622088081E0,1.015751289E1,1.003592706E0,1.033505860E1
1.431975221E1,1.567260494E0,1.030623214E1,9.140051758E-1,1.046470888E1
1.432974421E1,1.541020529E0,1.040970213E1,7.979755135E-1,1.055336002E1
1.433973521E1,1.517927243E0,1.049090826E1,6.723549557E-1,1.062145567E1
1.434972721E1,1.515693899E0,1.056853473E1,5.964265215E-1,1.069331468E1
1.435971821E1,1.539910874E0,1.061164859E1,5.614238461E-1,1.073748611E1
1.436971021E1,1.598619550E0,1.064928595E1,4.609570964E-1,1.077846729E1
1.437970121E1,1.742214303E0,1.064454268E1,3.800386484E-1,1.079286936E1
1.438969221E1,1.995066472E0,1.072625401E1,2.755290607E-1,1.091369469E1
1.439968421E1,2.266105675E0,1.080909503E1,2.077983499E-1,1.104603777E1
1.440967521E1,2.494882081E0,1.081709168E1,2.017932594E-1,1.110291086E1
1.441966721E1,2.757248401E0,1.087325886E1,1.217238271E-1,1.121806551E1
1.442965821E1,3.050178703E0,1.094836167E1,1.268927292E-1,1.136601580E1
1.443965021E1,3.333440341E0,1.089647231E1,1.316781271E-1,1.139571290E1
1.444964121E1,3.763325004E0,1.066806837E1,3.687721968E-2,1.131245587E1
1.445963321E1,4.686264141E0,1.062378975E1,-1.437853352E-1,1.161234922E1
1.446962421E1,5.277407995E0,1.050781607E1,-2.140069234E-1,1.176057110E1
1.447961621E1,5.413880839E0,1.034736380E1,-1.546717179E-1,1.167912525E1
1.448960721E1,5.495034345E0,1.032336215E1,5.069645606E-2,1.169486120E1
1.449959921E1,5.661191164E0,1.021539448E1,2.003865655E-1,1.168090427E1
1.450959021E1,5.932571552E0,1.000666057E1,3.109234265E-1,1.163723912E1
1.451958121E1,6.182135394E0,9.647284852E0,5.758631066E-1,1.147259872E1
1.452957321E1,6.309184281E0,9.092665338E0,7.933269040E-1,1.109557285E1
1.453956421E1,6.173991977E0,8.619785805E0,9.663004068E-1,1.064671878E1
1.454955621E1,5.922990305E0,8.144191411E0,1.011849120E0,1.012094395E1
1.455954721E1,5.693359036E0,7.654029263E0,7.574004415E-1,9.569334172E0
1.456953921E1,6.004315134E0,7.185316456E0,6.889528620E-1,9.389101600E0
1.457953021E1,6.451282146E0,6.363952226E0,5.234591905E-1,9.077055623E0
1.458952221E1,7.419978084E0,4.446878255E0,-2.931326151E-2,8.650529478E0
1.459951321E1,8.229537370E0,2.651777202E0,-7.128619806E-1,8.675562222E0
1.460950521E1,8.328674573E0,-2.949885213E-1,-1.227510367E0,8.423812680E0
1.461949621E1,4.650193252E0,-3.205473558E1,-8.627763162E0,3.351967583E1
1.462948821E1,1.098507049E1,-7.095920832E1,-2.707297334E1,7.673869235E1
1.463947921E1,-8.995554196E0,-6.910042056E1,-1.472459879E1,7.122220108E1
1.464947121E1,-1.599470174E1,-6.307514082E1,-2.576850396E0,6.512253090E1
1.465946221E1,-1.144272621E1,-2.840838618E1,-1.232907786E0,3.065114109E1
1.466945321E1,-1.259018498E1,-7.659054945E0,-2.696806026E-1,1.473928791E1
1.467944521E1,-1.356832476E1,-2.327675979E0,-4.040415052E-1,1.377246389E1
1.468943621E1,-1.422922736E1,-6.168812513E-1,-8.996175901E-1,1.427097633E1
1.469942821E1,-1.474347009E1,-1.480023837E-1,-1.466900346E0,1.481700414E1
1.470941921E1,-1.551544991E1,-1.655393529E-1,-2.743115973E0,1.575694369E1
1.471941121E1,-1.540926681E1,-4.155247790E-1,-1.980398147E0,1.554156174E1
1.472940221E1,-1.603407689E1,-1.199386722E0,-1.128487478E0,1.611842530E1
1.473939421E1,-1.682566359E1,-6.093020904E-1,-1.261389427E0,1.688387715E1
1.474938521E1,-1.571203681E1,2.101159523E0,-1.613173124E0,1.593377857E1
1.475937721E1,-1.389008534E1,4.156155277E0,-3.048168722E0,1.481551315E1
1.476936821E1,-1.055358691E1,5.616594450E0,-1.854150914E0,1.209802486E1
1.477936021E1,-7.933087045E0,6.304502415E0,6.466519844E-1,1.015375692E1
1.478935121E1,-6.701414922E0,6.919686220E0,1.827046584E0,9.804545811E0
1.479934221E1,-5.403191544E0,7.421254531E0,2.355233614E0,9.477163239E0
1.480933421E1,-4.278663216E0,7.863534999E0,2.393955046E0,9.266777345E0
1.481932521E1,-3.262202835E0,8.392639604E0,2.343456445E0,9.304308409E0
1.482931721E1,-2.490295233E0,8.903311445E0,2.306343875E0,9.528365395E0
1.483930821E1,-2.015557162E0,9.217761839E0,2.180720247E0,9.684273065E0
1.484930021E1,-1.555004876E0,9.543948764E0,1.881765121E0,9.851194757E0
1.485929121E1,-1.228136312E0,9.765510875E0,1.530951916E0,9.960789889E0
1.486928296E1,-1.120354439E0,9.836759198E0,1.086938041E0,9.959842363E0
1.487927396E1,-1.170779804E0,9.943207759E0,9.015049982E-1,1.005240355E1
1.488926596E1,-1.211280397E0,9.985369692E0,4.580333059E-1,1.006899213E1
1.489925696E1,-1.161373681E0,9.932805562E0,5.985911608E-2,1.000064989E1
1.490924796E1,-1.043676977E0,9.860507079E0,-7.096312478E-2,9.915840724E0
1.491923996E1,-1.012317044E0,9.744525803E0,-3.580472338E-1,9.803507879E0
1.492923096E1,-9.636759572E-1,9.588032092E0,-5.677318224E-1,9.653048750E0
1.493922296E1,-8.943624781E-1,9.404613708E0,-4.378396542E-1,9.457184930E0
1.494921396E1,-8.547741969E-1,9.111089914E0,-3.368839677E-1,9.157297045E0
1.495920596E1,-7.753286625E-1,8.802434111E0,-2.744275184E-1,8.840774360E0
1.496919696E1,-7.178125258E-1,8.544337428E0,-2.540803774E-1,8.578199912E0
1.497918896E1,-6.290395130E-1,8.119396293E0,-2.144757240E-1,8.146550601E0
1.498917996E1,-5.969960403E-1,7.464175433E0,-3.737189412E-1,7.497331860E0
1.499917196E1,-9.375030890E-2,3.975401469E0,-5.329733559E0,6.649711706E0
1.500916296E1,-1.922669756E-1,-1.148880812E0,-1.185212837E1,1.190923342E1
1.501915396E1,-7.395001410E-1,-5.103667923E0,-6.575381112E0,8.356430069E0
1.502914596E1,-1.042679442E0,-9.883485467E0,-1.591974482E0,1.006503096E1
1.503913696E1,7.579160929E-3,-1.760950156E1,-4.076205128E0,1.807512243E1
1.504912896E1,1.879055375E0,-2.553766758E1,-5.719232966E0,2.623762452E1
1.505911996E1,3.912640380E0,-3.055992531E1,-5.535163786E0,3.130264889E1
1.506911196E1,5.039000641E0,-2.928807404E1,-3.200962315E0,2.989028217E1
1.507910296E1,5.484511696E0,-2.332677220E1,-1.475763556E0,2.400824958E1
1.508909496E1,5.797961631E0,-1.865435806E1,-3.828487837E-1,1.953837268E1
1.509908596E1,6.304211224E0,-1.795826341E1,-1.021426713E-1,1.903293821E1
1.510907796E1,6.569997581E0,-1.867727798E1,-1.030760331E-1,1.979939912E1
1.511906896E1,6.637254009E0,-2.051893222E1,-3.792983544E-1,2.156904234E1
1.512906096E1,6.414926498E0,-2.189083403E1,-5.497598934E-1,2.281802209E1
1.513905196E1,5.780538683E0,-2.135145177E1,-7.266674030E-1,2.213203935E1
1.514904396E1,4.871327055E0,-1.979745364E1,-7.713905628E-1,2.040254987E1
1.515903496E1,4.142938816E0,-1.803231489E1,-7.110905667E-1,1.851577630E1
1.516902596E1,3.733124135E0,-1.548364690E1,-6.392236085E-1,1.594014254E1
1.517901796E1,3.750857863E0,-1.289097745E1,-5.295820293E-1,1.343602216E1
1.518900896E1,3.732547015E0,-1.050743132E1,-5.339290687E-1,1.116347171E1
1.519900096E1,3.160560978E0,-7.654661347E0,-4.929214489E-1,8.296141126E0
1.520899196E1,2.283309499E0,-4.747131025E0,-3.056711651E-1,5.276569918E0
1.521898396E1,1.283541750E0,-1.891537426E0,6.851314142E-2,2.286938414E0
1.522897496E1,3.064838549E-1,8.146177125E-1,4.328132415E-1,9.720399544E-1
1.523896696E1,-4.600662366E-1,3.261304411E0,7.214866237E-1,3.371692505E0
1.524895796E1,-1.002446359E0,5.378291177E0,9.521253674E-1,5.553148422E0
1.525894896E1,-1.338606880E0,7.108535498E0,1.086830159E0,7.314666438E0
1.526894096E1,-1.505255742E0,8.304142579E0,1.206979916E0,8.525337492E0
1.527893196E1,-1.603749897E0,9.227570543E0,1.345584655E0,9.462064781E0
1.528892396E1,-1.681632032E0,9.787967107E0,1.405778232E0,1.003037381E1
1.529891496E1,-1.673785069E0,9.943759736E0,1.394031175E0,1.017954994E1
1.530890696E1,-1.607724688E0,9.954126849E0,1.406137251E0,1.018069948E1
1.531889796E1,-1.528378703E0,9.965297370E0,1.479326703E0,1.018977432E1
1.532888996E1,-1.439992483E0,1.002633762E1,1.552288260E0,1.024746912E1
1.533888096E1,-1.325646527E0,1.006627878E1,1.638358251E0,1.028452843E1
1.534887296E1,-1.197368848E0,1.009137737E1,1.690151718E0,1.030175724E1
1.535886396E1,-1.054536938E0,1.014070331E1,1.703882149E0,1.033678510E1
1.536885496E1,-8.312439778E-1,1.011842191E1,1.501072644E0,1.026287716E1
1.537884696E1,-5.198829603E-1,1.006947721E1,1.264536399E0,1.016187492E1
1.538883796E1,-1.115514443E-1,1.007983497E1,9.322602562E-1,1.012346907E1
1.539882996E1,3.956761131E-1,1.009907699E1,6.317752790E-1,1.012655201E1
1.540882096E1,7.225243583E-1,1.014342227E1,4.512729744E-1,1.017913081E1
1.541881296E1,8.704767483E-1,1.025717400E1,3.443647857E-1,1.029980269E1
1.542880396E1,8.964310768E-1,1.043236711E1,2.646473193E-1,1.047415440E1
1.543879596E1,9.369297695E-1,1.068682039E1,2.260077123E-1,1.073019324E1
1.544878696E1,9.813943362E-1,1.089981107E1,2.063611042E-1,1.094584858E1
1.545877896E1,1.090667029E0,1.101413700E1,1.784230713E-1,1.106944458E1
1.546876996E1,1.243529984E0,1.118035112E1,1.184984664E-1,1.124991822E1
1.547876096E1,1.407176593E0,1.127640216E1,1.072262406E-2,1.136386847E1
1.548875296E1,1.613840291E0,1.130845192E1,-6.756574631E-2,1.142322767E1
1.549874396E1,1.856715941E0,1.133335404E1,-1.431608891E-1,1.148532990E1
1.550873596E1,2.133975997E0,1.142630138E1,-1.971388757E-1,1.162553571E1
1.551872696E1,2.369506521E0,1.138668767E1,-2.626124883E-1,1.163357995E1
1.552871896E1,2.578453118E0,1.127351715E1,-3.326574540E-1,1.156941098E1
1.553870996E1,2.823168449E0,1.114718805E1,-3.524023318E-1,1.150453254E1
1.554870196E1,3.064869540E0,1.099810043E1,-3.540939313E-1,1.142265384E1
1.555869296E1,3.261574844E0,1.081377748E1,-2.937646991E-1,1.129875885E1
1.556868396E1,3.478096948E0,1.054062246E1,-2.338687456E-1,1.110209777E1
1.557867596E1,3.735677907E0,1.022413723E1,-3.010029674E-1,1.088939275E1
1.558866696E1,3.965304790E0,9.944738560E0,-2.712722147E-1,1.070957776E1
1.559865896E1,4.230965139E0,9.700943581E0,-2.463782787E-1,1.058631544E1
1.560864996E1,4.531200367E0,9.506741762E0,-2.042491082E-1,1.053335812E1
1.561864196E1,4.827291966E0,9.347881683E0,-1.161116513E-1,1.052136501E1
1.562863296E1,5.106740634E0,9.101596375E0,1.364508072E-2,1.043638073E1
1.563862496E1,5.333687446E0,8.693649588E0,1.682478197E-1,1.020078783E1
1.564861596E1,5.524421867E0,8.123109275E0,3.022566469E-1,9.828300989E0
1.565860796E1,5.734548578E0,7.480621896E0,3.548675179E-1,9.432427169E0
1.566859896E1,5.943139225E0,6.944401816E0,3.759583517E-1,9.148057997E0
1.567858996E1,6.308327079E0,6.426227996E0,3.155134177E-1,9.010601840E0
1.568858196E1,7.015341405E0,5.329201462E0,-2.048747420E-1,8.812342306E0
1.569857296E1,8.019581982E0,3.072333511E0,-1.296493771E0,8.685264790E0
1.570856496E1,8.269559807E0,2.532107502E-1,-1.723897169E0,8.451127530E0
1.571855596E1,8.128158345E0,-1.197149577E0,-1.573797973E0,8.365223563E0
1.572854796E1,-4.515126371E-1,-1.758574900E1,-5.191733422E0,1.834166098E1
1.573853896E1,-1.243463969E1,-6.620022031E1,-1.634202986E1,6.931198578E1
1.574853096E1,-3.044002932E1,-7.053179089E1,-7.511942507E0,7.718651560E1
1.575852196E1,-3.986842599E1,-6.628413487E1,-2.690473491E0,7.739713544E1
1.576851396E1,-2.680738579E1,-3.464043750E1,-6.549212483E0,4.428868960E1
1.577850496E1,-1.678613992E1,-9.281895854E0,-5.663540576E0,2.000009440E1
1.578849596E1,-1.060855775E1,-1.714714701E0,2.560140224E0,1.104699335E1
1.579848796E1,-8.744761269E0,2.929048660E0,5.761643990E0,1.087413064E1
1.580847896E1,-8.184144266E0,4.992966682E0,8.783543512E0,1.300232942E1
1.581847096E1,-7.477158591E0,5.457177132E0,7.986564510E0,1.222595172E1
1.582846196E1,-7.053550621E0,5.187624584E0,4.507219766E0,9.847794433E0
1.583845396E1,-8.156001032E0,4.455221647E0,9.749296546E-2,9.294022683E0
1.584844496E1,-1.006297160E1,4.610036622E0,-4.517316738E0,1.195499835E1
1.585843696E1,-1.049746416E1,5.283277431E0,-4.705641521E0,1.265910093E1
1.586842721E1,-9.104218851E0,5.880213829E0,-9.369484806E-1,1.087849199E1
1.587841821E1,-7.035168729E0,6.964429114E0,1.609172459E0,1.002927255E1
1.588841021E1,-4.857407173E0,7.821650224E0,2.263269922E0,9.481297771E0
1.589840121E1,-3.492155116E0,8.098461506E0,1.932200718E0,9.028489671E0
1.590839321E1,-2.380479552E0,8.186529345E0,1.198239571E0,8.609397405E0
1.591838421E1,-1.368821928E0,8.294881175E0,3.548100691E-1,8.414547959E0
1.592837621E1,-5.341310169E-1,8.398485065E0,-2.377206720E-1,8.418809800E0
1.593836721E1,1.870776448E-1,8.561724123E0,-5.139666013E-1,8.579177098E0
1.594835921E1,5.999801669E-1,8.692287186E0,-4.192851233E-1,8.723051802E0
1.595835021E1,7.504319492E-1,8.939989275E0,1.812344491E-1,8.973260403E0
1.596834121E1,6.668939486E-1,9.170562530E0,8.100907981E-1,9.230396078E0
1.597833321E1,7.343703056E-1,9.434467252E0,1.139870326E0,9.531409992E0
1.598832421E1,8.262595189E-1,9.653357770E0,1.213230590E0,9.764320227E0
1.599831621E1,7.883241724E-1,9.773848420E0,1.113393914E0,9.868597364E0
1.600830721E1,6.294486719E-1,9.853007441E0,9.744140033E-1,9.921060624E0
1.601829921E1,4.085966324E-1,9.887908301E0,8.735856398E-1,9.934829322E0
1.602829021E1,2.290868926E-1,9.932913151E0,7.363866448E-1,9.962806319E0
1.603828221E1,1.372654705E-1,9.949673610E0,5.850759796E-1,9.967806211E0
1.604827321E1,7.905614633E-2,9.996067758E0,4.826549442E-1,1.000802559E1
1.605826421E1,3.484246172E-2,1.000514731E1,3.336913879E-1,1.001077104E1
1.606825621E1,1.386294432E-2,1.001831875E1,3.305022800E-1,1.002377846E1
1.607824721E1,7.056145761E-3,1.002055590E1,3.671923156E-1,1.002728380E1
1.608823921E1,1.784003768E-3,1.000254413E1,4.547696093E-1,1.001287710E1
1.609823021E1,-5.086434424E-2,9.955769917E0,5.270738661E-1,9.969841959E0
1.610822221E1,-9.306836824E-2,9.703606403E0,5.919628302E-1,9.722091284E0
1.611821321E1,-1.425375760E-1,9.501795017E0,5.883515167E-1,9.521059973E0
1.612820521E1,-3.745281959E-1,7.640835021E0,5.365849471E-1,7.668803987E0
1.613819621E1,3.846131811E-1,-4.289206331E0,-8.762729763E0,9.763741657E0
1.614818821E1,1.219697318E0,-3.383476135E1,-3.631305458E1,4.964792715E1
1.615817921E1,-3.356424284E0,-2.944333633E1,-1.001781238E1,3.128149937E1
1.616817021E1,-1.109136702E0,-2.978619834E1,7.785713822E0,3.080690078E1
1.617816221E1,4.714830421E0,-3.526701343E1,2.736124750E0,3.568582689E1
1.618815321E1,8.979544519E0,-2.896581060E1,1.413938606E0,3.035868287E1
1.619814521E1,9.318728635E0,-2.134363054E1,-1.940079841E-1,2.329006026E1
1.620813621E1,8.902013948E0,-2.001362052E1,-1.139331432E0,2.193373965E1
1.621812821E1,8.958579912E0,-2.116743054E1,-1.687638438E0,2.304700400E1
1.622811921E1,9.147840250E0,-2.217389072E1,-2.146176066E0,2.408257633E1
1.623811121E1,7.696136817E0,-2.295737552E1,-2.416423703E0,2.433332522E1
1.624810221E1,5.347153584E0,-2.182420383E1,-2.141181229E0,2.257149932E1
1.625809321E1,3.317703145E0,-1.994203423E1,-1.892521659E0,2.030451974E1
1.626808521E1,1.737743814E0,-1.768858281E1,-1.650434944E0,1.785020030E1
1.627807621E1,9.726395926E-1,-1.519103352E1,-1.443006284E0,1.529038241E1
1.628806821E1,8.393356472E-1,-1.274308850E1,-1.322995691E0,1.283904617E1
1.629805921E1,9.867182261E-1,-1.002351693E1,-1.207127120E0,1.014404556E1
1.630805121E1,1.111753478E0,-7.412145154E0,-1.056947306E0,7.569215890E0
1.631804221E1,9.435084718E-1,-4.967647653E0,-7.551515293E-1,5.112532178E0
1.632803421E1,4.769073871E-1,-2.599760957E0,-4.787255788E-1,2.686145169E0
1.633802521E1,-2.800621878E-1,-1.528333533E-1,-1.163315979E-1,3.395966778E-1
1.634801621E1,-9.198759265E-1,1.948102806E0,2.525891181E-1,2.169119066E0
1.635800821E1,-1.409560357E0,3.810001865E0,5.885385545E-1,4.104796248E0
1.636799921E1,-1.735872412E0,5.545926172E0,8.361342236E-1,5.871087682E0
1.637799121E1,-1.883956657E0,7.063715420E0,9.883584432E-1,7.377141766E0
1.638798221E1,-1.907894281E0,8.331754886E0,1.075936724E0,8.614861572E0
1.639797421E1,-1.845251598E0,9.338980467E0,1.253810266E0,9.601747226E0
1.640796521E1,-1.755509555E0,9.808813600E0,1.324131221E0,1.005226151E1
1.641795721E1,-1.838493971E0,9.983728963E0,1.287112498E0,1.023286679E1
1.642794821E1,-1.948912499E0,1.010518616E1,1.350868199E0,1.037968651E1
1.643793921E1,-2.072972581E0,1.022987920E1,1.459076772E0,1.053928597E1
1.644793121E1,-2.201078644E0,1.036441194E1,1.671145928E0,1.072653302E1
1.645792221E1,-2.170861549E0,1.045043384E1,1.685997856E0,1.080586859E1
1.646791421E1,-1.915845179E0,1.048535809E1,1.541754062E0,1.076987477E1
1.647790521E1,-1.357545719E0,1.037870955E1,1.089928014E0,1.052371063E1
1.648789721E1,-7.991608903E-1,1.025574845E1,7.366579556E-1,1.031318086E1
1.649788821E1,-4.599899304E-1,1.021794503E1,7.274205244E-1,1.025412756E1
1.650788021E1,-2.400521761E-1,1.021924779E1,8.197983456E-1,1.025488761E1
1.651787121E1,-4.090798865E-2,1.019332475E1,8.591103458E-1,1.022954610E1
1.652786221E1,3.231718084E-1,1.011794712E1,8.886411238E-1,1.016203607E1
1.653785421E1,6.860041112E-1,1.004324309E1,9.034322405E-1,1.010710262E1
1.654784521E1,8.440132005E-1,1.007113782E1,8.569878066E-1,1.014271184E1
1.655783721E1,9.004280142E-1,1.010544577E1,7.243904972E-1,1.017130997E1
1.656782821E1,1.026279391E0,1.022730643E1,4.832595098E-1,1.029002361E1
1.657782021E1,1.412570650E0,1.060207436E1,2.945476413E-1,1.069981751E1
1.658781121E1,1.645323308E0,1.100313839E1,1.528123033E-1,1.112652213E1
1.659780221E1,1.727515133E0,1.100414177E1,8.457295775E-2,1.113923683E1
