"Time (s)","Linear Acceleration x (m/s^2)","Linear Acceleration y (m/s^2)","Linear Acceleration z (m/s^2)","Absolute acceleration (m/s^2)"
4.578336000E-3,0.000000000E0,0.000000000E0,0.000000000E0,0.000000000E0
9.471773000E-3,8.835792542E-4,-8.703529835E-3,-2.846717834E-2,2.978107431E-2
1.417338800E-2,1.523256302E-3,-1.928522810E-2,-4.262638092E-2,4.681077529E-2
1.897099200E-2,6.946682930E-3,-2.837795392E-2,-4.253292084E-2,5.160052352E-2
2.376854400E-2,1.377224922E-2,-4.252630472E-2,-2.033519745E-2,4.910887595E-2
2.856604400E-2,2.274668217E-2,-6.222059578E-2,2.545642853E-2,7.097072525E-2
3.336359600E-2,4.279732704E-2,-9.009648860E-2,7.402801514E-2,1.242140712E-1
3.816114800E-2,6.566870213E-2,-1.265394986E-1,1.081762314E-1,1.789601078E-1
4.295870000E-2,9.015572071E-2,-1.675467789E-1,1.388368607E-1,2.355326962E-1
4.775620000E-2,1.038782597E-1,-2.051053047E-1,1.624698639E-1,2.815232415E-1
5.255375200E-2,1.121697426E-1,-2.337391973E-1,1.928548813E-1,3.231239216E-1
5.735130400E-2,1.128567457E-1,-2.564586401E-1,2.273387909E-1,3.608193523E-1
6.214880400E-2,1.170166731E-1,-2.693359852E-1,2.546749115E-1,3.887082264E-1
6.694635700E-2,1.106151342E-1,-2.682357728E-1,2.664852142E-1,3.939549558E-1
7.174390900E-2,9.167850018E-2,-2.492156923E-1,2.658834457E-1,3.757757515E-1
7.654140900E-2,6.038880348E-2,-2.148596346E-1,2.489099503E-1,3.343166665E-1
8.133896100E-2,8.099675179E-3,-1.609514058E-1,2.207412720E-1,2.733087428E-1
8.613651300E-2,-6.912410259E-2,-9.694468975E-2,1.839265823E-1,2.191013513E-1
9.093401300E-2,-1.683301926E-1,-2.716454864E-2,1.567344666E-1,2.316002147E-1
9.573156500E-2,-2.799044847E-1,4.836985469E-2,1.407413483E-1,3.170083446E-1
1.005291170E-1,-3.946530819E-1,1.274839342E-1,1.512527466E-1,4.414528309E-1
1.053266690E-1,-4.991126060E-1,1.917414516E-1,1.893825531E-1,5.672247607E-1
1.101241690E-1,-5.802011490E-1,2.370991260E-1,2.517938614E-1,6.754624471E-1
1.149217210E-1,-6.271693707E-1,2.526103258E-1,3.286085129E-1,7.517559118E-1
1.197192730E-1,-6.314220428E-1,2.300273180E-1,4.081850052E-1,7.862705398E-1
1.245167730E-1,-5.821375847E-1,1.661952436E-1,4.701538086E-1,7.665178603E-1
1.293143250E-1,-4.897594452E-1,6.929332018E-2,5.177688599E-1,7.160659681E-1
1.341118770E-1,-3.699531555E-1,-5.211275816E-2,5.607910156E-1,6.738454126E-1
1.389093770E-1,-2.403812408E-1,-1.834637821E-1,6.085100174E-1,6.795046295E-1
1.437069290E-1,-1.162176132E-1,-3.056401908E-1,6.513080597E-1,7.287829914E-1
1.485044820E-1,-2.123641968E-2,-4.002692103E-1,6.729402542E-1,7.832719911E-1
1.533019820E-1,3.302693367E-2,-4.563040733E-1,6.807708740E-1,8.202153184E-1
1.580995340E-1,4.194664955E-2,-4.652352333E-1,6.980743408E-1,8.399470989E-1
1.628970860E-1,3.406953812E-2,-4.627763629E-1,7.104721069E-1,8.485831192E-1
1.676945860E-1,1.069688797E-2,-4.764690399E-1,6.602182388E-1,8.142636504E-1
1.724921380E-1,-2.564811707E-2,-4.960688353E-1,5.907983780E-1,7.718709987E-1
1.772896900E-1,-7.352781296E-2,-4.930861592E-1,5.605239868E-1,7.501516110E-1
1.820871900E-1,-1.218721867E-1,-4.676448107E-1,5.727796555E-1,7.494137926E-1
1.868847420E-1,-1.720404625E-1,-4.433198571E-1,5.964727402E-1,7.628303522E-1
1.916822940E-1,-1.882913113E-1,-4.293549061E-1,5.528955460E-1,7.249087791E-1
1.964798460E-1,-1.314446926E-1,-4.483328462E-1,5.628662109E-1,7.315042171E-1
2.012773460E-1,5.280637741E-2,-5.621578693E-1,6.735897064E-1,8.789386077E-1
2.060748980E-1,1.254730225E-1,-7.018200755E-1,8.016357422E-1,1.072806954E0
2.108724500E-1,1.790282726E-1,-8.084648848E-1,7.339630127E-1,1.106511770E0
2.156699500E-1,2.785274982E-1,-8.401474953E-1,5.095949173E-1,1.021328723E0
2.204675020E-1,3.927977085E-1,-8.077417612E-1,2.849168777E-1,9.422921096E-1
2.252650540E-1,5.029962063E-1,-7.228488922E-1,8.888530731E-2,8.851080738E-1
2.300625540E-1,5.760648251E-1,-5.462758541E-1,-3.119211197E-1,8.529729048E-1
2.348601070E-1,6.253693104E-1,-4.060602188E-1,-2.717151642E-1,7.935999030E-1
2.396576590E-1,6.729419231E-1,-3.134431839E-1,1.379613876E-1,7.550700669E-1
2.444551590E-1,7.392966747E-1,-2.536197901E-1,6.540775299E-1,1.019166319E0
2.492527110E-1,8.248317242E-1,-2.397300005E-1,1.051190376E0,1.357504716E0
2.540502630E-1,9.340541363E-1,-2.635035515E-1,1.229217529E0,1.566163141E0
2.588478150E-1,1.049055338E0,-2.909189463E-1,1.205365181E0,1.624209394E0
2.636453150E-1,1.139723063E0,-3.052389622E-1,1.057233810E0,1.584260968E0
2.684428670E-1,1.210055351E0,-2.881686687E-1,8.743753433E-1,1.520462882E0
2.732404190E-1,1.259777069E0,-2.453069687E-1,7.017145157E-1,1.462742983E0
2.780379190E-1,1.301204443E0,-1.213409901E-1,6.038398743E-1,1.439610792E0
2.828354710E-1,1.309246302E0,3.495621681E-2,5.244874954E-1,1.410827753E0
2.876330230E-1,1.240941286E0,2.418341637E-1,4.744787216E-1,1.350388498E0
2.924305750E-1,1.094419003E0,4.231584072E-1,4.528760910E-1,1.257741128E0
2.972280750E-1,8.868060112E-1,5.442457199E-1,4.471549988E-1,1.132508675E0
3.020256270E-1,6.344182491E-1,6.229681969E-1,4.613599777E-1,1.001712992E0
3.068231790E-1,4.089696407E-1,7.093658447E-1,4.068517685E-1,9.143218417E-1
3.116206790E-1,2.251126766E-1,8.075144291E-1,3.556241989E-1,9.106172858E-1
3.164182320E-1,3.772258759E-2,8.210864067E-1,5.261888504E-1,9.759511193E-1
3.212157840E-1,-1.138710976E-1,7.807478905E-1,7.672233582E-1,1.100529680E0
3.260132840E-1,-3.822746277E-1,7.758483887E-1,1.000284195E0,1.322362690E0
3.308108360E-1,-4.485168457E-1,8.422105312E-1,9.728517532E-1,1.362690894E0
3.356083880E-1,-4.590096474E-1,9.476392269E-1,8.628654480E-1,1.361340054E0
3.404058880E-1,-5.245366096E-1,1.110475779E0,7.141752243E-1,1.420683413E0
3.452034400E-1,-4.395608902E-1,1.317286491E0,4.425182343E-1,1.457490948E0
3.500009920E-1,-3.212442398E-1,1.558804274E0,1.243476868E-1,1.596411906E0
3.547985440E-1,-1.396512985E-1,1.767674685E0,-1.588850021E-1,1.780286696E0
3.595960440E-1,1.209998131E-1,1.911097288E0,-3.626880646E-1,1.948968043E0
3.643935960E-1,4.566059113E-1,1.971163273E0,-4.951596260E-1,2.083064248E0
3.691911480E-1,8.595879078E-1,1.926004887E0,-5.692105293E-1,2.184579324E0
3.739886480E-1,1.280871630E0,1.751604795E0,-5.439977646E-1,2.237115343E0
3.787862000E-1,1.636835814E0,1.447433710E0,-3.617534637E-1,2.214759895E0
3.835837520E-1,1.881112576E0,1.027084112E0,9.716987610E-3,2.143264033E0
3.883812520E-1,1.952544451E0,5.344269276E-1,5.102119446E-1,2.087668125E0
3.931788040E-1,1.849307060E0,4.851937294E-2,9.243597984E-1,2.068026056E0
3.979763570E-1,1.605909824E0,-3.757126331E-1,1.148001671E0,2.009481073E0
4.027739090E-1,1.319983721E0,-6.817238331E-1,1.143492222E0,1.874747681E0
4.075714090E-1,1.079385757E0,-7.972059250E-1,9.050793648E-1,1.618573309E0
4.123689610E-1,9.124197960E-1,-7.477774620E-1,5.442862511E-1,1.299203040E0
4.171665130E-1,8.136248589E-1,-5.755620003E-1,2.002382278E-1,1.016539411E0
4.219640130E-1,7.690906525E-1,-3.696608543E-1,-4.028224945E-2,8.542670768E-1
4.267615650E-1,7.527918816E-1,-1.736295223E-1,-1.607174873E-1,7.890962797E-1
4.315591170E-1,7.693519592E-1,2.857685089E-3,-1.757597923E-1,7.891781219E-1
4.363566170E-1,7.789382935E-1,1.455678940E-1,-1.351437569E-1,8.038648592E-1
4.411541690E-1,7.636728287E-1,2.475738525E-1,-7.616138458E-2,8.064053312E-1
4.459517210E-1,7.263236046E-1,2.855501175E-1,3.920793533E-2,7.814231315E-1
4.507492730E-1,6.670966148E-1,2.671473026E-1,2.126631737E-1,7.494072326E-1
4.555467730E-1,5.935492516E-1,1.932983398E-1,4.106202126E-1,7.471773024E-1
4.603443250E-1,5.120201111E-1,5.949091911E-2,5.886321068E-1,7.824266871E-1
4.651418770E-1,4.857177734E-1,-8.449649811E-2,7.050151825E-1,8.602951942E-1
4.699393770E-1,6.199955940E-1,-1.438434124E-1,8.491444588E-1,1.061193562E0
4.747369290E-1,7.990031242E-1,-1.595125198E-1,1.026659012E0,1.310678818E0
4.795344820E-1,8.648519516E-1,-1.287755966E-1,1.211028576E0,1.493700862E0
4.843319820E-1,7.869787216E-1,2.886295319E-3,1.366992474E0,1.577343419E0
4.891295340E-1,6.369175911E-1,2.751469612E-1,1.519289970E0,1.670213125E0
4.939270860E-1,4.051618576E-1,6.487686634E-1,1.622054577E0,1.793353830E0
4.987246380E-1,1.153907776E-1,1.025966167E0,1.651988029E0,1.948072395E0
5.035221380E-1,-2.716650963E-1,1.253907323E0,1.564654827E0,2.023420428E0
5.083196900E-1,-8.671150208E-1,1.256295323E0,1.387014389E0,2.062516743E0
5.131172420E-1,-1.733363152E0,1.046993256E0,1.174962044E0,2.341213040E0
5.179147420E-1,-2.756478786E0,6.107262373E-1,9.732460976E-1,2.986363977E0
5.227122940E-1,-3.694396973E0,1.954281330E-2,1.070278645E0,3.846355066E0
5.275098460E-1,-4.318389893E0,-5.869168043E-1,1.742208958E0,4.693426749E0
5.323073460E-1,-4.578418255E0,-1.013356209E0,2.456800938E0,5.293833712E0
5.371048980E-1,-4.501361847E0,-1.114095092E0,2.570491791E0,5.301970803E0
5.419024500E-1,-4.133984566E0,-8.799637556E-1,2.332456589E0,4.827475359E0
5.467000020E-1,-3.629149437E0,-4.769853354E-1,1.966363907E0,4.155096589E0
5.514975020E-1,-3.212977886E0,-1.091058254E-1,1.312562943E0,3.472456257E0
5.562950540E-1,-2.752104759E0,5.965930223E-2,6.054944992E-1,2.818556976E0
5.610926070E-1,-2.397890091E0,1.499015689E-1,-4.805936813E-1,2.450166863E0
5.658901070E-1,-2.016487598E0,1.748312116E-1,-1.509124756E0,2.524726860E0
5.706876590E-1,-1.554380894E0,1.383494139E-1,-2.207712173E0,2.703559425E0
5.754852110E-1,-1.042120934E0,1.454655528E-1,-2.639840126E0,2.841818460E0
5.802827630E-1,-5.164084435E-1,1.911407113E-1,-2.962545872E0,3.013285664E0
5.850802630E-1,-8.966684341E-3,2.386247516E-1,-3.293229103E0,3.301875240E0
5.898778150E-1,4.479608536E-1,2.797707915E-1,-3.654560089E0,3.692526245E0
5.946753670E-1,8.589305878E-1,3.539310694E-1,-4.138251305E0,4.241244253E0
5.994728670E-1,1.259633064E0,4.489652812E-1,-5.186343193E0,5.355968726E0
6.042704190E-1,1.548304677E0,5.522007942E-1,-5.945322990E0,6.168390272E0
6.090679710E-1,1.486165643E0,1.000374556E0,-6.569731712E0,6.809611761E0
6.138654710E-1,1.271151543E0,1.673376799E0,-6.634655476E0,6.959502097E0
6.186630230E-1,1.079931498E0,2.521350145E0,-5.890415192E0,6.497726504E0
6.234605750E-1,1.145116568E0,3.227828503E0,-4.600730419E0,5.735580981E0
6.282581270E-1,1.450879812E0,3.658693790E0,-3.124983788E0,5.025596099E0
6.330556270E-1,1.820122600E0,3.778151989E0,-1.797667980E0,4.562772063E0
6.378531790E-1,2.246941090E0,3.558916330E0,-7.828598022E-1,4.281062856E0
6.426507320E-1,2.701587439E0,3.049787045E0,-3.571701050E-2,4.074438785E0
6.474482320E-1,3.162217379E0,2.375252247E0,4.564132690E-1,3.981175085E0
6.522457840E-1,3.593008995E0,1.677563906E0,7.703723907E-1,4.039481144E0
6.570433360E-1,3.971288204E0,1.100169778E0,9.178543091E-1,4.221843208E0
6.618408880E-1,4.359802723E0,6.656664610E-1,1.039157867E0,4.531097074E0
6.666383880E-1,4.664724350E0,4.280955791E-1,9.776020050E-1,4.785250753E0
6.714359400E-1,4.866180897E0,4.517384768E-1,6.345233917E-1,4.928123792E0
6.762334920E-1,4.875296593E0,5.595706701E-1,1.545858383E-1,4.909738586E0
6.810309920E-1,4.647793293E0,4.739418030E-1,-5.136861801E-1,4.700050725E0
6.858285440E-1,4.419093132E0,7.569265366E-2,-1.012598038E0,4.534254985E0
6.906260960E-1,4.337452888E0,-5.614042282E-1,-8.738422394E-1,4.460075395E0
6.954235960E-1,4.228609562E0,-1.273424149E0,-1.519756317E-1,4.418805776E0
7.002211480E-1,3.950211048E0,-1.987282991E0,5.496978760E-1,4.455965526E0
7.050187000E-1,3.471185684E0,-2.558458328E0,7.660627365E-1,4.379690764E0
7.098162520E-1,2.811221838E0,-2.902034998E0,5.753116608E-1,4.081146758E0
7.146137520E-1,1.970712543E0,-3.104764700E0,2.047710419E-1,3.683096923E0
7.194113040E-1,9.795465469E-1,-3.255734205E0,-2.242031097E-1,3.407283916E0
7.242088570E-1,-1.155885458E-1,-3.396728992E0,-7.598047256E-1,3.482589810E0
7.290063570E-1,-1.280703068E0,-3.544631481E0,-1.477194786E0,4.048051027E0
7.338039090E-1,-2.450669289E0,-3.689233303E0,-2.333996773E0,5.006372266E0
7.386014610E-1,-3.564825535E0,-3.831878662E0,-3.230351925E0,6.150321027E0
7.433989610E-1,-4.661885738E0,-3.947587013E0,-4.085047245E0,7.348757232E0
7.481965130E-1,-5.658944607E0,-4.061786652E0,-4.909321308E0,8.521924699E0
7.529940650E-1,-6.568752289E0,-4.180900574E0,-5.708743095E0,9.654956446E0
7.577916170E-1,-7.366031647E0,-4.316256523E0,-6.425116539E0,1.068506505E1
7.625891170E-1,-8.076906204E0,-4.452874184E0,-7.041329384E0,1.160365554E1
7.673866690E-1,-8.704154015E0,-4.595363140E0,-7.552600861E0,1.240650794E1
7.721842210E-1,-9.251281738E0,-4.722437382E0,-7.939871788E0,1.307398916E1
7.769817730E-1,-9.724170685E0,-4.802027702E0,-8.210519791E0,1.360263213E1
7.817792730E-1,-1.009548569E1,-4.817541122E0,-8.362293243E0,1.396622648E1
7.865768250E-1,-1.031750488E1,-4.806158543E0,-8.375480652E0,1.413148057E1
7.913743770E-1,-1.036846542E1,-4.815968990E0,-8.311350822E0,1.413425573E1
7.961718770E-1,-1.026219654E1,-4.850944042E0,-8.033818245E0,1.390635004E1
8.009694290E-1,-1.006379223E1,-4.937251568E0,-7.680258274E0,1.358833081E1
8.057669820E-1,-9.737285614E0,-4.997961998E0,-7.377283573E0,1.319919195E1
8.105645340E-1,-9.224546432E0,-4.840304375E0,-6.493641376E0,1.227551146E1
8.153620340E-1,-8.755451202E0,-4.592819691E0,-5.371571541E0,1.125191980E1
8.201595860E-1,-8.390464783E0,-4.430742264E0,-4.540582180E0,1.051894780E1
8.249571380E-1,-8.010934830E0,-4.391397476E0,-3.877016783E0,9.924248474E0
8.297546900E-1,-7.528567314E0,-4.408790588E0,-3.179201126E0,9.285692223E0
8.345521900E-1,-6.944363594E0,-4.414001465E0,-2.321912289E0,8.549787795E0
8.393497420E-1,-6.319332600E0,-4.484333992E0,-1.266907930E0,7.851641329E0
8.441472940E-1,-5.732677937E0,-4.627497673E0,-1.753225327E-1,7.369400860E0
8.489447940E-1,-5.185156345E0,-4.793991089E0,8.248500824E-1,7.109752073E0
8.537423460E-1,-4.582260132E0,-5.016522884E0,1.770687342E0,7.021249421E0
8.585398980E-1,-3.872411489E0,-5.258099556E0,2.667254925E0,7.053894706E0
8.633373980E-1,-2.953647852E0,-5.504935265E0,3.590914488E0,7.205762608E0
8.681349500E-1,-2.067643166E0,-5.684240818E0,4.363360882E0,7.458194160E0
8.729325020E-1,-1.593931198E0,-5.701362610E0,5.014081478E0,7.758038756E0
8.777300540E-1,-1.022731781E0,-5.682157040E0,5.638400078E0,8.069971769E0
8.825275540E-1,-4.172816277E-1,-5.674534798E0,6.229420662E0,8.436832991E0
8.873251070E-1,1.991047859E-1,-5.649797916E0,6.782403946E0,8.829544864E0
8.921226590E-1,7.733416557E-1,-5.571368694E0,7.264204979E0,9.187321722E0
8.969202110E-1,1.255387783E0,-5.421994686E0,7.655744553E0,9.464906208E0
9.017177110E-1,1.763872623E0,-5.258385181E0,7.994346619E0,9.729924933E0
9.065152630E-1,2.257667065E0,-5.057864666E0,8.313638687E0,9.989776963E0
9.113128150E-1,2.733843803E0,-4.852722645E0,8.609600067E0,1.025417146E1
9.161103150E-1,3.123125553E0,-4.646755695E0,8.846607208E0,1.046941788E1
9.209078670E-1,3.456560135E0,-4.434383392E0,9.020097733E0,1.062890997E1
9.257054190E-1,3.717858315E0,-4.212136269E0,9.161521912E0,1.074700173E1
9.305029710E-1,3.888844967E0,-3.998235226E0,9.248672485E0,1.080032142E1
9.353004710E-1,4.048779964E0,-3.821189880E0,9.231550217E0,1.078033537E1
9.400980230E-1,4.187920570E0,-3.650558472E0,9.109267235E0,1.066977064E1
9.448955750E-1,4.331915379E0,-3.465934753E0,8.925556183E0,1.050922203E1
9.496930750E-1,4.482226372E0,-3.268247128E0,8.710358620E0,1.032676812E1
9.544906270E-1,4.649756908E0,-3.082075119E0,8.467588425E0,1.013999409E1
9.592881790E-1,4.883637905E0,-2.905540466E0,8.191571236E0,9.969650139E0
9.640857320E-1,5.234959602E0,-2.758069038E0,7.898633003E0,9.869151442E0
9.688832320E-1,5.687079430E0,-2.656695366E0,7.620010376E0,9.872459716E0
9.736807840E-1,6.189716339E0,-2.608930588E0,7.367689133E0,9.970052674E0
9.784783360E-1,6.710309029E0,-2.604812622E0,7.137941360E0,1.013723349E1
9.832758360E-1,7.182264805E0,-2.590739250E0,6.937136173E0,1.031604168E1
9.880733880E-1,7.576153278E0,-2.541757584E0,6.742472172E0,1.045559951E1
9.928709400E-1,7.894474983E0,-2.459021568E0,6.557441235E0,1.055317762E1
9.976684920E-1,8.114243507E0,-2.345719337E0,6.386091709E0,1.058893357E1
1.002465992E0,8.208357811E0,-2.224613190E0,6.168923855E0,1.050626781E1
1.007263544E0,8.178237915E0,-2.085688591E0,5.857506275E0,1.027346349E1
1.012061096E0,8.066775322E0,-1.924279213E0,5.532535553E0,9.969185736E0
1.016858596E0,7.917598724E0,-1.757330894E0,5.282553673E0,9.678943885E0
1.021656148E0,7.774976730E0,-1.628483772E0,5.090643406E0,9.434875348E0
1.026453700E0,7.646867275E0,-1.543508530E0,4.922311306E0,9.224215213E0
1.031251252E0,7.529136658E0,-1.462868690E0,4.774181366E0,9.034417044E0
1.036048752E0,7.396587372E0,-1.370797157E0,4.619243622E0,8.827570517E0
1.040846304E0,7.252600670E0,-1.263216019E0,4.445518494E0,8.599916620E0
1.045643857E0,7.160140038E0,-1.141380310E0,4.201226234E0,8.379776622E0
1.050441357E0,1.105924797E1,-2.011060715E0,2.413516521E0,1.149679924E1
1.055238909E0,1.257447243E1,-1.032605171E0,-9.981508255E-1,1.265622121E1
1.060036461E0,1.110745907E1,1.910144806E0,-2.954794168E0,1.165139943E1
1.064834013E0,9.662038803E0,4.525632381E0,-4.041734695E0,1.140929278E1
1.069631513E0,9.164499283E0,5.069002151E0,-5.220838547E0,1.170213592E1
1.074429065E0,8.960132599E0,4.309811115E0,-5.570833206E0,1.139704482E1
1.079226617E0,8.729928017E0,3.656677723E0,-4.956749916E0,1.068420820E1
1.084024169E0,8.255344391E0,3.238107681E0,-3.967092037E0,9.714621537E0
1.088821669E0,7.938693047E0,2.753634930E0,-3.210620880E0,8.995189773E0
1.093619221E0,7.793196678E0,2.333286285E0,-2.733011961E0,8.581811798E0
1.098416773E0,7.717300415E0,2.071292400E0,-2.445485830E0,8.356277811E0
1.103214273E0,7.627695084E0,1.933971882E0,-2.329185486E0,8.206526948E0
1.108011825E0,7.393150806E0,1.732308865E0,-2.312585115E0,7.937734108E0
1.112809377E0,7.027819633E0,1.361985207E0,-2.077669621E0,7.453989774E0
1.117606929E0,6.610985279E0,8.701677322E-1,-1.604387522E0,6.858307194E0
1.122404429E0,6.109602928E0,3.655815125E-1,-1.194092155E0,6.235924459E0
1.127201982E0,5.477422237E0,-9.717941284E-4,-1.092122316E0,5.585238264E0
1.131999534E0,4.858066082E0,-2.498216629E-1,-1.292312860E0,5.033218597E0
1.136797034E0,4.296691418E0,-3.879766464E-1,-1.603219509E0,4.602433684E0
1.141594586E0,3.843034983E0,-3.951416016E-1,-1.794517040E0,4.259735458E0
1.146392138E0,3.429363012E0,-4.952821732E-1,-1.751824975E0,3.882618426E0
1.151189690E0,3.066035032E0,-7.015933990E-1,-1.446898341E0,3.462126359E0
1.155987190E0,2.716127157E0,-9.010028839E-1,-8.929092884E-1,2.997739136E0
1.160784742E0,2.424813032E0,-1.140244484E0,-2.024977207E-1,2.687169710E0
1.165582294E0,2.057374239E0,-1.420542717E0,8.888967037E-1,2.653463344E0
1.170379846E0,1.609667778E0,-1.593506813E0,2.746320963E0,3.559855777E0
1.175177346E0,1.399491906E0,-1.528630257E0,3.794198513E0,4.323335566E0
1.179974898E0,1.721275091E0,-1.771162987E0,3.307521343E0,4.127893373E0
1.184772450E0,2.115453720E0,-1.667231560E0,2.517445564E0,3.686778768E0
1.189569950E0,2.493660450E0,-1.120267868E0,1.757741690E0,3.250076673E0
1.194367502E0,2.838120937E0,-4.659404755E-1,7.463223934E-1,2.971368051E0
1.199165054E0,3.205297709E0,8.104610443E-2,-3.112268448E-1,3.221391628E0
1.203962607E0,3.488068581E0,6.084289551E-1,-1.093034029E0,3.705608129E0
1.208760107E0,3.681119919E0,1.085879326E0,-1.582948208E0,4.151566306E0
1.213557659E0,3.867333889E0,1.368273735E0,-1.852018118E0,4.500934962E0
1.218355211E0,3.970223427E0,1.465748787E0,-1.849814773E0,4.618756138E0
1.223152763E0,4.055522442E0,1.460702896E0,-1.764718294E0,4.657804835E0
1.227950263E0,4.120733261E0,1.438602924E0,-1.679813385E0,4.676728984E0
1.232747815E0,4.178456783E0,1.408793449E0,-1.543704987E0,4.671961596E0
1.237545367E0,4.321536064E0,1.416656494E0,-1.442957401E0,4.771238376E0
1.242342867E0,4.533471584E0,1.548062325E0,-1.332303524E0,4.972312766E0
1.247140419E0,5.029825211E0,1.657170296E0,-1.259175062E0,5.443425105E0
1.251937971E0,4.864681244E0,1.617831230E0,-1.144932508E0,5.252939362E0
1.256735523E0,4.651134491E0,1.602358818E0,-1.059298277E0,5.032168387E0
1.261533023E0,4.364173889E0,1.723347187E0,-1.050390720E0,4.808249154E0
1.266330575E0,3.998863697E0,1.830077648E0,-1.026851892E0,4.516029215E0
1.271128127E0,3.510402679E0,1.885703564E0,-9.193353653E-1,4.089496597E0
1.275925679E0,2.854073048E0,1.797560692E0,-8.756520748E-1,3.484784636E0
1.280723179E0,2.182501793E0,1.685112476E0,-8.177654743E-1,2.876049114E0
1.285520732E0,1.499397993E0,1.593521118E0,-8.102509975E-1,2.333240359E0
1.290318284E0,8.176976442E-1,1.458109856E0,-8.007307053E-1,1.853613620E0
1.295115836E0,2.379554510E-1,1.316805840E0,-7.780704498E-1,1.547899881E0
1.299913336E0,-2.406969070E-1,1.114750385E0,-7.926268578E-1,1.388834316E0
1.304710888E0,-6.447391510E-1,8.546209335E-1,-8.320474625E-1,1.355864482E0
1.309508440E0,-1.002265811E0,6.081285477E-1,-8.673200607E-1,1.458287068E0
1.314305940E0,-1.294835448E0,4.156455994E-1,-8.534939289E-1,1.605556598E0
1.319103492E0,-1.508154273E0,2.530593872E-1,-8.694052696E-1,1.759100306E0
1.323901044E0,-1.611783624E0,9.642505646E-2,-8.863008022E-1,1.841921104E0
1.328698544E0,-1.543668270E0,-2.038860321E-2,-9.345490932E-1,1.804635540E0
1.333496096E0,-1.331979394E0,-1.753864288E-1,-8.895413876E-1,1.611276943E0
1.338293648E0,-9.412267208E-1,-3.608007431E-1,-8.205690384E-1,1.299776313E0
1.343091200E0,-2.854111195E-1,-5.238304138E-1,-7.827584743E-1,9.841588483E-1
1.347888700E0,4.976948500E-1,-4.952869415E-1,-6.454007626E-1,9.537040749E-1
1.352686252E0,1.376602888E0,-5.378103256E-1,-2.064766884E-1,1.492282842E0
1.357483804E0,2.067866325E0,-3.766775131E-1,-3.628935814E-1,2.132990586E0
1.362281357E0,2.491464376E0,-7.587432861E-3,-6.448209286E-1,2.573566851E0
1.367078857E0,2.698215008E0,1.870841980E-1,-4.929711819E-1,2.749251773E0
1.371876409E0,2.891073704E0,2.735719681E-1,-3.749129772E-1,2.928089569E0
1.376673961E0,3.093115807E0,3.190097809E-1,-1.946349144E-1,3.115608349E0
1.381471513E0,3.245632410E0,4.421052933E-1,-3.946328163E-2,3.275842515E0
1.386269013E0,3.388940811E0,5.498771667E-1,9.113550186E-2,3.434470905E0
1.391066565E0,3.502889156E0,5.664596558E-1,2.215135098E-1,3.555302690E0
1.395864117E0,3.598769188E0,5.379972458E-1,3.573627472E-1,3.656267063E0
1.400661617E0,3.638383389E0,5.222225189E-1,4.780013561E-1,3.706620474E0
1.405459169E0,3.615003824E0,4.834842682E-1,6.102254391E-1,3.697889232E0
1.410256721E0,3.553380728E0,4.455051422E-1,7.658057213E-1,3.662164364E0
1.415054273E0,3.562227964E0,4.818935394E-1,9.508373737E-1,3.718303533E0
1.419851825E0,3.596514225E0,5.277938843E-1,1.069669008E0,3.789151982E0
1.424649325E0,3.567904949E0,5.205078125E-1,1.143382311E0,3.782617773E0
1.429446877E0,3.462109566E0,4.764633179E-1,1.202934742E0,3.695980510E0
1.434244429E0,3.413488865E0,5.253143311E-1,1.161538839E0,3.643766438E0
1.439041929E0,3.525291204E0,7.065553665E-1,9.789495468E-1,3.726290485E0
1.443839482E0,3.829540253E0,1.057251453E0,6.223018169E-1,4.021245918E0
1.448637034E0,4.211023331E0,1.409746647E0,1.231756210E-1,4.442440245E0
1.453434586E0,4.497239113E0,1.523711681E0,-3.800263405E-1,4.763536181E0
1.458232086E0,4.676639557E0,1.711383820E0,-7.834439278E-1,5.041188006E0
1.463029638E0,4.786193848E0,1.903277874E0,-1.231740952E0,5.295970542E0
1.467827190E0,4.905426979E0,1.804210186E0,-1.687257886E0,5.492287995E0
1.472624742E0,4.883154869E0,1.544030666E0,-1.949553013E0,5.479962511E0
1.477422242E0,4.634889126E0,1.268256187E0,-1.566376686E0,5.054127708E0
1.482219794E0,3.853185177E0,8.243293762E-1,-1.007264733E0,4.067079686E0
1.487017346E0,2.702935934E0,6.649112701E-2,-2.934749126E-1,2.719634398E0
1.491814898E0,1.256290078E0,-6.707057953E-1,8.307540417E-1,1.648715652E0
1.496612398E0,-3.132662773E-1,-1.522054672E0,1.144732237E0,1.930077221E0
1.501409950E0,-1.805081606E0,-2.256645203E0,1.310626745E0,3.173091496E0
1.506207502E0,-2.884098291E0,-2.870895386E0,1.650711536E0,4.391458966E0
1.511005054E0,-3.659553051E0,-3.233030319E0,1.771621466E0,5.194560250E0
1.515802554E0,-4.065695286E0,-3.474346161E0,1.497661591E0,5.553732947E0
1.520600107E0,-4.384487629E0,-3.429642677E0,1.067363739E0,5.667931370E0
1.525397659E0,-4.214991570E0,-3.435400009E0,9.499952793E-1,5.520019763E0
1.530195159E0,-3.970598221E0,-3.387843132E0,3.448042870E-1,5.230871946E0
1.534992711E0,-3.679427147E0,-3.104828835E0,-5.810445547E-1,4.849305001E0
1.539790263E0,-3.322810650E0,-2.701148033E0,-1.328541517E0,4.483558171E0
1.544587815E0,-2.914888144E0,-2.279747009E0,-1.785256743E0,4.108644662E0
1.549385315E0,-2.487316132E0,-1.953727722E0,-2.038320303E0,3.762783970E0
1.554182867E0,-2.116387367E0,-1.745253563E0,-2.072450876E0,3.438031140E0
1.558980419E0,-1.820314050E0,-1.607486725E0,-1.850019932E0,3.052888887E0
1.563777971E0,-1.599188805E0,-1.684783936E0,-1.438115835E0,2.732046650E0
1.568575471E0,-1.475144863E0,-1.967641830E0,-8.866492510E-1,2.614156391E0
1.573373023E0,-1.477756739E0,-2.259998322E0,-1.574444771E-1,2.704837547E0
1.578170575E0,-1.466009736E0,-2.619496346E0,5.353486538E-1,3.049187405E0
1.582968127E0,-1.394530535E0,-3.230183601E0,1.383033514E0,3.780421036E0
1.587765627E0,-1.268683076E0,-3.939349174E0,2.008204460E0,4.600099327E0
1.592563179E0,-9.893422127E-1,-4.491744995E0,2.567764521E0,5.267635689E0
1.597360732E0,-5.786128044E-1,-4.733135223E0,2.581157446E0,5.422152302E0
1.602158284E0,-1.520817280E-1,-4.622364998E0,2.081808329E0,5.071815547E0
1.606955784E0,2.506440878E-1,-4.341096878E0,1.445706367E0,4.582358723E0
1.611753336E0,6.347186565E-1,-4.013540268E0,9.506227970E-1,4.173135147E0
1.616550888E0,1.083614230E0,-3.649066925E0,6.441068649E-1,3.860671299E0
1.621348440E0,1.534235120E0,-3.185791016E0,4.276931286E-1,3.561750021E0
1.626145940E0,1.931664944E0,-2.631787300E0,1.577372551E-1,3.268411677E0
1.630943492E0,2.146718025E0,-2.062395096E0,-1.380875111E-1,2.980090598E0
1.635741044E0,2.155633926E0,-1.571613312E0,-4.481705427E-1,2.705103115E0
1.640538596E0,2.067275047E0,-1.214876175E0,-7.478331327E-1,2.511733393E0
1.645336096E0,1.857021689E0,-9.756517410E-1,-1.083430052E0,2.360984234E0
1.650133648E0,1.571219206E0,-8.087215424E-1,-1.306817770E0,2.197847358E0
1.654931200E0,1.311667681E0,-6.021852493E-1,-1.535683870E0,2.107468654E0
1.659728752E0,1.075041056E0,-3.353929520E-1,-1.681496263E0,2.023766633E0
1.664526252E0,8.201655149E-1,-4.726982117E-2,-1.789657712E0,1.969208124E0
1.669323804E0,5.439867973E-1,1.852951050E-1,-1.905155897E0,1.989943442E0
1.674121357E0,3.141438961E-1,3.477067947E-1,-2.014525414E0,2.068308257E0
1.678918909E0,1.939921379E-1,4.685287476E-1,-2.147009850E0,2.206083278E0
1.683716409E0,-1.824653149E-2,7.792587280E-1,-2.235946417E0,2.367917541E0
1.688513961E0,-1.160507202E-1,1.064393997E0,-2.441333294E0,2.665803932E0
1.693311513E0,-3.021335602E-2,1.154233932E0,-2.788399220E0,3.018002489E0
1.698109013E0,2.149860859E-1,9.795408249E-1,-2.959216595E0,3.124529100E0
1.702906565E0,5.343973637E-1,5.738458633E-1,-3.087274551E0,3.185301206E0
1.707704117E0,8.698506355E-1,-1.685333252E-2,-2.878352642E0,3.006964931E0
1.712501669E0,7.914891243E-1,-3.797397614E-1,-2.515079975E0,2.663885246E0
1.717299169E0,1.601722240E-1,-4.241037369E-1,-2.165288448E0,2.212237145E0
1.722096721E0,-8.087197542E-1,-5.083971024E-1,-1.511670828E0,1.788195724E0
1.726894273E0,-1.932623386E0,-6.614122391E-1,-6.991961002E-1,2.159021651E0
1.731691825E0,-3.128220320E0,-7.028455734E-1,2.950903773E-2,3.206341381E0
1.736489377E0,-4.167943001E0,-7.332849503E-1,4.591647685E-1,4.256793155E0
1.741286877E0,-5.019717216E0,-8.919935226E-1,4.543936849E-1,5.118562982E0
1.746084429E0,-5.566869736E0,-1.125055313E0,1.660401821E-1,5.681844547E0
1.750881982E0,-5.685153008E0,-1.228752136E0,-1.063490212E-1,5.817396896E0
1.755679482E0,-5.427345276E0,-1.066678047E0,-2.484477162E-1,5.536750407E0
1.760477034E0,-4.935513020E0,-8.604269028E-1,-6.023817062E-1,5.046036756E0
1.765274586E0,-4.487261772E0,3.582897186E-1,-3.074074984E-1,4.512027161E0
1.770072138E0,-4.114339828E0,2.199271679E0,-1.746976376E-2,4.665285986E0
1.774869638E0,-3.676310539E0,3.253694057E0,-5.737817287E-2,4.909692094E0
1.779667190E0,-3.259077311E0,3.782639980E0,-2.001601756E-1,4.997000524E0
1.784464742E0,-2.837508678E0,3.875130653E0,-2.892794013E-1,4.811629210E0
1.789262294E0,-2.495729446E0,3.742175579E0,-2.333323658E-1,4.504107850E0
1.794059794E0,-2.199507713E0,3.525280952E0,-1.554411352E-1,4.158076709E0
1.798857346E0,-1.903525949E0,3.284321785E0,-9.417641163E-2,3.797242397E0
1.803654898E0,-1.560867429E0,3.088545322E0,7.821202278E-2,3.461435607E0
1.808452450E0,-1.284803629E0,2.947654724E0,1.893139482E-1,3.221060153E0
1.813249950E0,-1.105855942E0,2.752014637E0,1.816047430E-1,2.971444465E0
1.818047502E0,-9.717314243E-1,2.461319447E0,4.596501589E-2,2.646595580E0
1.822845054E0,-8.529176712E-1,2.092564583E0,-1.623699069E-1,2.265537259E0
1.827642607E0,-7.231447101E-1,1.700832844E0,-3.511132896E-1,1.881236608E0
1.832440159E0,-5.577613711E-1,1.164198875E0,-4.218333960E-1,1.358086957E0
1.837237659E0,-4.336802959E-1,5.975904465E-1,-4.280008972E-1,8.534504724E-1
1.842035211E0,-3.509098291E-1,1.069068909E-2,-3.846938908E-1,5.208083992E-1
1.846832763E0,-2.769967318E-1,-5.678901672E-1,-3.314093947E-1,7.134834395E-1
1.851630263E0,-2.302634716E-1,-1.092897415E0,-2.951999009E-1,1.155244133E0
1.856427815E0,-1.909362078E-1,-1.528757095E0,-2.822826505E-1,1.566281707E0
1.861225367E0,-1.532301903E-1,-1.923438072E0,-2.726525664E-1,1.948700318E0
1.866022919E0,-1.496424675E-1,-2.241283417E0,-1.945393682E-1,2.254681749E0
1.870820471E0,-1.600455046E-1,-2.432389259E0,-4.089045525E-2,2.437991817E0
1.875617971E0,-2.136429846E-1,-2.482754707E0,1.588081121E-1,2.496985038E0
1.880415523E0,-3.087047637E-1,-2.411808014E0,3.280589581E-1,2.453515683E0
1.885213075E0,-4.388036132E-1,-2.212717056E0,4.783220291E-1,2.305961263E0
1.890010627E0,-5.797083378E-1,-1.919192314E0,6.282117963E-1,2.100954773E0
1.894808127E0,-6.848815084E-1,-1.529054642E0,7.504138947E-1,1.835808212E0
1.899605679E0,-7.339092493E-1,-1.071177483E0,8.100318909E-1,1.530423356E0
1.904403232E0,-6.902257204E-1,-6.030244827E-1,8.272644281E-1,1.234672631E0
1.909200784E0,-6.032561660E-1,-1.675605774E-1,7.723839879E-1,9.942693668E-1
1.913998284E0,-4.887295365E-1,2.066917419E-1,6.755089760E-1,8.590054789E-1
1.918795836E0,-3.627339602E-1,5.008373260E-1,5.549851656E-1,8.309166547E-1
1.923593388E0,-2.416153997E-1,7.151145935E-1,4.150717258E-1,8.614240656E-1
1.928390940E0,-1.226471663E-1,8.784170151E-1,2.699087262E-1,9.270973521E-1
1.933188440E0,-5.555778742E-3,9.909181595E-1,1.456647664E-1,1.001582692E0
1.937985992E0,1.098591685E-1,1.074269295E0,5.647216737E-2,1.081347613E0
1.942783544E0,2.338545322E-1,1.157249451E0,-2.386688255E-2,1.180882662E0
1.947581096E0,3.270028234E-1,1.213697433E0,-6.944083422E-2,1.258894092E0
1.952378596E0,4.182528853E-1,1.265199661E0,-9.929612279E-2,1.336235525E0
1.957176148E0,5.049548745E-1,1.316555977E0,-8.890353143E-2,1.412870448E0
1.961973700E0,5.777696371E-1,1.341535568E0,-1.221024990E-2,1.460713704E0
1.966771252E0,6.442312002E-1,1.364109993E0,8.828103542E-2,1.511166256E0
1.971568752E0,7.451976538E-1,1.410561562E0,1.680285037E-1,1.604131242E0
1.976366304E0,8.210873008E-1,1.423558235E0,2.706671357E-1,1.665521871E0
1.981163857E0,8.593288064E-1,1.376885414E0,4.155968130E-1,1.675404474E0
1.985961409E0,8.736609221E-1,1.315999031E0,5.674632192E-1,1.678437178E0
1.990758909E0,8.635933995E-1,1.245662689E0,6.888372302E-1,1.664922168E0
1.995556461E0,8.115627766E-1,1.137176514E0,8.340455294E-1,1.627094499E0
2.000354013E0,7.183402181E-1,9.737625122E-1,9.888362288E-1,1.562697407E0
2.005151565E0,5.511707067E-1,7.625427246E-1,1.161413789E0,1.494704835E0
2.009949065E0,3.685251474E-1,6.013441086E-1,1.251422882E0,1.436483467E0
2.014746617E0,1.709240675E-1,4.900131226E-1,1.245903373E0,1.349667778E0
2.019544169E0,-1.541435719E-3,4.213361740E-1,1.146085501E0,1.221080883E0
2.024341721E0,-1.114116907E-1,3.738088608E-1,1.010788202E0,1.083438240E0
2.029139273E0,-1.484017968E-1,3.164224625E-1,9.029163718E-1,9.681963864E-1
2.033936773E0,-1.381590366E-1,2.349767685E-1,8.518642187E-1,8.944130188E-1
2.038734325E0,-9.456467628E-2,1.439437866E-1,8.326142430E-1,8.502404186E-1
2.043531877E0,-2.216589451E-2,2.671051025E-2,8.302077055E-1,8.309329771E-1
2.048329429E0,4.564529657E-2,-1.356906891E-1,8.273169994E-1,8.396123354E-1
2.053126929E0,1.037344933E-1,-3.264398575E-1,8.023527861E-1,8.724069113E-1
2.057924482E0,1.471146941E-1,-4.977264404E-1,7.625629306E-1,9.224297078E-1
2.062722034E0,1.711174846E-1,-5.827236176E-1,7.295299172E-1,9.492428078E-1
2.067519586E0,1.836546659E-1,-5.815439224E-1,7.200903893E-1,9.436379278E-1
2.072317086E0,1.923252344E-1,-5.015258789E-1,7.157303095E-1,8.948670733E-1
2.077114638E0,1.830972433E-1,-3.905735016E-1,7.360512018E-1,8.531375225E-1
2.081912190E0,1.819368601E-1,-2.416553497E-1,7.481902242E-1,8.070235069E-1
2.086709742E0,2.022080421E-1,-1.576366425E-1,7.310625911E-1,7.747192494E-1
2.091507242E0,2.216925621E-1,-1.503801346E-1,6.990005970E-1,7.485743861E-1
2.096304794E0,2.049442530E-1,-2.077522278E-1,6.427682042E-1,7.059136628E-1
2.101102346E0,2.068718672E-1,-3.200330734E-1,6.120800376E-1,7.210125588E-1
2.105899898E0,2.010658979E-1,-4.894742966E-1,6.208947301E-1,8.157958373E-1
2.110697398E0,1.847996712E-1,-6.750783920E-1,6.785353422E-1,9.748291976E-1
2.115494950E0,1.697549820E-1,-8.692893982E-1,7.675440907E-1,1.172008849E0
2.120292502E0,1.922948360E-1,-1.043302536E0,8.088068962E-1,1.334026267E0
2.125090054E0,2.506088018E-1,-1.285381317E0,8.168976903E-1,1.543480398E0
2.129887607E0,3.932244778E-1,-1.478562355E0,7.941346169E-1,1.723781285E0
2.134685107E0,4.731839895E-1,-1.637429237E0,7.454078197E-1,1.860298474E0
2.139482659E0,4.721783400E-1,-1.764334679E0,7.088397145E-1,1.959153640E0
2.144280211E0,4.677324295E-1,-1.835390091E0,6.947121620E-1,2.017437830E0
2.149077763E0,4.836655855E-1,-1.886615753E0,7.110571265E-1,2.073367704E0
2.153875263E0,5.116571188E-1,-1.966009140E0,7.272690535E-1,2.157754671E0
2.158672815E0,5.425802469E-1,-2.061853409E0,6.860874891E-1,2.239720707E0
2.163470367E0,6.055264473E-1,-2.102712631E0,5.558865666E-1,2.257669720E0
2.168267919E0,6.727118492E-1,-2.041116714E0,3.482234180E-1,2.177144511E0
2.173065419E0,7.337021828E-1,-1.917956352E0,9.121334553E-2,2.055527995E0
2.177862971E0,7.759815454E-1,-1.771654129E0,-1.721644402E-1,1.941789460E0
2.182660523E0,7.942591906E-1,-1.619106293E0,-4.510577321E-1,1.858979808E0
2.187458075E0,7.787898779E-1,-1.465195656E0,-7.474972606E-1,1.819907728E0
2.192255627E0,7.301545143E-1,-1.329034805E0,-1.053659439E0,1.846525749E0
2.197053127E0,6.470919847E-1,-1.196166992E0,-1.378589392E0,1.936505156E0
2.201850679E0,5.257248878E-1,-1.073665619E0,-1.748327374E0,2.117969104E0
2.206648232E0,3.838624954E-1,-9.613924026E-1,-2.133732796E0,2.371590481E0
2.211445784E0,1.911642551E-1,-8.759365082E-1,-2.484743118E0,2.641544416E0
2.216243284E0,-5.242586136E-2,-7.885189056E-1,-2.826630354E0,2.935021242E0
2.221040836E0,-3.514866829E-1,-6.630878448E-1,-3.136198282E0,3.224743097E0
2.225838388E0,-7.209932804E-1,-4.278287888E-1,-3.334675550E0,3.438448750E0
2.230635940E0,-1.144488215E0,-1.160011292E-1,-3.391858101E0,3.581621269E0
2.235433440E0,-1.589343905E0,2.367391586E-1,-3.358803272E0,3.723388094E0
2.240230992E0,-2.008996725E0,5.588455200E-1,-3.208806038E0,3.826854106E0
2.245028544E0,-2.390359402E0,7.932453156E-1,-2.993723869E0,3.912216610E0
2.249826096E0,-2.692782640E0,9.807767868E-1,-2.757348061E0,3.976929693E0
2.254623648E0,-2.917111158E0,1.138186455E0,-2.534806728E0,4.028678576E0
2.259421148E0,-3.087744713E0,1.251065254E0,-2.311798334E0,4.055088559E0
2.264218700E0,-3.155906677E0,1.226093292E0,-2.192105055E0,4.033407528E0
2.269016252E0,-3.097545385E0,1.063075066E0,-2.142956257E0,3.913716588E0
2.273813804E0,-2.894009590E0,7.712039948E-1,-2.111906052E0,3.664722947E0
2.278611304E0,-2.604862213E0,4.600753784E-1,-2.155737400E0,3.412356992E0
2.283408857E0,-2.179918528E0,1.815900803E-1,-2.054873466E0,3.001253856E0
2.288206409E0,-1.636960864E0,-7.433128357E-2,-1.986341000E0,2.575017782E0
2.293003961E0,-1.080835581E0,-3.748579025E-1,-1.954792142E0,2.264936272E0
2.297801461E0,-5.563333035E-1,-6.627159119E-1,-2.073616505E0,2.246905546E0
2.302599013E0,-5.112993717E-2,-9.522943497E-1,-2.396812916E0,2.579571854E0
2.307396565E0,4.066536427E-1,-1.193482399E0,-2.941630602E0,3.200462157E0
2.312194117E0,8.302385807E-1,-1.365221024E0,-4.020826340E0,4.326681060E0
2.316991617E0,1.246129036E0,-1.551489830E0,-4.745709419E0,5.146038880E0
2.321789169E0,1.602580905E0,-1.716397285E0,-4.903151035E0,5.436467168E0
2.326586721E0,1.912094355E0,-1.945657730E0,-4.675654411E0,5.413264542E0
2.331384273E0,2.113650322E0,-2.166788101E0,-4.257563114E0,5.223919221E0
2.336181825E0,2.215874672E0,-2.380808830E0,-3.445885420E0,4.738404539E0
2.340979325E0,2.240128279E0,-2.576558113E0,-2.404603958E0,4.175996481E0
2.345776877E0,2.169653654E0,-2.755549431E0,-1.626623392E0,3.866051384E0
2.350574429E0,2.034548759E0,-2.798384666E0,-1.314911723E0,3.701261709E0
2.355371982E0,1.850192308E0,-2.748520851E0,-1.266141772E0,3.546927323E0
2.360169482E0,1.704136610E0,-2.646973610E0,-1.164254665E0,3.356492187E0
2.364967034E0,1.550541639E0,-2.460377693E0,-1.117996216E0,3.115694675E0
2.369764586E0,1.356948376E0,-2.086252213E0,-1.081851959E0,2.713698740E0
2.374562138E0,1.161817312E0,-1.711894989E0,-8.152081966E-1,2.223728474E0
2.379359690E0,9.411551952E-1,-1.376341820E0,-3.886533976E-1,1.712057642E0
2.384157190E0,7.370908260E-1,-1.082516670E0,-2.488583326E-2,1.309871952E0
2.388954742E0,5.549583435E-1,-7.589502335E-1,1.673992276E-1,9.549904300E-1
2.393752294E0,4.024188519E-1,-4.249353409E-1,2.545974255E-1,6.382247451E-1
2.398549846E0,2.458899021E-1,-9.020137787E-2,2.920779586E-1,3.923106759E-1
2.403347346E0,7.250142097E-2,2.330045700E-1,3.051103354E-1,3.906915694E-1
2.408144898E0,-1.207618713E-1,5.397729874E-1,2.984033823E-1,6.284766392E-1
2.412942450E0,-3.543529510E-1,8.256874084E-1,2.072135210E-1,9.220971498E-1
2.417740002E0,-5.958228111E-1,1.110360146E0,5.309700966E-2,1.261238981E0
2.422537502E0,-7.866666317E-1,1.403787136E0,-1.183241606E-1,1.613525122E0
2.427335054E0,-9.232709408E-1,1.677822590E0,-3.042033315E-1,1.939086780E0
2.432132607E0,-1.020924568E0,1.973725319E0,-4.800782204E-1,2.273401352E0
2.436930159E0,-1.083449841E0,2.291971207E0,-6.280139089E-1,2.611780435E0
2.441727711E0,-1.127218723E0,2.618431091E0,-7.713550329E-1,2.953268023E0
2.446525211E0,-1.161778450E0,2.941258430E0,-8.903259635E-1,3.285332653E0
2.451322763E0,-1.191951513E0,3.241372585E0,-1.032574177E0,3.604643405E0
2.456120315E0,-1.126906872E0,3.432262421E0,-1.016561389E0,3.752831129E0
2.460917867E0,-9.531185627E-1,3.310284138E0,-8.285909295E-1,3.543018345E0
2.465715367E0,-8.310647011E-1,3.114883900E0,-6.160848141E-1,3.282183838E0
2.470512919E0,-7.675881386E-1,2.915705681E0,-3.969433308E-1,3.041068098E0
2.475310471E0,-7.615470886E-1,2.813566685E0,-2.324380875E-1,2.924062059E0
2.480108023E0,-7.498555183E-1,2.787209034E0,-1.219737530E-1,2.888891672E0
2.484905523E0,-7.430329323E-1,2.906324863E0,-1.154538393E-1,3.002024607E0
2.489703075E0,-6.901249886E-1,3.137546539E0,-1.432089806E-1,3.215739355E0
2.494500627E0,-5.916788578E-1,3.363520145E0,-1.403998137E-1,3.418049699E0
2.499298179E0,-4.495553970E-1,3.442761898E0,-8.521735668E-2,3.473034918E0
2.504095732E0,-3.058841228E-1,3.375047684E0,-6.294369698E-3,3.388886481E0
2.508893232E0,-1.706166267E-1,3.253609657E0,6.253397465E-2,3.258680152E0
2.513690784E0,1.731896400E-2,3.018373966E0,1.397130489E-1,3.021655355E0
2.518488336E0,1.762270927E-1,2.731347561E0,1.094149351E-1,2.739212864E0
2.523285888E0,2.574615479E-1,2.612658978E0,-7.022058964E-2,2.626252903E0
2.528083440E0,2.816572189E-1,2.698182583E0,-3.040893078E-1,2.729833392E0
2.532880940E0,3.866467476E-1,2.691103458E0,-3.507386446E-1,2.741268161E0
2.537678492E0,4.245283604E-1,2.746899128E0,-3.349248171E-1,2.799616720E0
2.542476044E0,5.115039349E-1,2.561733246E0,-2.237647176E-1,2.621866539E0
2.547273596E0,5.417902470E-1,2.228928566E0,-1.540039778E-1,2.298994661E0
2.552071096E0,5.067586899E-1,1.904225349E0,-1.616899967E-1,1.977124732E0
2.556868648E0,4.627380371E-1,1.602343082E0,-2.322800159E-1,1.683919194E0
2.561666200E0,4.198555946E-1,1.428482533E0,-3.321192861E-1,1.525498045E0
2.566463752E0,4.735813141E-1,1.126113892E0,-3.625398874E-1,1.274302526E0
2.571261304E0,6.113891602E-1,6.922540665E-1,-3.089075685E-1,9.738769345E-1
2.576058804E0,7.574656010E-1,2.198438644E-1,-1.926420331E-1,8.119091170E-1
2.580856357E0,8.997552395E-1,-1.835565567E-1,-4.727268219E-2,9.195037830E-1
2.585653909E0,1.067627192E0,-5.035791397E-1,5.485332012E-2,1.181705825E0
2.590451461E0,1.276564598E0,-7.288274765E-1,9.424519539E-2,1.472986361E0
2.595249013E0,1.543130875E0,-9.006547928E-1,1.556050777E-1,1.793500737E0
2.600046513E0,1.740708351E0,-1.042486191E0,1.058477163E-1,2.031759523E0
2.604844065E0,1.937730074E0,-1.166062355E0,4.642486572E-2,2.262002326E0
2.609641617E0,2.191202402E0,-1.269122124E0,2.506482601E-2,2.532324461E0
2.614439169E0,2.488695383E0,-1.337502480E0,4.628157616E-2,2.825713994E0
2.619236669E0,2.824915648E0,-1.352321625E0,9.303987026E-2,3.133301551E0
2.624034221E0,3.177973032E0,-1.294678688E0,1.676477194E-1,3.435667512E0
2.628831773E0,3.521589041E0,-1.186214447E0,2.413902283E-1,3.723837178E0
2.633629325E0,3.837115765E0,-1.031646729E0,3.027269840E-1,3.984895982E0
2.638426877E0,4.099154472E0,-8.546781540E-1,3.305588961E-1,4.200334667E0
2.643224377E0,5.197495937E0,9.984588623E-2,2.947101593E-1,5.206802022E0
2.648021929E0,5.075277328E0,1.638460159E-1,-4.712748528E-2,5.078140061E0
2.652819482E0,4.910634995E0,7.504749298E-2,-2.748730183E-1,4.918894525E0
2.657617034E0,4.689910889E0,-1.897573471E-1,-4.064336419E-1,4.711311951E0
2.662414534E0,4.351151466E0,-6.061382294E-1,-4.239248633E-1,4.413573940E0
2.667212086E0,3.858600855E0,-1.109196663E0,-2.906581163E-1,4.025369540E0
2.672009638E0,3.243703604E0,-1.557703018E0,-1.829957962E-1,3.602990317E0
2.676807190E0,2.528576612E0,-1.898983002E0,-1.193999052E-1,3.164505090E0
2.681604742E0,1.809341192E0,-2.039895058E0,-1.065992117E-1,2.728781924E0
2.686402242E0,1.131598949E0,-2.011876106E0,-2.262881994E-1,2.319346459E0
2.691199794E0,8.043775558E-1,-1.753562927E0,-3.417642117E-1,1.959287873E0
2.695997346E0,4.900624752E-1,-1.869787216E0,-8.137435913E-1,2.097246789E0
2.700794898E0,-1.287658215E-1,-2.001074791E0,-1.870583296E0,2.742255062E0
2.705592398E0,-1.732778549E-1,-2.164405823E0,-2.321775675E0,3.178886608E0
2.710389950E0,-1.544556618E-1,-2.257411003E0,-2.960972786E0,3.726542745E0
2.715187502E0,-1.952149868E-1,-2.387988091E0,-4.331556320E0,4.950048097E0
2.719985054E0,-4.086353779E-1,-2.673641205E0,-4.171353340E0,4.971471498E0
2.724782607E0,-7.498176098E-1,-2.744210243E0,-3.412326813E0,4.442622039E0
2.729580107E0,-1.179743409E0,-2.705093384E0,-3.455586433E0,4.544271375E0
2.734377659E0,-1.720467091E0,-2.453317642E0,-3.915172577E0,4.930248551E0
2.739175211E0,-2.219698668E0,-2.089174271E0,-4.451372623E0,5.395037492E0
2.743972763E0,-2.714323044E0,-1.739100456E0,-4.708084106E0,5.705968449E0
2.748770315E0,-3.093501329E0,-1.405280113E0,-4.611960888E0,5.728415654E0
2.753567815E0,-3.504536629E0,-1.130512238E0,-4.417422771E0,5.750952864E0
2.758365367E0,-3.648380995E0,-1.003138542E0,-4.501242161E0,5.880319023E0
2.763162919E0,-3.406877041E0,-7.486352921E-1,-4.614588261E0,5.784608093E0
2.767960471E0,-2.811831474E0,-4.182500839E-1,-4.639183998E0,5.440896759E0
2.772758023E0,-2.331925869E0,-7.993574142E-1,-4.254264832E0,4.916870935E0
2.777555523E0,-1.549068093E0,-1.841815948E0,-3.606274605E0,4.335563916E0
2.782353075E0,-1.226428151E0,-2.140553474E0,-2.428271055E0,3.461588581E0
2.787150627E0,-1.150951624E0,-1.818543434E0,-1.132362366E0,2.431878778E0
2.791948179E0,-9.675338268E-1,-1.743494034E0,-2.459077537E-1,2.009070376E0
2.796745679E0,-1.225654006E0,-1.541579247E0,5.110158920E-1,2.034657602E0
2.801543232E0,-2.045121193E0,-1.185707092E0,1.442342877E0,2.769255311E0
2.806340784E0,-2.640433311E0,-1.143396378E0,2.054577351E0,3.535609062E0
2.811138336E0,-2.629786015E0,-1.286906242E0,2.204520226E0,3.664943599E0
2.815935888E0,-2.410410404E0,-1.285599709E0,2.070231438E0,3.427638127E0
2.820733388E0,-2.103945971E0,-1.103162766E0,1.976365089E0,3.090238777E0
2.825530940E0,-1.455958128E0,-1.035836220E0,1.457521558E0,2.305892416E0
2.830328492E0,-7.568612099E-1,-1.112401962E0,6.786231995E-1,1.506919528E0
2.835126044E0,-1.252799034E-1,-1.077421188E0,-1.990126967E-1,1.102786255E0
2.839923596E0,2.271459103E-1,-1.005515099E0,-5.733678341E-1,1.179578972E0
2.844721096E0,3.659944534E-1,-7.298946381E-1,-7.294406295E-1,1.094888923E0
2.849518648E0,5.238754749E-1,-5.092077255E-1,-7.961899638E-1,1.080581547E0
2.854316200E0,5.296843052E-1,-2.360248566E-1,-6.297097802E-1,8.560418234E-1
2.859113752E0,3.898253441E-1,1.563405991E-1,-2.449756861E-1,4.862296459E-1
2.863911252E0,-3.658747673E-2,7.370529175E-1,7.094180584E-2,7.413625203E-1
2.868708804E0,-4.525074959E-1,1.231280327E0,4.663772285E-1,1.392236329E0
2.873506357E0,-6.912504435E-1,1.617561340E0,8.247457743E-1,1.942816887E0
2.878303909E0,-8.495324850E-1,1.864749432E0,1.144940138E0,2.347314168E0
2.883101461E0,-9.476425648E-1,2.075486183E0,1.303853035E0,2.627870252E0
2.887898961E0,-1.048570752E0,2.271050930E0,1.343777537E0,2.839526548E0
2.892696513E0,-1.026308417E0,2.381958008E0,1.273434877E0,2.889406393E0
2.897494065E0,-9.459011555E-1,2.398594379E0,1.202100635E0,2.844825114E0
2.902291617E0,-7.814381123E-1,2.318553448E0,1.097823739E0,2.681707026E0
2.907089169E0,-5.978913307E-1,2.175268173E0,8.352948427E-1,2.405614920E0
2.911886669E0,-3.663834333E-1,2.040511131E0,6.138290763E-1,2.162107452E0
2.916684221E0,-1.463553905E-1,1.828309059E0,3.239998221E-1,1.862554644E0
2.921481773E0,-1.837491989E-2,1.596242428E0,5.931276083E-2,1.597449696E0
2.926279325E0,4.457497597E-2,1.377926826E0,-1.732428074E-1,1.389489956E0
2.931076877E0,1.029739380E-1,1.228436470E0,-2.592201233E-1,1.259704277E0
2.935874377E0,2.051527500E-1,1.095294952E0,-2.044484615E-1,1.132942124E0
2.940671929E0,3.494467735E-1,9.572572708E-1,-1.797862053E-1,1.034783847E0
2.945469482E0,4.172511101E-1,8.576087952E-1,-1.787153482E-1,9.703249508E-1
2.950267034E0,4.716784954E-1,8.276596069E-1,-1.544495821E-1,9.650677186E-1
2.955064586E0,6.399943829E-1,7.409410477E-1,-1.237475872E-2,9.791524809E-1
2.959862086E0,7.768146992E-1,5.810642242E-1,1.006765366E-1,9.753012225E-1
2.964659638E0,9.351546764E-1,4.080696106E-1,2.126643062E-1,1.042238544E0
2.969457190E0,1.141351938E0,3.128261566E-1,2.492337823E-1,1.209405610E0
2.974254742E0,1.335653067E0,2.952985764E-1,2.624883652E-1,1.392864137E0
2.979052242E0,1.541940928E0,2.789211273E-1,3.025417924E-1,1.595904244E0
2.983849794E0,1.714587688E0,3.281593323E-1,3.381326795E-1,1.778154436E0
2.988647346E0,1.776919127E0,4.475736618E-1,3.265404105E-1,1.861287835E0
2.993444898E0,1.760061741E0,6.250009537E-1,3.400126696E-1,1.898434128E0
2.998242450E0,1.740111828E0,8.362293243E-1,3.650020957E-1,1.964814288E0
3.003039950E0,1.716398716E0,1.028389931E0,3.616300225E-1,2.033319128E0
3.007837502E0,1.693310142E0,1.282525063E0,3.237321377E-1,2.148714097E0
3.012635054E0,1.637086987E0,1.560132027E0,2.474710345E-1,2.274930253E0
3.017432607E0,1.573618174E0,1.789335251E0,3.963675499E-1,2.415595585E0
3.022230159E0,1.495603323E0,1.910355568E0,4.102106094E-1,2.460601642E0
3.027027711E0,1.443357587E0,2.152620316E0,7.452583313E-2,2.592799538E0
3.031825211E0,1.419024229E0,2.363010406E0,1.591355801E-1,2.760936811E0
3.036622763E0,1.365252614E0,2.517729282E0,3.573831320E-1,2.886277558E0
3.041420315E0,1.291856050E0,2.571516037E0,6.165771484E-1,2.943085823E0
3.046217867E0,1.213139296E0,2.663135529E0,8.430489302E-1,3.045444022E0
3.051015367E0,1.134048462E0,2.718503475E0,9.866932631E-1,3.106427313E0
3.055812919E0,1.097635627E0,2.687592506E0,1.156915069E0,3.125125586E0
3.060610471E0,1.108528137E0,2.604006290E0,1.355741858E0,3.138107611E0
3.065408023E0,1.207067609E0,2.482133389E0,1.614184380E0,3.197434844E0
3.070205575E0,1.307032347E0,2.343548298E0,1.819653630E0,3.242173887E0
3.075003075E0,1.432702303E0,2.341313839E0,1.962116480E0,3.374060975E0
3.079800627E0,1.469883561E0,2.291351318E0,2.032072067E0,3.397081900E0
3.084598179E0,1.650137782E0,1.902172089E0,2.077762127E0,3.264706543E0
3.089395732E0,1.848654509E0,1.568429947E0,2.003804684E0,3.145270926E0
3.094193284E0,2.027028561E0,1.237443924E0,1.906050086E0,3.045182947E0
3.098990784E0,2.192307234E0,8.375110626E-1,1.715283513E0,2.906859700E0
3.103788336E0,2.344429016E0,3.973894119E-1,1.477122545E0,2.799313625E0
3.108585888E0,2.452271938E0,-1.450042725E-1,1.208515167E0,2.737731325E0
3.113383440E0,2.470489025E0,-6.867733002E-1,9.571989179E-1,2.737006276E0
3.118180992E0,2.387310743E0,-1.201642036E0,6.898257732E-1,2.760263713E0
3.122978492E0,2.315130949E0,-1.756530762E0,3.942554593E-1,2.932689720E0
3.127776044E0,2.151353836E0,-2.210392952E0,1.039579511E-1,3.086254621E0
3.132573596E0,1.913397431E0,-2.472510338E0,-1.714715958E-1,3.131101980E0
3.137371148E0,1.728504777E0,-2.581300735E0,-3.200168610E-1,3.123019859E0
3.142168700E0,1.546849489E0,-2.575168610E0,-4.230358601E-1,3.033676985E0
3.146966200E0,1.378373146E0,-2.418381691E0,-4.640014172E-1,2.822016982E0
3.151763752E0,1.170676470E0,-2.125464439E0,-4.766007066E-1,2.472899253E0
3.156561304E0,8.616170883E-1,-1.684653282E0,-4.493176937E-1,1.944820577E0
3.161358857E0,6.775233746E-1,-1.430783272E0,-5.566177368E-1,1.678094753E0
3.166156409E0,4.021550417E-1,-9.742631912E-1,-6.575108767E-1,1.242271305E0
3.170953909E0,1.397067308E-1,-6.547832489E-1,-7.595462203E-1,1.012506560E0
3.175751461E0,-9.413146973E-2,-4.077138901E-1,-8.680089116E-1,9.636030409E-1
3.180549013E0,-2.665196657E-1,-2.401609421E-1,-9.091035724E-1,9.773327558E-1
3.185346565E0,-3.708328009E-1,-8.512210846E-2,-9.264205098E-1,1.001507714E0
3.190144117E0,-4.528144002E-1,4.788684845E-2,-9.851783514E-1,1.085315814E0
3.194941617E0,-5.389156938E-1,7.771301270E-2,-1.117251158E0,1.242867486E0
3.199739169E0,-5.431576371E-1,3.322792053E-2,-1.311477184E0,1.419893207E0
3.204536721E0,-5.491675138E-1,-2.569007874E-2,-1.599644780E0,1.691481115E0
3.209334273E0,-6.568089724E-1,-1.061334610E-1,-1.960737109E0,2.070543974E0
3.214131825E0,-8.819752932E-1,-1.936664581E-1,-2.318929434E0,2.488537891E0
3.218929325E0,-1.209834099E0,-1.401729584E-1,-2.679486990E0,2.943297052E0
3.223726877E0,-1.701243639E0,3.743238449E-1,-2.994442463E0,3.464250846E0
3.228524429E0,-2.332232952E0,5.608720779E-1,-3.199149609E0,3.998555520E0
3.233321982E0,-2.950623035E0,6.087856293E-1,-3.350780725E0,4.506054561E0
3.238119534E0,-3.452851295E0,6.161918640E-1,-3.216950417E0,4.759269320E0
3.242917034E0,-3.883685350E0,6.834611893E-1,-2.952502728E0,4.926195637E0
3.247714586E0,-4.209486961E0,6.646413803E-1,-2.530128002E0,4.956115046E0
3.252512138E0,-4.120094776E0,6.409091949E-1,-2.025179148E0,4.635439153E0
3.257309690E0,-3.910386562E0,5.858297348E-1,-1.417132616E0,4.200307655E0
3.262107242E0,-3.523282528E0,5.328378677E-1,-9.608387947E-1,3.690616094E0
3.266904742E0,-3.261857510E0,5.011281967E-1,-7.944282293E-1,3.394401287E0
3.271702294E0,-2.674689770E0,3.568105698E-1,-5.178784132E-1,2.747631198E0
3.276499846E0,-1.956665516E0,1.763868332E-1,-2.239220142E-1,1.977319732E0
3.281297398E0,-1.135623693E0,-1.812219620E-1,1.695589423E-1,1.162425399E0
3.286094950E0,-3.945525885E-1,-5.151357651E-1,5.897555351E-1,8.768398900E-1
3.290892450E0,2.375870943E-1,-9.282808304E-1,1.104610682E0,1.462298767E0
3.295690002E0,6.425735950E-1,-1.427838326E0,2.337003469E0,2.813042539E0
3.300487554E0,2.485714674E0,-2.441235542E0,4.720187783E-1,3.515851268E0
3.305285107E0,3.997902632E0,-3.482546806E0,4.070841074E-1,5.317619315E0
3.310082659E0,5.383793354E0,-4.164622307E0,-1.528126001E-1,6.808278896E0
3.314880159E0,6.398108959E0,-4.442785263E0,-3.345445395E-1,7.796541489E0
3.319677711E0,7.379475594E0,-4.812562943E0,-4.383527935E-1,8.820973602E0
3.324475263E0,8.026566505E0,-4.825062752E0,-1.047421336E0,9.423592302E0
3.329272815E0,8.561364174E0,-4.801554680E0,-1.271798372E0,9.897947007E0
3.334070367E0,8.965429306E0,-4.704335213E0,-1.159948468E0,1.019093582E1
3.338867919E0,8.725069046E0,-4.371102333E0,-1.182027578E0,9.830084163E0
3.343665419E0,8.018703461E0,-3.801990509E0,-9.685680866E-1,8.927085816E0
3.348462971E0,7.449582100E0,-3.138025284E0,-8.172980547E-1,8.124743212E0
3.353260523E0,6.499639511E0,-2.144648552E0,-5.227860808E-1,6.864265181E0
3.358058075E0,5.514003277E0,-1.175313950E0,-2.408234775E-1,5.643012579E0
3.362855575E0,4.755649567E0,-4.491233826E-1,2.598285675E-2,4.776880752E0
3.367653127E0,3.957092524E0,-7.839202881E-3,1.005194187E-1,3.958376794E0
3.372450679E0,3.386622667E0,8.787059784E-2,7.782125473E-2,3.388656147E0
3.377248232E0,2.737411022E0,1.976575851E-1,-4.833939672E-2,2.744963447E0
3.382045784E0,2.105395794E0,2.310256958E-1,-1.649748534E-1,2.124448405E0
3.386843284E0,1.441193819E0,2.499618530E-1,-1.755170375E-1,1.473202899E0
3.391640836E0,9.040417671E-1,3.922204971E-1,-1.455172896E-1,9.961444256E-1
3.396438388E0,4.146265984E-1,5.732727051E-1,-1.590461582E-1,7.251568733E-1
3.401235940E0,-1.076335907E-1,6.611824036E-1,-1.087224633E-1,6.786514088E-1
3.406033492E0,-7.062151432E-1,7.802200317E-1,1.707267761E-2,1.052508719E0
3.410830992E0,-1.232363820E0,9.735708237E-1,1.297561824E-1,1.575879881E0
3.415628544E0,-1.666202784E0,1.279726982E0,2.634059489E-1,2.117384131E0
3.420426096E0,-1.935029387E0,1.620154858E0,3.712035120E-1,2.550888579E0
3.425223648E0,-1.971412420E0,1.937813282E0,4.808435440E-1,2.805850630E0
3.430021200E0,-1.854002714E0,2.295142174E0,6.154655218E-1,3.013934550E0
3.434818752E0,-1.611195087E0,2.663674355E0,7.094590068E-1,3.192873746E0
3.439616252E0,-1.243006229E0,3.014849186E0,7.903562784E-1,3.355449768E0
3.444413804E0,-8.118569851E-1,3.107375622E0,8.140220046E-1,3.313235102E0
3.449211357E0,-4.329581261E-1,2.998835087E0,7.021903396E-1,3.110230842E0
3.454008909E0,-3.354287148E-2,2.732062340E0,7.526758313E-1,2.834044929E0
3.458806461E0,3.365242481E-1,2.390172005E0,8.342393041E-1,2.553845336E0
3.463603961E0,7.274513245E-1,1.998684406E0,8.922964334E-1,2.306538036E0
3.468401513E0,1.034893274E0,1.705231667E0,8.216135502E-1,2.157282539E0
3.473199065E0,1.363743305E0,1.645706177E0,7.412216663E-1,2.262201181E0
3.477996617E0,1.635896206E0,1.781779766E0,5.953626633E-1,2.491054442E0
3.482794169E0,1.859615803E0,1.931884766E0,5.214406252E-1,2.731711919E0
3.487591669E0,1.992805243E0,2.024576187E0,4.873055816E-1,2.882299117E0
3.492389221E0,2.136613607E0,2.148547649E0,4.508163333E-1,3.063431095E0
3.497186773E0,2.212662220E0,2.217885494E0,3.792385459E-1,3.155742708E0
3.501984325E0,2.255432844E0,2.311852932E0,3.904976845E-1,3.253325950E0
3.506781877E0,2.241999149E0,2.504827023E0,3.803762197E-1,3.383105772E0
3.511579377E0,2.301353693E0,2.407148361E0,1.257589906E-1,3.332627699E0
3.516376929E0,2.337013483E0,2.176653385E0,-2.273982763E-1,3.201743580E0
3.521174482E0,2.266709566E0,2.176370621E0,-5.158172250E-1,3.184435389E0
3.525972034E0,2.082518578E0,2.412843704E0,-7.507691979E-1,3.274500383E0
3.530769586E0,1.827137470E0,2.885591030E0,-8.265832067E-1,3.514015755E0
3.535567086E0,1.524687767E0,3.367324352E0,-7.098995447E-1,3.763974421E0
3.540364638E0,1.137405396E0,3.877277374E0,-4.676302671E-1,4.067634317E0
3.545162190E0,8.448717594E-1,3.920840263E0,-3.793434203E-1,4.028734056E0
3.549959742E0,7.442355156E-1,3.495998383E0,-3.804647326E-1,3.594529817E0
3.554757294E0,7.580883503E-1,3.102566719E0,-5.611895919E-1,3.242769179E0
3.559554846E0,7.428555489E-1,2.876681805E0,-8.255143762E-1,3.083602853E0
3.564352346E0,5.835530758E-1,2.679408073E0,-9.889187813E-1,2.915085277E0
3.569149898E0,6.017932892E-1,2.608304024E0,-9.120030403E-1,2.827924078E0
3.573947450E0,3.573725224E-1,2.223438740E0,-1.222909451E0,2.562596822E0
3.578745002E0,9.391736984E-2,1.790349483E0,-1.390190840E0,2.268656500E0
3.583542554E0,-1.774957180E-1,1.492850780E0,-1.365388274E0,2.030860242E0
3.588340054E0,-5.361375809E-1,1.533772945E0,-1.193723917E0,2.016154692E0
3.593137607E0,-1.155681372E0,1.587883949E0,-1.232138753E0,2.318434984E0
3.597935159E0,-1.710026145E0,1.495262623E0,-1.056527615E0,2.505244565E0
3.602732711E0,-2.155392170E0,1.215690613E0,-8.599699736E-1,2.619764766E0
3.607530263E0,-2.436055660E0,9.957551956E-1,-6.990028620E-1,2.722958059E0
3.612327763E0,-2.586802244E0,8.237419128E-1,-7.491131425E-1,2.816250537E0
3.617125315E0,-2.510196924E0,4.109821320E-1,-1.084820986E0,2.765290488E0
3.621922867E0,-2.236996412E0,3.058929443E-1,-1.239439845E0,2.575642555E0
3.626720419E0,-1.767008662E0,3.583936691E-1,-1.056145191E0,2.089547391E0
3.631517971E0,-1.025209546E0,8.121299744E-2,-4.608199000E-1,1.126945050E0
3.636315523E0,-5.748536587E-1,3.193378448E-2,-1.281038523E-1,5.898195423E-1
3.641113023E0,-1.451835632E-1,-3.583383560E-1,-1.469624043E-2,3.869116487E-1
3.645910575E0,2.795808315E-1,-8.408603668E-1,-1.681635976E-1,9.019371338E-1
3.650708127E0,6.576464176E-1,-1.673860550E0,-8.008500338E-1,1.968671818E0
3.655505679E0,1.075737238E0,-2.326766014E0,-1.551310658E0,2.996266919E0
3.660303232E0,1.574840546E0,-3.314007759E0,-2.500572205E0,4.440228769E0
3.665100732E0,2.155557156E0,-4.630817413E0,-3.482520103E0,6.182139018E0
3.669898284E0,2.687656641E0,-5.854140282E0,-4.523014545E0,7.870966728E0
3.674695836E0,3.189722538E0,-6.690698624E0,-4.721616745E0,8.788255949E0
3.679493388E0,3.571063995E0,-7.217895508E0,-4.372548580E0,9.163497951E0
3.684290940E0,3.701702118E0,-6.461073875E0,-3.492105722E0,8.224528957E0
3.689088492E0,3.099633217E0,-4.680022240E0,-9.943488836E-1,5.700795027E0
3.693885992E0,1.536186934E0,-6.097358704E0,4.672268391E0,7.833756785E0
3.698683544E0,-2.036759853E-1,-9.095354080E0,8.346031189E0,1.234597855E1
3.703481096E0,-8.922160268E-1,-8.689280510E0,4.311206818E0,9.740952184E0
3.708278648E0,-1.253600359E0,-7.960982323E0,-1.055473447E0,8.127901180E0
3.713076200E0,-1.396437168E0,-8.553514481E0,-6.951352596E0,1.111008324E1
3.717873700E0,-1.871484637E0,-7.823877335E0,-7.041746140E0,1.069119731E1
3.722671252E0,-3.974403620E0,-6.223329544E0,-4.584085464E0,8.691349394E0
3.727468804E0,-7.392541885E0,-3.861812592E0,-3.207803011E0,8.936065811E0
3.732266357E0,-9.653198242E0,-1.814867020E0,-2.264149427E0,1.007989837E1
3.737063909E0,-1.022359943E1,-4.384756088E-1,-1.005464911E0,1.028227630E1
3.741861409E0,-1.044741440E1,3.074760437E-1,7.967519760E-2,1.045224173E1
3.746658961E0,-1.030699062E1,3.473501205E-1,3.013527393E-1,1.031724388E1
3.751456513E0,-9.405415535E0,-1.253843307E-1,2.089023590E-3,9.406251484E0
3.756254065E0,-8.658176422E0,-2.393236160E-1,-2.297935486E-1,8.664531137E0
3.761051617E0,-7.922647953E0,-4.908628464E-1,-3.363448381E-1,7.944962226E0
3.765849117E0,-6.492210388E0,-8.760433197E-1,7.068665028E-1,6.589074888E0
3.770646669E0,-4.842549801E0,-1.091553688E0,2.223688126E0,5.439353538E0
3.775444221E0,-3.158744812E0,-9.345169067E-1,3.432440758E0,4.757377449E0
3.780241773E0,-1.493898034E0,-5.534982681E-1,4.201960564E0,4.493836251E0
3.785039325E0,-2.523314953E-2,5.129623413E-2,4.489706039E0,4.490069970E0
3.789836877E0,1.253758907E0,4.660997391E-1,4.566746712E0,4.758606508E0
3.794634377E0,2.389955997E0,1.156947136E0,4.432233810E0,5.166731355E0
3.799431929E0,3.294079065E0,1.838814735E0,3.952074051E0,5.463614721E0
3.804229482E0,3.836580276E0,2.195776939E0,3.215876579E0,5.466502242E0
3.809027034E0,3.972534180E0,2.638895988E0,2.250678778E0,5.273552390E0
3.813824586E0,3.786929846E0,3.050766945E0,1.318898559E0,5.038601990E0
3.818622086E0,3.398368835E0,3.240150928E0,6.053030491E-1,4.734330001E0
3.823419638E0,2.951647282E0,3.135620117E0,5.230164528E-2,4.306631010E0
3.828217190E0,2.536250114E0,3.029251099E0,-3.462836742E-1,3.965960066E0
3.833014742E0,2.210531712E0,2.916580200E0,-6.334064007E-1,3.714040143E0
3.837812294E0,1.954053402E0,2.798072338E0,-8.763548136E-1,3.523567974E0
3.842609846E0,1.720365763E0,2.671869755E0,-1.084866166E0,3.357898292E0
3.847407346E0,1.625419855E0,2.512396336E0,-1.166493297E0,3.211671164E0
3.852204898E0,1.713159561E0,2.313122749E0,-1.102110147E0,3.082223112E0
3.857002450E0,1.705263972E0,2.215800285E0,-9.299885035E-1,2.946620901E0
3.861800002E0,1.874878645E0,1.802555561E0,-6.158250570E-1,2.672754569E0
3.866597554E0,2.016972542E0,1.394416809E0,-1.559653282E-1,2.457010715E0
3.871395054E0,2.120139360E0,9.532489777E-1,2.560564280E-1,2.338640506E0
3.876192607E0,2.057808876E0,4.191989899E-1,5.639551878E-1,2.174477091E0
3.880990159E0,1.897095323E0,-6.448459625E-2,9.341214895E-1,2.115587834E0
3.885787711E0,1.690274715E0,-5.508995056E-1,1.275225639E0,2.187857242E0
3.890585263E0,1.377335429E0,-8.300905228E-1,1.435802698E0,2.155836856E0
3.895382763E0,1.097329140E0,-8.285264969E-1,1.508395433E0,2.041039975E0
3.900180315E0,8.099553585E-1,-6.351613998E-1,1.503663778E0,1.822213611E0
3.904977867E0,4.841815233E-1,-2.839126587E-1,1.327076197E0,1.440891869E0
3.909775419E0,6.516182423E-2,1.722259521E-1,2.358764887E0,2.365941596E0
3.914572971E0,2.050421238E-1,1.880559921E-1,-7.792663574E-2,2.889288654E-1
3.919370523E0,1.924441457E-1,3.519897461E-1,8.403253555E-2,4.098694885E-1
3.924168023E0,1.610471010E-1,6.853847504E-1,1.476953030E-1,7.193763461E-1
3.928965575E0,1.271535754E-1,8.989000320E-1,2.910995483E-2,9.083153025E-1
3.933763127E0,-5.507385731E-2,1.174439430E0,2.583886385E-1,1.203788102E0
3.938560679E0,-2.585564852E-1,1.411636353E0,4.978078604E-1,1.519006687E0
3.943358232E0,-4.998645782E-1,1.586693764E0,1.698264837E0,2.377302075E0
3.948155784E0,-3.908918202E-1,1.639843941E0,9.188504219E-1,1.919940276E0
3.952953284E0,-5.988197923E-1,1.724091530E0,1.862002015E0,2.607322046E0
3.957750836E0,-9.541515708E-1,1.793755054E0,2.499958515E0,3.221452311E0
3.962548388E0,-3.530627191E-1,1.709983349E0,2.638327360E0,3.163774264E0
3.967345940E0,-8.438301086E-2,1.869448185E0,3.113312244E0,3.632446853E0
3.972143492E0,-1.612659693E-1,1.829231739E0,3.243052959E0,3.726860336E0
3.976940992E0,9.353826046E-1,2.046235085E0,1.301124096E0,2.599027232E0
3.981738544E0,2.048076153E0,1.074887276E0,1.574628353E-1,2.318360008E0
3.986536096E0,2.177787781E0,8.337030411E-1,7.659310102E-1,2.454479719E0
3.991333648E0,2.363839149E0,1.075801849E0,1.766283512E0,3.140834696E0
3.996131200E0,2.713098526E0,9.280376434E-1,1.619013667E0,3.292926166E0
4.000928752E0,2.185715437E0,1.342003822E0,1.230407357E0,2.844684252E0
4.005726252E0,1.864210486E0,1.984989166E0,1.472430587E0,3.095725208E0
4.010523804E0,1.574400783E0,1.566340446E0,1.291965604E0,2.569306393E0
4.015321357E0,1.094950676E0,1.521375656E0,1.212542772E0,2.232433839E0
4.020118909E0,5.779070258E-1,1.641643524E0,1.359021902E0,2.208146399E0
4.024916461E0,5.509644747E-2,1.788215637E0,1.390109301E0,2.265646630E0
4.029713961E0,-4.591669440E-1,1.965671062E0,1.139425039E0,2.317970325E0
4.034511513E0,-9.891041517E-1,2.176167965E0,8.040734529E-1,2.522016684E0
4.039309065E0,-1.424689054E0,2.472100735E0,6.406514645E-1,2.924287134E0
4.044106617E0,-1.761384726E0,2.712222099E0,6.902503371E-1,3.306821797E0
4.048904169E0,-2.171480179E0,2.760240555E0,7.884438634E-1,3.599430207E0
4.053701721E0,-2.440025806E0,2.922332764E0,6.407054067E-1,3.860603338E0
4.058499221E0,-2.846831083E0,3.079001427E0,4.732221961E-1,4.220027992E0
4.063296773E0,-3.293684006E0,3.137292385E0,1.836837530E-1,4.552438639E0
4.068094325E0,-3.737714291E0,3.386751175E0,-1.132175922E-1,5.045137249E0
4.072891877E0,-4.119246960E0,3.153415680E0,-1.690332890E-1,5.190452602E0
4.077689429E0,-4.308159828E0,2.925662041E0,-5.305492878E-2,5.207931865E0
4.082486982E0,-4.118196487E0,2.751585484E0,9.681785107E-2,4.953800428E0
4.087284482E0,-3.991094828E0,3.145200729E0,4.115730524E-1,5.098089635E0
4.092082034E0,-3.269486427E0,2.856049061E0,6.135410666E-1,4.384403081E0
4.096879586E0,-2.428004742E0,2.257740021E0,8.082149625E-1,3.412595559E0
4.101677138E0,-1.604273558E0,1.410194397E0,9.700073004E-1,2.345901969E0
4.106474690E0,-8.029479980E-1,5.259609222E-1,1.057824850E0,1.428409533E0
4.111272242E0,-2.952218056E-3,-2.401046753E-1,1.377849340E0,1.398616379E0
4.116069742E0,5.872641802E-1,-7.022018433E-1,1.218387365E0,1.523953549E0
4.120867294E0,1.308493614E0,-1.401205063E0,9.727892876E-1,2.149848870E0
4.125664846E0,2.128618956E0,-2.322649002E0,5.642210841E-1,3.200634699E0
4.130462398E0,2.882450581E0,-3.430376053E0,2.998161316E-1,4.490644823E0
4.135259950E0,3.562295437E0,-4.733713150E0,-4.460607469E-1,5.941124402E0
4.140057450E0,4.534987926E0,-6.478568077E0,-1.606363416E0,8.069594987E0
4.144855002E0,5.655071735E0,-8.116998672E0,-2.539258480E0,1.021339010E1
4.149652554E0,6.697325230E0,-9.512791634E0,-3.036437035E0,1.202361509E1
4.154450107E0,7.658099174E0,-1.050359344E1,-2.872847557E0,1.331259596E1
4.159247659E0,8.505321503E0,-1.065965366E1,-2.299218893E0,1.382950171E1
4.164045211E0,9.032731056E0,-1.019243431E1,-2.046259403E0,1.377182359E1
4.168842711E0,9.095312119E0,-8.947418213E0,-1.163509369E0,1.281150847E1
4.173640263E0,9.225400925E0,-7.499143600E0,-5.267914534E-1,1.190053302E1
4.178437815E0,8.380500793E0,-6.010434151E0,-2.465365529E-1,1.031595330E1
4.183235367E0,6.897641182E0,-4.538710594E0,-2.018578053E-1,8.259424575E0
4.188032919E0,5.161882877E0,-2.885617256E0,-4.289543629E-2,5.913853381E0
4.192830471E0,3.925996542E0,-1.799886703E0,4.089124203E-1,4.338231248E0
4.197628023E0,2.903927326E0,-1.396260262E0,8.769564629E-1,3.339369592E0
4.202425523E0,1.993529677E0,-1.325383186E0,1.236372709E0,2.694330834E0
4.207223075E0,1.250154614E0,-1.051555634E0,1.204987645E0,2.029938678E0
4.212020627E0,7.013040781E-1,-9.833879471E-1,1.276352167E0,1.757257556E0
4.216818179E0,4.320178032E-1,-7.018508911E-1,1.274988770E0,1.518166796E0
4.221615732E0,2.742531300E-1,-3.336906433E-3,1.066051722E0,1.100768907E0
4.226413232E0,4.830665588E-1,1.024137497E0,5.585088134E-1,1.262593762E0
4.231210784E0,8.230440617E-1,2.013076305E0,-2.122943997E-1,2.185165131E0
4.236008336E0,1.399338722E0,2.745061398E0,-5.641688108E-1,3.132378870E0
4.240805888E0,2.025266409E0,2.724268436E0,-5.606790185E-1,3.440596388E0
4.245603440E0,2.583145142E0,2.439354420E0,-4.159879088E-1,3.577168538E0
4.250400992E0,2.842816114E0,1.966475487E0,-6.149592996E-1,3.510954890E0
4.255198492E0,2.944111109E0,1.331281662E0,-4.825684428E-1,3.266951696E0
4.259996044E0,3.001871109E0,7.009201050E-1,-1.124912500E-1,3.084667475E0
4.264793596E0,2.657188892E0,8.569850922E-1,2.868776321E-1,2.806666178E0
4.269591148E0,2.468345881E0,3.355054855E-1,-2.334680557E-1,2.501959762E0
4.274388700E0,2.371305943E0,5.665206909E-2,-4.413403273E-1,2.412691985E0
4.279186252E0,2.334115982E0,2.914237976E-2,-5.635419488E-1,2.401359245E0
4.283983804E0,2.201114893E0,1.687335968E-1,-7.370706201E-1,2.327369953E0
4.288781304E0,2.040060282E0,1.476678848E-1,-2.931108475E-1,2.066292749E0
4.293578857E0,1.757641196E0,1.142702103E-1,4.766997099E-1,1.824719943E0
4.298376409E0,1.625145674E0,1.641664505E-1,9.089628458E-1,1.869294664E0
4.303173961E0,1.211810112E0,4.504318237E-1,9.456485510E-1,1.601756460E0
4.307971513E0,8.472907543E-1,8.104295731E-1,7.936146259E-1,1.415811389E0
4.312769013E0,6.196527481E-1,1.155790329E0,6.829874516E-1,1.478611738E0
4.317566565E0,3.727519512E-1,1.381435394E0,5.948771238E-1,1.549576251E0
4.322364117E0,2.320120335E-1,1.657323360E0,1.075264931E0,1.989156851E0
4.327161669E0,2.463140488E-1,1.727377892E0,1.355231524E0,2.209334170E0
4.331959221E0,3.983244896E-1,1.890265465E0,1.129832506E0,2.237920333E0
4.336756773E0,4.345351458E-1,2.129266262E0,1.303244829E0,2.533977642E0
4.341554273E0,4.372520447E-1,2.320126534E0,1.506474495E0,2.800650261E0
4.346351825E0,6.428424120E-1,2.402867794E0,8.641104698E-1,2.633193291E0
4.351149377E0,1.212942600E0,2.071345806E0,-6.616793871E-1,2.489884096E0
4.355946929E0,1.273191690E0,2.690974712E0,4.966752529E-1,3.018119993E0
4.360744482E0,1.612429380E0,3.089575768E0,5.563404560E-1,3.529153104E0
4.365542034E0,1.958481312E0,2.858462811E0,1.982018948E-1,3.470697722E0
4.370339534E0,2.128363609E0,2.067510605E0,2.856473923E-1,2.980960615E0
4.375137086E0,2.115138292E0,9.849309921E-1,6.303670406E-1,2.416870220E0
4.379934638E0,1.784115314E0,3.688373566E-1,8.296675682E-1,2.001863313E0
4.384732190E0,1.389462113E0,3.771572113E-1,1.276239872E0,1.923964848E0
4.389529742E0,1.089819908E0,6.729993820E-1,1.559225082E0,2.017874738E0
4.394327242E0,9.717196226E-1,1.022212982E0,1.687129498E0,2.198991666E0
4.399124794E0,9.603682756E-1,1.180962563E0,1.535951614E0,2.162435470E0
4.403922346E0,7.449607849E-1,1.180480957E0,1.516630650E0,2.061230309E0
4.408719898E0,3.498754501E-1,1.028101921E0,1.468529224E0,1.826467759E0
4.413517450E0,-2.380895615E-2,7.692022324E-1,1.548420668E0,1.729116973E0
4.418315002E0,-2.768988609E-1,7.022943497E-1,8.125097752E-1,1.109081813E0
4.423112554E0,-2.962758541E-1,1.020730019E0,1.149346828E0,1.565460726E0
4.427910054E0,-1.340222359E-1,1.403891563E0,1.522794247E0,2.075518200E0
4.432707607E0,2.905941010E-2,1.550243378E0,9.344513416E-1,1.810330989E0
4.437505159E0,3.659379482E-2,1.787047863E0,4.215970039E-1,1.836470311E0
4.442302711E0,3.949096203E-1,1.255901337E0,1.019088268E0,1.664867164E0
4.447100263E0,6.793946028E-1,7.773008347E-1,1.293909788E0,1.655287333E0
4.451897815E0,8.331042528E-1,7.240486145E-1,1.382708073E0,1.769234497E0
4.456695315E0,1.021964550E0,7.588443756E-1,1.362546444E0,1.864615011E0
4.461492867E0,1.251279831E0,6.545333862E-1,1.044468403E0,1.756425180E0
4.466290419E0,1.357710242E0,4.781303406E-1,9.403479099E-1,1.719371954E0
4.471087971E0,1.400286555E0,4.280071259E-1,1.124118328E0,1.845977939E0
4.475885523E0,1.419237256E0,4.011526108E-1,1.248743773E0,1.932490314E0
4.480683023E0,1.469731927E0,4.931230545E-1,1.405025959E0,2.092218973E0
4.485480575E0,1.566542029E0,6.295881271E-1,1.432263613E0,2.214004109E0
4.490278127E0,1.676286697E0,8.627967834E-1,1.300930023E0,2.290583835E0
4.495075679E0,1.950502038E0,1.292943954E0,1.352445126E0,2.702826315E0
4.499873232E0,2.437482357E0,1.336522102E0,1.473590374E0,3.146280369E0
4.504670784E0,2.554679394E0,1.065487862E0,1.757477045E0,3.278776716E0
4.509468284E0,2.453988552E0,7.046318054E-1,1.983946323E0,3.233358750E0
4.514265836E0,2.312345505E0,6.052036285E-1,1.980704069E0,3.104255430E0
4.519063388E0,2.199471474E0,9.008359909E-1,2.035380840E0,3.129210030E0
4.523860940E0,2.041307211E0,1.254230499E0,2.103250742E0,3.188054729E0
4.528658492E0,1.728279710E0,1.753997326E0,1.915197372E0,3.119525340E0
4.533456044E0,1.456945539E0,2.029728413E0,1.899979115E0,3.138854627E0
4.538253596E0,1.365976453E0,1.771138668E0,1.840350628E0,2.896500351E0
4.543051096E0,1.082522154E0,1.643441677E0,1.689128637E0,2.593436005E0
4.547848648E0,7.409230471E-1,1.759444237E0,1.596480608E0,2.488646483E0
4.552646200E0,4.108558893E-1,1.854335308E0,1.155714989E0,2.223294657E0
4.557443752E0,1.934378147E-1,1.816860676E0,2.693984509E-1,1.846882895E0
4.562241304E0,2.503836155E-2,1.650956154E0,-7.408769131E-1,1.809746320E0
4.567038804E0,-2.251752019E-1,1.014149666E0,-1.610945821E0,1.916859372E0
4.571836357E0,-6.704333425E-1,-5.581474304E-1,-2.106892109E0,2.280351679E0
4.576633909E0,-1.317257524E0,-2.701245308E0,-2.225568056E0,3.739658643E0
4.581431461E0,-2.199810982E0,-4.145536423E0,-2.039016247E0,5.116857223E0
4.586229013E0,-3.057960510E0,-4.478729248E0,-2.392261982E0,5.927314362E0
4.591026565E0,-3.503411770E0,-4.116155624E0,-3.086040497E0,6.224168788E0
4.595824065E0,-3.562344074E0,-3.578173637E0,-3.260262251E0,6.010235588E0
4.600621617E0,-3.464561701E0,-3.370882988E0,-2.759711027E0,5.566151709E0
4.605419169E0,-3.197059631E0,-3.032148361E0,-1.874612927E0,4.788453571E0
4.610216721E0,-2.481101751E0,-3.173181534E0,-1.579609752E0,4.326674695E0
4.615014273E0,-1.957268238E0,-2.699270248E0,-1.756560802E-1,3.338834211E0
4.619811825E0,-9.809631109E-1,-2.077228546E0,1.194925308E-1,2.300314223E0
4.624609325E0,1.036311388E-1,-1.730394363E0,3.987836838E-2,1.733953388E0
4.629406877E0,1.077827454E0,-1.998200417E0,-8.791661263E-2,2.272057714E0
4.634204429E0,1.958555818E0,-1.971557617E0,3.635251522E-1,2.802700638E0
4.639001982E0,2.570591450E0,-1.604618073E0,7.295699120E-1,3.116891371E0
4.643799534E0,2.854565620E0,-1.418241501E0,4.337375164E-1,3.216843495E0
4.648597086E0,2.709565878E0,-1.521991730E0,2.639088631E-1,3.118950779E0
4.653394638E0,2.113726139E0,-1.573423386E0,2.190341949E-1,2.644139807E0
4.658192138E0,1.304874659E0,-1.130313873E0,-2.264451981E-1,1.741144668E0
4.662989690E0,4.350878000E-1,-3.794164658E-1,-5.051393509E-1,7.670880080E-1
4.667787242E0,-5.956524611E-1,1.631021500E-1,6.769156456E-2,6.212779681E-1
4.672584794E0,-1.707015991E0,1.634216309E-1,-4.529502392E-1,1.773633035E0
4.677382346E0,-2.880887747E0,-7.289152145E-1,-1.405857921E0,3.287440964E0
4.682179846E0,-4.056633949E0,-1.676077843E0,-1.293549538E0,4.575891863E0
4.686977398E0,-5.035619259E0,-2.570567131E0,-6.229647398E-1,5.688001561E0
4.691774950E0,-5.957380295E0,-3.288935661E0,6.818377972E-1,6.839033597E0
4.696572502E0,-6.299366951E0,-3.633531570E0,1.711698294E0,7.470909363E0
4.701370054E0,-6.007972717E0,-3.509666443E0,2.233691216E0,7.307726812E0
4.706167607E0,-5.269474983E0,-2.951756477E0,2.118632555E0,6.400690338E0
4.710965107E0,-4.164121151E0,-2.276091576E0,1.916239977E0,5.117858289E0
4.715762659E0,-2.719497442E0,-1.925170898E0,1.869905710E0,3.820797913E0
4.720560211E0,-1.410063267E0,-1.385171890E0,2.016472101E0,2.823674789E0
4.725357763E0,-3.389734030E-1,-6.661148071E-1,2.355174780E0,2.470922934E0
4.730155315E0,4.331462383E-1,-2.727422714E-1,2.436021805E0,2.489217998E0
4.734952867E0,8.738992810E-1,1.464872360E-1,2.620328665E0,2.766094860E0
4.739750419E0,1.050442219E0,6.297550201E-1,2.665085554E0,2.933036183E0
4.744547919E0,1.148649335E0,9.595222473E-1,2.416154385E0,2.842161193E0
4.749345471E0,1.216382265E0,1.226926804E0,2.075698614E0,2.700640652E0
4.754143023E0,1.361194611E0,1.386748314E0,1.935713768E0,2.742792272E0
4.758940575E0,1.210638046E0,1.900976658E0,5.332698822E-1,2.315973553E0
4.763738127E0,1.168842077E0,2.306572437E0,-1.569995880E-1,2.590582383E0
4.768535679E0,1.266929030E0,2.535014153E0,-3.489401340E-1,2.855374781E0
4.773333179E0,1.208533168E0,2.161593437E0,-3.835525513E-1,2.506022978E0
4.778130732E0,9.151358604E-1,1.887522697E0,-8.651335239E-1,2.269068441E0
4.782928284E0,7.463181019E-1,1.913543701E0,-1.068943381E0,2.315443836E0
4.787725836E0,6.551593542E-1,1.711254597E0,-1.004761100E0,2.089777725E0
4.792523388E0,5.517334938E-1,1.398191452E0,-8.853636980E-1,1.744482176E0
4.797320940E0,4.941902757E-1,8.642835617E-1,-1.154113173E0,1.524200551E0
4.802118440E0,3.323422074E-1,3.631200790E-1,-1.079384327E0,1.186329659E0
4.806915992E0,7.706004381E-2,2.559919357E-1,-8.274517059E-1,8.695668158E-1
4.811713544E0,-1.190442294E-1,5.268669128E-2,-8.497848511E-1,8.596986153E-1
4.816511096E0,2.352001667E-1,-6.249284744E-1,-6.301856041E-1,9.181441130E-1
4.821308648E0,-9.405244589E-1,-7.453794479E-1,-1.898453832E0,2.245952744E0
4.826106200E0,-9.314776659E-1,-6.891441345E-1,-1.454061866E0,1.859264960E0
4.830903700E0,-9.016758800E-1,-1.023225784E0,-2.776899338E-1,1.391805337E0
4.835701252E0,-1.382327795E0,-1.090633392E0,-4.232299328E-1,1.810921010E0
4.840498804E0,-1.563792467E0,-5.268316269E-1,-4.339849949E-1,1.706265343E0
4.845296357E0,-1.553701520E0,2.438688278E-1,-2.354540825E-1,1.590251252E0
4.850093909E0,-1.526410818E0,8.721208572E-1,1.978604794E-1,1.769088337E0
4.854891461E0,-1.313977361E0,1.168888092E0,2.667405605E-1,1.778759793E0
4.859688961E0,-9.145943522E-1,1.174214363E0,4.507379532E-1,1.555129224E0
4.864486513E0,-2.073756903E-1,1.121489525E0,5.375945568E-1,1.260853417E0
4.869284065E0,-1.357716203E0,1.597546577E0,2.867174149E-1,2.116070705E0
4.874081617E0,-1.096027255E0,1.598303795E0,1.786446571E0,2.635762151E0
4.878879169E0,-7.201436758E-1,1.126146317E0,1.586426497E0,2.074502704E0
4.883676721E0,-7.284431458E-1,7.979106903E-1,1.580457926E0,1.914455051E0
4.888474273E0,-8.995786905E-1,7.831010818E-1,1.830537558E0,2.184801335E0
4.893271773E0,-1.086566567E0,8.304805756E-1,2.030770063E0,2.448336566E0
4.898069325E0,-1.301132679E0,6.198320389E-1,2.133528471E0,2.574700321E0
4.902866877E0,-1.474459648E0,3.953351974E-1,2.191302538E0,2.670604423E0
4.907664429E0,-1.591653585E0,1.928482056E-1,2.445048809E0,2.923835708E0
4.912461982E0,-1.844338655E0,5.263433456E-1,2.354939938E0,3.037163891E0
4.917259534E0,-1.811041594E0,1.072630882E0,2.333025932E0,3.142199654E0
4.922057086E0,-1.690926075E0,1.470914364E0,1.866514444E0,2.916624115E0
4.926854586E0,-1.285675049E0,1.776335239E0,1.919192791E0,2.914039839E0
4.931652138E0,-7.055618763E-1,1.190477371E0,1.813363314E0,2.281083173E0
4.936449690E0,-6.435021162E-1,1.229660034E0,1.884412050E0,2.340334922E0
4.941247242E0,-3.519184589E-1,1.128701210E0,1.684520483E0,2.058014160E0
4.946044794E0,-1.984758973E-1,9.553594589E-1,1.632143021E0,1.901577034E0
4.950842346E0,3.563505411E-2,8.536558151E-1,1.626152754E0,1.836946076E0
4.955639846E0,4.022763669E-1,5.534515381E-1,1.153036356E0,1.340756398E0
4.960437398E0,6.276944280E-1,6.381988525E-1,1.172093630E0,1.474822548E0
4.965234950E0,8.020011783E-1,1.157938957E0,1.091020346E0,1.781671663E0
4.970032502E0,9.406440854E-1,1.216217995E0,1.010975599E0,1.840127487E0
4.974830054E0,1.006455421E0,1.329699039E0,7.189114094E-1,1.816008168E0
4.979627607E0,7.788671255E-1,1.778076172E0,8.842771053E-1,2.133104515E0
4.984425159E0,4.004862309E-1,2.212485790E0,1.210886955E0,2.553767768E0
4.989222659E0,2.182747424E-1,1.799846172E0,1.198579311E0,2.173403431E0
4.994020211E0,2.122970074E-1,1.275895119E0,1.124649048E0,1.714005208E0
4.998817763E0,2.195758224E-1,1.381898880E0,9.394059181E-1,1.685331284E0
5.003615315E0,2.461127490E-1,1.718061924E0,7.170119286E-1,1.877874960E0
5.008412867E0,1.940845549E-1,1.896916389E0,4.499864578E-1,1.959195859E0
5.013210419E0,8.924001455E-2,1.538161278E0,-3.982353210E-2,1.541262408E0
5.018007919E0,-1.382754445E-1,9.739713669E-1,-4.120016098E-1,1.066529722E0
5.022805471E0,-4.451212883E-1,6.841468811E-1,-7.687890530E-1,1.121261131E0
5.027603023E0,-6.487686038E-1,8.066439629E-1,-1.027148247E0,1.458289651E0
5.032400575E0,-7.587558031E-1,6.692457199E-1,-1.483844995E0,1.795938800E0
5.037198127E0,-9.555851221E-1,2.815246582E-1,-1.886031866E0,2.132959273E0
5.041995679E0,-1.031028509E0,5.090408325E-1,-2.262138367E0,2.537599721E0
5.046793232E0,-9.820704460E-1,8.421430588E-1,-2.857908964E0,3.137086377E0
5.051590732E0,-8.983420134E-1,8.769254684E-1,-3.245128870E0,3.479493933E0
5.056388284E0,-7.838390470E-1,5.968570709E-1,-3.620506048E0,3.752160186E0
5.061185836E0,-7.024112344E-1,2.387704849E-1,-3.857890606E0,3.928576436E0
5.065983388E0,-6.857816577E-1,2.452297211E-1,-4.105017662E0,4.169125101E0
5.070780940E0,-6.866663694E-1,2.192974091E-1,-4.232460499E0,4.293404701E0
5.075578492E0,-8.544858098E-1,-8.764934540E-2,-4.152400970E0,4.240313930E0
5.080376044E0,-1.100596070E0,-3.696451187E-1,-4.054489136E0,4.217443702E0
5.085173544E0,-1.336069584E0,-5.237846375E-1,-3.761522293E0,4.025975936E0
5.089971096E0,-1.355155468E0,-7.101497650E-1,-3.443426847E0,3.768016386E0
5.094768648E0,-1.364138365E0,-1.103700638E0,-3.292648792E0,3.731027291E0
5.099566200E0,-1.410990238E0,-1.468172073E0,-2.985245228E0,3.613600941E0
5.104363752E0,-1.331119537E0,-1.672418594E0,-2.342814445E0,3.171378676E0
5.109161304E0,-1.227686286E0,-1.996452332E0,-1.667397022E0,2.876325496E0
5.113958857E0,-9.820689559E-1,-2.758281708E0,-1.155817509E0,3.147775647E0
5.118756357E0,-7.772629857E-1,-3.663790703E0,-7.634711266E-1,3.822353754E0
5.123553909E0,-4.286589622E-1,-3.849911690E0,-1.862235069E-1,3.878175824E0
5.128351461E0,1.034629345E-1,-3.762022018E0,3.395485878E-1,3.778730936E0
5.133149013E0,8.149853945E-1,-4.163311958E0,8.394470215E-1,4.324585409E0
5.137946565E0,1.488620758E0,-4.568422318E0,1.212533474E0,4.955472900E0
5.142744117E0,2.334814787E0,-4.876364708E0,1.646744251E0,5.651730663E0
5.147541669E0,3.314209223E0,-5.115296364E0,1.806678772E0,6.357226427E0
5.152339169E0,4.191935062E0,-5.304089546E0,1.562241077E0,6.938752241E0
5.157136721E0,4.821637154E0,-5.377935410E0,1.249435902E0,7.330174908E0
5.161934273E0,5.298210621E0,-5.230968475E0,9.776930809E-1,7.509324253E0
5.166731825E0,5.603286743E0,-5.046830177E0,8.390135765E-1,7.587572797E0
5.171529377E0,5.660661697E0,-4.882494926E0,6.929602623E-1,7.507465716E0
5.176326929E0,5.460940838E0,-4.649566650E0,4.963116646E-1,7.189344208E0
5.181124429E0,5.025626183E0,-4.238317490E0,4.519329071E-1,6.589726627E0
5.185921982E0,4.485192299E0,-3.782774925E0,3.468174934E-1,5.877637150E0
5.190719534E0,3.840158939E0,-3.431538582E0,3.641281128E-1,5.162835171E0
5.195517086E0,3.059966087E0,-3.048735619E0,5.360770226E-1,4.352649756E0
5.200314638E0,2.296820879E0,-2.297384262E0,6.665663719E-1,3.316273711E0
5.205112190E0,1.608397603E0,-1.632141113E0,5.977420807E-1,2.368147601E0
5.209909742E0,1.051688552E0,-1.433280945E0,2.765259743E-1,1.799113585E0
5.214707242E0,4.732912183E-1,-9.930419922E-1,2.525053024E-1,1.128669971E0
5.219504794E0,-2.774751186E-2,-1.154975891E-1,2.176661491E-1,2.479680826E-1
5.224302346E0,-4.246453643E-1,4.340276718E-1,8.600282669E-2,6.132700804E-1
5.229099898E0,-6.573285460E-1,7.753314972E-1,-8.993482590E-2,1.020445011E0
5.233897450E0,-8.066207170E-1,1.049295425E0,-4.087753296E-1,1.385191373E0
5.238695002E0,-9.320761561E-1,1.392084122E0,-4.404330254E-1,1.732237112E0
5.243492554E0,-1.081113935E0,1.557362080E0,-6.992604733E-1,2.020680379E0
5.248290054E0,-1.244475603E0,1.605121136E0,-6.567900181E-1,2.134597507E0
5.253087607E0,-1.383072972E0,1.813136578E0,-7.570643425E-1,2.402811169E0
5.257885159E0,-1.233520865E0,1.710481644E0,-7.894659042E-1,2.251794305E0
5.262682711E0,-1.065849066E0,1.632078171E0,-7.111654282E-1,2.074962567E0
5.267480263E0,-9.195331931E-1,1.478181839E0,-1.374153852E0,2.217850683E0
5.272277815E0,-6.102749705E-1,1.404667854E0,-1.440689802E0,2.102644627E0
5.277075315E0,-2.315316498E-1,1.273117065E0,-1.735396147E0,2.164724868E0
5.281872867E0,-1.345435381E-1,1.332164764E0,-1.658064365E0,2.131183325E0
5.286670419E0,2.059398592E-1,1.261025429E0,-1.372253656E0,1.875013721E0
5.291467971E0,4.946464896E-1,1.078760147E0,-1.206008673E0,1.691997495E0
5.296265523E0,7.379955053E-1,8.543081284E-1,-1.090882063E0,1.569873695E0
5.301063075E0,8.943881989E-1,7.499475479E-1,-9.054501057E-1,1.477224245E0
5.305860627E0,8.987339139E-1,7.868404388E-1,-1.282691956E-4,1.194504308E0
5.310658127E0,1.051680326E0,8.743638992E-1,-1.187892675E0,1.811527738E0
5.315455679E0,1.123377919E0,1.060276508E0,-8.406205177E-1,1.758637847E0
5.320253232E0,1.074928522E0,9.426040649E-1,-6.386146545E-1,1.565823243E0
5.325050784E0,8.768546581E-1,8.347816467E-1,-3.163540363E-1,1.251325044E0
5.329848336E0,7.305388451E-1,9.612493515E-1,-4.694919586E-1,1.295418859E0
5.334645888E0,4.900000393E-1,1.015610695E0,-2.781620026E-1,1.161438428E0
5.339443440E0,5.124262571E-1,1.157760143E0,-6.995542049E-1,1.446501056E0
5.344240940E0,2.671009302E-1,1.473536015E0,-3.446590900E-1,1.536698143E0
5.349038492E0,2.975105345E-1,1.668756008E0,-6.461055279E-1,1.814031832E0
5.353836044E0,1.588298678E-1,1.700498104E0,-5.326249599E-1,1.789024896E0
5.358633596E0,2.508506179E-1,1.600105762E0,-8.028700352E-1,1.807723645E0
5.363431148E0,2.557704747E-1,1.716927052E0,-6.049952507E-1,1.838280797E0
5.368228700E0,3.558800220E-1,1.811824799E0,-5.918114185E-1,1.938968913E0
5.373026200E0,3.814013898E-1,1.844277859E0,-3.877284527E-1,1.922800352E0
5.377823752E0,3.727401197E-1,1.902951241E0,-1.813416481E-1,1.947573725E0
5.382621304E0,3.198328614E-1,2.050154686E0,2.080202103E-2,2.075056630E0
5.387418857E0,1.931886077E-1,2.035031796E0,2.647550106E-1,2.061254827E0
5.392216409E0,7.756665349E-2,1.908190727E0,5.226325989E-1,1.979988200E0
5.397013961E0,-9.953534603E-2,1.913716316E0,7.688565254E-1,2.064790009E0
5.401811513E0,-2.331565619E-1,2.240489483E0,7.319006920E-1,2.368508756E0
5.406609013E0,-3.543329835E-1,2.582033157E0,6.555709839E-1,2.687418911E0
5.411406565E0,-4.918509126E-1,2.725103378E0,6.461210251E-1,2.843515100E0
5.416204117E0,-7.248218060E-1,2.748243809E0,8.501365185E-1,2.966638297E0
5.421001669E0,-8.599106669E-1,2.466719151E0,7.438526154E-1,2.716149193E0
5.425799221E0,-8.647085428E-1,2.069256783E0,6.585938931E-1,2.337368266E0
5.430596773E0,-7.563331723E-1,1.936140537E0,7.788310051E-1,2.219742729E0
5.435394325E0,-4.767909050E-1,2.098480701E0,6.918663979E-1,2.260449056E0
5.440191825E0,-1.089006066E-1,2.286006451E0,2.142100334E-1,2.298601917E0
5.444989377E0,2.259374857E-1,2.472381115E0,-4.148516655E-1,2.517105089E0
5.449786929E0,4.440968633E-1,2.399546146E0,-4.613034725E-1,2.483514571E0
5.454584482E0,6.464514136E-1,2.328268528E0,-2.559330463E-1,2.429863266E0
5.459382034E0,7.064120173E-1,2.210813999E0,2.427315712E-2,2.321057014E0
5.464179586E0,6.312992573E-1,2.094998360E0,2.380909920E-1,2.200964379E0
5.468977138E0,4.789996147E-1,2.038218975E0,4.429676533E-1,2.140092887E0
5.473774690E0,2.764085531E-1,2.007061005E0,6.558308601E-1,2.129509258E0
5.478572190E0,-5.011487007E-2,2.070942402E0,8.483204842E-1,2.238517718E0
5.483369742E0,-2.951427698E-1,2.105593204E0,1.116553068E0,2.401525089E0
5.488167294E0,-6.791288257E-1,1.864790440E0,1.474581718E0,2.472458410E0
5.492964846E0,-1.009926438E0,1.812564850E0,1.513471365E0,2.568255890E0
5.497762398E0,-1.119247437E0,2.032465458E0,1.412808418E0,2.716552648E0
5.502559950E0,-1.188091874E0,1.972257614E0,1.552791834E0,2.777143294E0
5.507357502E0,-1.230339885E0,1.723087788E0,1.466609240E0,2.575599041E0
5.512155002E0,-1.173900604E0,1.414124012E0,1.230142117E0,2.211569347E0
5.516952554E0,-1.130830526E0,1.174409866E0,1.129586935E0,1.983427049E0
5.521750107E0,-1.175191879E0,9.057731628E-1,1.156972170E0,1.881511514E0
5.526547659E0,-1.175882816E0,7.467737198E-1,1.385930777E0,1.964987406E0
5.531345211E0,-1.178692818E0,4.198608398E-1,1.612317562E0,2.040874275E0
5.536142763E0,-1.124104261E0,8.524894714E-2,1.704242229E0,2.043359819E0
5.540940263E0,-1.020112276E0,-3.789615631E-1,1.822279453E0,2.122485177E0
5.545737815E0,-7.148499489E-1,-1.034610748E0,1.946069479E0,2.317027464E0
5.550535367E0,-1.791039705E-1,-1.974483490E0,1.637666464E0,2.571500482E0
5.555332919E0,3.603317738E-1,-3.288691521E0,9.361310005E-1,3.438265865E0
5.560130471E0,1.021592617E0,-4.875677109E0,-1.422023773E-1,4.983583074E0
5.564928023E0,1.665155292E0,-6.473722458E0,-1.540008426E0,6.859551775E0
5.569725575E0,2.350102663E0,-8.232525826E0,-2.791331768E0,9.004942922E0
5.574523127E0,2.832110167E0,-1.002008152E1,-4.017941952E0,1.116094706E1
5.579320679E0,3.162388802E0,-1.137476158E1,-4.689429283E0,1.270341100E1
5.584118179E0,3.202155352E0,-1.157075214E1,-4.857031345E0,1.295094041E1
5.588915732E0,3.197168350E0,-1.054552841E1,-4.733326912E0,1.199309962E1
5.593713284E0,3.297646523E0,-8.556585312E0,-3.910664082E0,9.969098171E0
5.598510836E0,3.220784426E0,-5.753472328E0,-2.886974096E0,7.197952180E0
5.603308388E0,3.163268805E0,-3.798907280E0,-1.669043541E0,5.217630918E0
5.608105940E0,3.049388647E0,-2.494339943E0,-1.127830505E0,4.097865850E0
5.612903492E0,2.935127974E0,-1.218285561E0,-1.447462678E0,3.492040110E0
5.617700992E0,2.876159430E0,-2.412281036E-1,-1.542194843E0,3.272437776E0
5.622498544E0,2.579080582E0,5.970029831E-1,-1.350661397E0,2.971927896E0
5.627296096E0,2.216502666E0,8.875608444E-1,-1.334238291E0,2.735112455E0
5.632093648E0,1.688299417E0,9.154872894E-1,-1.369809151E0,2.358993219E0
5.636891200E0,9.853844643E-1,7.386999130E-1,-1.420062065E0,1.879690499E0
5.641688752E0,2.062447071E-1,2.407531738E-1,-1.815669298E0,1.843136992E0
5.646486304E0,-8.969944715E-1,-5.845146179E-1,-1.958834648E0,2.232328291E0
5.651283857E0,-2.122830153E0,-1.446904182E0,-1.616482139E0,3.035284842E0
5.656081357E0,-3.454213619E0,-2.137927055E0,-1.197466373E0,4.235120959E0
5.660878909E0,-4.658358574E0,-2.585539818E0,-8.697797656E-1,5.398318034E0
5.665676461E0,-5.529666901E0,-2.921224594E0,-3.497670293E-1,6.263633621E0
5.670474013E0,-6.107992649E0,-3.073614120E0,-4.736967385E-1,6.854127703E0
5.675271565E0,-6.825927258E0,-3.050547600E0,-5.333419442E-1,7.495570506E0
5.680069117E0,-6.692629337E0,-3.624408722E0,-8.358200788E-1,7.656776165E0
5.684866669E0,-6.780735493E0,-2.694019318E0,-8.748782873E-1,7.348573054E0
5.689664169E0,-6.548001289E0,-1.888865471E0,-1.037824631E0,6.893563202E0
5.694461721E0,-5.972056389E0,-6.617717743E-1,-1.354434371E0,6.159374307E0
5.699259273E0,-5.334530830E0,-6.000776291E-1,-1.215643406E0,5.504098585E0
5.704056825E0,-4.430170059E0,-2.947826385E-1,-1.583513737E0,4.713896404E0
5.708854377E0,-3.556334496E0,2.034931183E-1,-1.841771483E0,4.010118039E0
5.713651929E0,-2.864578485E0,5.908002853E-1,-1.903978109E0,3.489983885E0
5.718449482E0,-2.076354027E0,7.834081650E-1,-1.451636314E0,2.651833778E0
5.723247034E0,-1.624345779E0,7.549257278E-1,-1.194362879E0,2.152885216E0
5.728044586E0,-1.769144177E0,1.272392273E-1,4.500064254E-2,1.774284644E0
5.732842086E0,-1.932971001E0,6.025218964E-1,5.964912176E-1,2.110737146E0
5.737639638E0,-1.858641744E0,1.276336670E0,6.130139232E-1,2.336529584E0
5.742437190E0,-1.642554522E0,1.854824543E0,4.163126051E-1,2.512304844E0
5.747234742E0,-1.364423752E0,2.563056946E0,6.166545749E-1,2.968362503E0
5.752032294E0,-1.104652286E0,2.925485611E0,5.335630178E-1,3.172288169E0
5.756829846E0,-9.104853272E-1,3.176846504E0,2.003528476E-1,3.310812363E0
5.761627398E0,-8.671478033E-1,3.257661819E0,-7.018446922E-2,3.371829133E0
5.766424950E0,-9.043315053E-1,3.369038582E0,1.968191266E-1,3.493848051E0
5.771222450E0,-9.663350582E-1,3.532564163E0,5.844569206E-1,3.708692883E0
5.776020002E0,-1.062362909E0,3.583312035E0,8.466517329E-1,3.832174219E0
5.780817554E0,-1.171011209E0,3.358841419E0,7.812542319E-1,3.641900755E0
5.785615107E0,-1.304105043E0,3.237037182E0,6.952566504E-1,3.558438069E0
5.790412659E0,-1.310572982E0,3.236887455E0,5.748082995E-1,3.539130757E0
5.795210211E0,-1.419334173E0,3.021272182E0,3.535450101E-1,3.356722981E0
5.800007763E0,-1.483590364E0,2.741181374E0,2.003653646E-1,3.123341475E0
5.804805315E0,-1.488614559E0,2.353923798E0,2.183460593E-1,2.793672413E0
5.809602867E0,-1.482208133E0,1.800190926E0,4.191339016E-1,2.369240711E0
5.814400367E0,-1.319291353E0,1.054232597E0,5.557844043E-1,1.777872984E0
5.819197919E0,-9.366968274E-1,1.547994614E-1,5.398220420E-1,1.092140859E0
5.823995471E0,-5.221226215E-1,-4.078321457E-1,2.170130014E-1,6.971611964E-1
5.828793023E0,-1.486421227E-1,-9.256772995E-1,1.157444715E-1,9.446532306E-1
5.833590575E0,-7.254713774E-2,-1.281894684E0,-4.701936245E-1,1.367332846E0
5.838388127E0,-4.387710392E-1,-1.532018661E0,-8.557530642E-1,1.808843418E0
5.843185679E0,-1.013245821E0,-1.423185349E0,-1.202217102E0,2.120719121E0
5.847983232E0,-1.455163956E0,-1.362235069E0,-1.988219857E0,2.815351616E0
5.852780784E0,-2.065324545E0,-1.299126625E0,-2.047334671E0,3.185101995E0
5.857578284E0,-2.212304592E0,-1.542498589E0,-1.047673702E0,2.893304977E0
5.862375836E0,-2.329155922E0,-1.604592323E0,-5.068384409E-1,2.873424618E0
5.867173388E0,-2.454222679E0,-1.270461082E0,-3.128256798E-1,2.781212007E0
5.871970940E0,-2.317754030E0,-1.032781601E0,9.508049488E-2,2.539224661E0
5.876768492E0,-1.920071721E0,-6.451873779E-1,6.966196895E-1,2.142013342E0
5.881566044E0,-1.443119287E0,-3.538522720E-1,1.272671342E0,1.956399001E0
5.886363596E0,-1.006469846E0,-7.724380493E-2,1.798086643E0,2.062053281E0
5.891161148E0,-6.056752205E-1,1.632108688E-1,2.231594563E0,2.318079928E0
5.895958700E0,-2.677008808E-1,3.078031540E-1,2.537131786E0,2.569716763E0
5.900756200E0,7.165402174E-2,6.100530624E-1,2.855106354E0,2.920433415E0
5.905553752E0,3.908403516E-1,9.933691025E-1,3.237571001E0,3.409018090E0
5.910351304E0,7.300092578E-1,1.407490730E0,3.535890579E0,3.875108497E0
5.915148857E0,1.014488220E0,1.740054607E0,3.699820518E0,4.212558398E0
5.919946409E0,1.325425148E0,2.084355354E0,3.882560730E0,4.601691742E0
5.924743961E0,1.605489016E0,2.349607468E0,3.806636333E0,4.752760293E0
5.929541513E0,1.828434944E0,2.583714962E0,3.553610325E0,4.758876305E0
5.934339065E0,2.108998299E0,2.726944923E0,3.099963427E0,4.636148799E0
5.939136565E0,2.375230789E0,2.738709927E0,2.790553093E0,4.574870482E0
5.943934117E0,2.581663370E0,2.671621323E0,2.387103796E0,4.415972235E0
5.948731669E0,2.551604986E0,2.645170212E0,1.727986217E0,4.061225162E0
5.953529221E0,2.483624458E0,2.511000156E0,1.251806259E0,3.747069675E0
5.958326773E0,2.427778244E0,2.302603722E0,8.872939348E-1,3.461702129E0
5.963124325E0,2.254512787E0,1.969814777E0,6.345788836E-1,3.060341243E0
5.967921877E0,1.830347180E0,1.529561043E0,5.099849105E-1,2.439223728E0
5.972719429E0,1.297690034E0,1.235440254E0,6.681501269E-1,1.912259563E0
5.977516982E0,8.609480858E-1,9.822597504E-1,9.242024422E-1,1.600067492E0
5.982314534E0,5.135429502E-1,6.887435913E-1,9.698848724E-1,1.295673864E0
5.987112086E0,2.412912250E-1,3.956260681E-1,1.051361442E0,1.148957058E0
5.991909586E0,1.613491774E-2,1.674718857E-1,1.283423662E0,1.294404676E0
5.996707138E0,-2.974187136E-1,4.011249542E-2,1.857079029E0,1.881172354E0
6.001504690E0,-4.001531601E-1,-7.726097107E-2,1.882132292E0,1.925750184E0
6.006302242E0,-4.645545185E-1,-3.613348007E-1,1.957707167E0,2.044258078E0
6.011099794E0,-4.689788818E-1,-5.225868225E-1,2.144878387E0,2.256887564E0
6.015897346E0,-6.498522758E-1,-5.681619644E-1,2.325090408E0,2.480153504E0
6.020694898E0,-7.274572253E-1,-5.816860199E-1,2.176585674E0,2.367504559E0
6.025492450E0,-8.339130282E-1,-6.611032486E-1,1.748663902E0,2.047020734E0
6.030290002E0,-8.212028742E-1,-5.888004303E-1,1.210269928E0,1.576646253E0
6.035087502E0,-6.939921379E-1,-4.198770523E-1,4.218074083E-1,9.142446698E-1
6.039885054E0,-4.852123260E-1,-1.878671646E-1,-4.550284147E-1,6.912133760E-1
6.044682607E0,-2.892654836E-1,1.979808807E-1,-1.363786817E0,1.408114140E0
6.049480159E0,-3.288203478E-2,6.657638550E-1,-2.229227543E0,2.326752711E0
6.054277711E0,1.916043162E-1,1.119587898E0,-3.243436337E0,3.436578028E0
6.059075263E0,3.267166615E-1,1.181464195E0,-4.282162666E0,4.454157442E0
6.063872815E0,2.657509446E-1,8.392906189E-1,-5.012207508E0,5.088934703E0
6.068670367E0,-7.994651794E-3,2.171163559E-1,-5.723622322E0,5.727744400E0
6.073467867E0,-4.249258637E-1,-4.559335709E-1,-6.478130341E0,6.508041957E0
6.078265419E0,-9.147186279E-1,-1.273444176E0,-6.959755898E0,7.134183372E0
6.083062971E0,-1.507006407E0,-2.192481041E0,-7.359123707E0,7.825263137E0
6.087860523E0,-1.877954245E0,-3.578639030E0,-7.453495979E0,8.478677478E0
6.092658075E0,-2.299100876E0,-5.070361137E0,-7.344782829E0,9.216304124E0
6.097455627E0,-2.919002533E0,-6.454484940E0,-7.418781281E0,1.025764434E1
6.102253179E0,-3.784687996E0,-7.491628647E0,-7.382116318E0,1.117783540E1
6.107050732E0,-4.548481941E0,-8.102726936E0,-6.844527245E0,1.154081561E1
6.111848284E0,-5.247920990E0,-8.192089081E0,-5.686990738E0,1.126911096E1
6.116645836E0,-5.729416847E0,-7.922351837E0,-4.164742947E0,1.062708614E1
6.121443388E0,-5.970809460E0,-7.537382126E0,-2.775618076E0,1.000833406E1
6.126240940E0,-5.797520638E0,-7.144712448E0,-1.723820806E0,9.361074707E0
6.131038440E0,-5.081526279E0,-7.014397621E0,-9.939547777E-1,8.718464854E0
6.135835992E0,-3.967264414E0,-6.873791695E0,-6.835702062E-1,7.965894012E0
6.140633544E0,-2.517429829E0,-6.837893486E0,-5.761139393E-1,7.309319225E0
6.145431096E0,-1.210080981E0,-6.655964851E0,-4.655198455E-1,6.781067232E0
6.150228648E0,-6.411698461E-2,-6.481383324E0,-6.277502775E-1,6.512028193E0
6.155026200E0,7.967352271E-1,-6.123139381E0,-8.360452652E-1,6.231098987E0
6.159823752E0,1.474204540E0,-5.610292435E0,-9.691714048E-1,5.881152391E0
6.164621304E0,2.115734577E0,-4.940717697E0,-1.189485431E0,5.504716137E0
6.169418857E0,2.518812656E0,-4.241224289E0,-2.075062037E0,5.351474855E0
6.174216409E0,2.912203550E0,-3.652795792E0,-2.646555901E0,5.369181013E0
6.179013909E0,3.292347431E0,-2.941066742E0,-2.884507656E0,5.273500697E0
6.183811461E0,3.411938190E0,-2.283040047E0,-2.994342089E0,5.081306782E0
6.188609013E0,3.322805405E0,-1.786171913E0,-3.008707047E0,4.825325269E0
6.193406565E0,3.036860228E0,-1.187307358E0,-3.043009281E0,4.460058776E0
6.198204117E0,2.649715424E0,-7.063684464E-1,-2.987987757E0,4.055615741E0
6.203001669E0,2.314518452E0,-3.383464813E-1,-2.849044085E0,3.686261819E0
6.207799221E0,1.864811659E0,-6.624794006E-2,-2.566825390E0,3.173405725E0
6.212596773E0,1.325760961E0,4.303474426E-1,-2.346147060E0,2.728964469E0
6.217394325E0,9.085824490E-1,8.165807724E-1,-1.871623874E0,2.235017259E0
6.222191877E0,5.113677979E-1,1.138037682E0,-1.535103559E0,1.978173331E0
6.226989429E0,2.425038218E-1,1.554900169E0,-1.346400380E0,2.071066543E0
6.231786929E0,2.763564885E-1,1.937920094E0,-9.744471312E-1,2.186653701E0
6.236584482E0,4.498232305E-1,2.227300167E0,-5.403409600E-1,2.335631676E0
6.241382034E0,7.003158331E-1,2.633338928E0,-2.305729836E-1,2.734607847E0
6.246179586E0,9.795729518E-1,2.876191616E0,3.671666980E-2,3.038649288E0
6.250977138E0,1.208002567E0,3.042025089E0,3.795082271E-1,3.295028580E0
6.255774690E0,1.365896344E0,3.147604465E0,6.600639224E-1,3.494105190E0
6.260572242E0,1.352874517E0,3.173895836E0,7.134473324E-1,3.523193343E0
6.265369794E0,1.269648671E0,3.111478806E0,7.747358084E-1,3.448698838E0
6.270167346E0,1.233453870E0,2.850564957E0,8.495736122E-1,3.220078313E0
6.274964898E0,1.136929512E0,2.838339329E0,8.550784588E-1,3.174891814E0
6.279762450E0,1.023496628E0,2.804484367E0,9.235734940E-1,3.125006546E0
6.284559950E0,1.027125955E0,2.696488857E0,1.025069714E0,3.062157377E0
6.289357502E0,8.640130162E-1,2.385479450E0,8.858147264E-1,2.687321795E0
6.294155054E0,6.669967771E-1,2.323503494E0,7.458950281E-1,2.529804850E0
6.298952607E0,5.512859225E-1,2.352578640E0,7.323861122E-1,2.524862737E0
6.303750159E0,5.099804997E-1,2.360311031E0,7.353439331E-1,2.524258104E0
6.308547711E0,4.665629268E-1,2.368256092E0,7.645231485E-1,2.531958437E0
6.313345263E0,4.377080202E-1,2.443320274E0,8.243445158E-1,2.615520246E0
6.318142815E0,4.520003200E-1,2.563901424E0,8.450691104E-1,2.737158491E0
6.322940367E0,4.568006396E-1,2.751441479E0,8.645433784E-1,2.920022652E0
6.327737919E0,4.761861563E-1,2.938955307E0,8.729236126E-1,3.102612961E0
6.332535419E0,5.317918062E-1,3.045192242E0,8.170054555E-1,3.197420246E0
6.337332971E0,5.662780404E-1,3.184965134E0,7.824473977E-1,3.328197358E0
6.342130523E0,6.585165858E-1,3.241127491E0,7.184379101E-1,3.384479951E0
6.346928075E0,8.347652555E-1,3.275926113E0,6.607850790E-1,3.444584424E0
6.351725627E0,1.003919601E0,3.275026798E0,6.090219617E-1,3.479161227E0
6.356523179E0,1.175509214E0,3.276711464E0,5.129253268E-1,3.518771422E0
6.361320732E0,1.318509102E0,3.261858940E0,4.109001756E-1,3.542178560E0
6.366118284E0,1.607111216E0,3.158767700E0,4.581570029E-1,3.573587509E0
6.370915836E0,1.859208584E0,3.149142742E0,3.989832401E-1,3.678715019E0
6.375713388E0,2.027094364E0,3.130104542E0,3.103013933E-1,3.742051972E0
6.380510888E0,2.189808130E0,3.113610268E0,3.064549267E-1,3.818866739E0
6.385308440E0,2.311642408E0,3.142673969E0,4.036976099E-1,3.922124687E0
6.390105992E0,2.406720161E0,3.188529491E0,5.463157296E-1,4.032056935E0
6.394903544E0,2.450741529E0,3.217655182E0,6.837754846E-1,4.102071163E0
6.399701096E0,2.450475216E0,3.273044586E0,8.207553625E-1,4.170286442E0
6.404498648E0,2.427109480E0,3.325950146E0,9.760360122E-1,4.231483321E0
6.409296200E0,2.373129845E0,3.402629852E0,1.116173148E0,4.295983900E0
6.414093752E0,2.314663649E0,3.405046940E0,1.250650167E0,4.303038265E0
6.418891304E0,2.275270939E0,3.373889446E0,1.386919498E0,4.299248020E0
6.423688857E0,2.197315693E0,3.330682278E0,1.534592509E0,4.275115771E0
6.428486409E0,2.161618233E0,3.299299240E0,1.690964341E0,4.291541595E0
6.433283909E0,2.091115952E0,3.207994938E0,1.904036641E0,4.276605310E0
6.438081461E0,2.049963474E0,3.104609013E0,2.034901857E0,4.240492063E0
6.442879013E0,2.104956865E0,2.797970772E0,2.261616707E0,4.168260305E0
6.447676565E0,2.184021235E0,2.357644081E0,2.281661510E0,3.941372047E0
6.452474117E0,2.269989252E0,2.006046295E0,2.236698627E0,3.765619961E0
6.457271669E0,2.422397852E0,1.635540009E0,2.263545513E0,3.696841999E0
6.462069221E0,2.610203743E0,1.186447144E0,2.198089838E0,3.612813217E0
6.466866773E0,2.864278316E0,6.971349716E-1,2.038828850E0,3.584258713E0
6.471664325E0,3.198853254E0,2.083377838E-1,1.903955460E0,3.728419661E0
6.476461877E0,3.565948486E0,-1.747550964E-1,1.693456173E0,3.951496142E0
6.481259429E0,3.934164286E0,-4.618310928E-1,1.354725838E0,4.186432691E0
6.486056982E0,4.258098125E0,-7.318754196E-1,1.045206308E0,4.445165633E0
6.490854482E0,4.590584755E0,-9.395189285E-1,8.046218157E-1,4.754322294E0
6.495652034E0,4.865154266E0,-9.844732285E-1,5.988345146E-1,4.999751629E0
6.500449586E0,5.053968906E0,-8.263387680E-1,3.549841046E-1,5.133366457E0
6.505247138E0,5.150666714E0,-5.777072906E-1,1.032122672E-1,5.183991327E0
6.510044690E0,5.129469395E0,-3.104076385E-1,-1.714920998E-1,5.141713597E0
6.514842242E0,4.924120426E0,-1.511650085E-1,-5.442788005E-1,4.956415261E0
6.519639794E0,4.941250801E0,-7.597637177E-2,-2.054177225E-1,4.946102337E0
6.524437346E0,5.024662971E0,-8.240509033E-2,8.415311575E-2,5.026043207E0
6.529234898E0,4.937839985E0,-2.157526016E-1,-5.264681578E-2,4.942831637E0
6.534032450E0,4.825415134E0,-2.941827774E-1,-3.496903181E-1,4.847005059E0
6.538830002E0,4.684081078E0,-3.822002411E-1,-8.110356331E-1,4.769116413E0
6.543627554E0,4.558192253E0,-4.461822510E-1,-1.485314131E0,4.814805633E0
6.548425054E0,4.388881683E0,-5.743951797E-1,-2.518433332E0,5.092614133E0
6.553222607E0,4.137814999E0,-9.003944397E-1,-3.751999855E0,5.657713851E0
6.558020159E0,3.897250891E0,-1.316264153E0,-4.951807499E0,6.437508317E0
6.562817711E0,3.266646624E0,-1.864817619E0,-5.671483040E0,6.805456986E0
6.567615263E0,2.442867756E0,-2.670153618E0,-6.072712898E0,7.069311505E0
6.572412815E0,1.558073640E0,-3.796608925E0,-6.031968117E0,7.295647480E0
6.577210367E0,5.416445732E-1,-4.952446938E0,-5.706866741E0,7.575515660E0
6.582007919E0,-6.503559351E-1,-5.922787666E0,-4.939824104E0,7.739782863E0
6.586805471E0,-1.960869312E0,-6.461835861E0,-3.851813793E0,7.774110924E0
6.591603023E0,-3.310600281E0,-6.565328598E0,-2.681550026E0,7.826514190E0
6.596400575E0,-4.763660431E0,-6.262512207E0,-1.811337113E0,8.074184911E0
6.601198127E0,-6.066155434E0,-5.735541344E0,-9.656205177E-1,8.403993053E0
6.605995679E0,-6.921886444E0,-5.130602837E0,-7.239366770E-1,8.646368123E0
6.610793179E0,-7.795012474E0,-4.514889717E0,-1.177341342E-1,9.008901706E0
6.615590732E0,-8.533305168E0,-3.661452293E0,2.217429876E-2,9.285689080E0
6.620388284E0,-8.428900719E0,-3.237207413E0,4.660428762E-1,9.041187705E0
6.625185836E0,-8.354511261E0,-2.827930450E0,1.050276399E0,8.882461909E0
6.629983388E0,-8.444658279E0,-2.378259659E0,1.251448750E0,8.861969106E0
6.634780940E0,-8.032219887E0,-2.229722023E0,1.237714648E0,8.427345618E0
6.639578492E0,-7.397327423E0,-2.668592453E0,1.514042258E0,8.008380775E0
6.644376044E0,-6.644268990E0,-3.108636856E0,2.279624701E0,7.681576810E0
6.649173596E0,-5.967576504E0,-3.036130905E0,2.155388355E0,7.033900708E0
6.653971148E0,-5.131890297E0,-2.908378601E0,1.546484470E0,6.098079888E0
6.658768700E0,-4.793596745E0,-2.144880295E0,1.893749952E0,5.582595284E0
6.663566252E0,-3.847268581E0,-1.898470879E0,2.175913334E0,4.810433042E0
6.668363752E0,-3.064485312E0,-1.697814941E0,2.165877104E0,4.118818936E0
6.673161304E0,-2.190791130E0,-1.401951790E0,2.093464851E0,3.338806625E0
6.677958857E0,-1.375598788E0,-1.276324272E0,1.887929201E0,2.661870084E0
6.682756409E0,-8.703685999E-1,-1.100871086E0,1.572214723E0,2.107443423E0
6.687553961E0,-4.050152302E-1,-1.090751648E0,1.353520989E0,1.784879705E0
6.692351513E0,-7.520920038E-2,-1.243388176E0,1.245238423E0,1.761331687E0
6.697149065E0,1.930111051E-1,-1.439136505E0,1.155214190E0,1.855501817E0
6.701946617E0,4.303955138E-1,-1.689970970E0,1.084159732E0,2.053446981E0
6.706744169E0,4.696083367E-1,-1.914650917E0,9.701399803E-1,2.197178123E0
6.711541721E0,4.970421195E-1,-2.132435799E0,9.850905538E-1,2.400986610E0
6.716339273E0,5.170877576E-1,-2.388850212E0,9.182820320E-1,2.610981994E0
6.721136825E0,4.244213104E-1,-2.605081558E0,8.670782447E-1,2.778202307E0
6.725934377E0,2.385355532E-1,-2.673712730E0,1.043228626E0,2.879924468E0
6.730731877E0,-4.561364651E-3,-2.690539360E0,1.062333465E0,2.892676139E0
6.735529429E0,-2.804588079E-1,-2.335349083E0,1.345780253E0,2.709914569E0
6.740326982E0,-5.578861237E-1,-1.919180870E0,1.377483249E0,2.427334390E0
6.745124534E0,-8.078393936E-1,-1.520833015E0,1.622106314E0,2.365748600E0
6.749922086E0,-1.139414549E0,-7.959680557E-1,2.018331528E0,2.450610703E0
6.754719638E0,-1.463234663E0,-1.319637299E-1,2.443022013E0,2.850758962E0
6.759517190E0,-1.766496897E0,6.339082718E-1,2.819340706E0,3.386891347E0
6.764314742E0,-1.910289049E0,1.233964920E0,3.185503483E0,3.913988517E0
6.769112294E0,-1.873575091E0,1.646994591E0,3.551051378E0,4.339682096E0
6.773909846E0,-1.733244777E0,2.255696774E0,3.765326977E0,4.719109305E0
6.778707398E0,-1.439310789E0,2.830441952E0,4.149059296E0,5.224721067E0
6.783504950E0,-1.052274466E0,3.206359386E0,4.382463932E0,5.531185423E0
6.788302502E0,-6.036382914E-1,3.491214275E0,4.523705959E0,5.746030970E0
6.793100054E0,-1.176841632E-1,3.751988411E0,4.628567219E0,5.959437985E0
6.797897554E0,3.576612771E-1,3.936082840E0,4.740745544E0,6.172142094E0
6.802695107E0,7.914231420E-1,4.067522526E0,4.778950691E0,6.325303139E0
6.807492659E0,1.212313533E0,4.103369713E0,4.595171928E0,6.278769955E0
6.812290211E0,1.611068845E0,4.122622490E0,4.607917309E0,6.389402237E0
6.817087763E0,2.021012545E0,4.032146931E0,4.343573570E0,6.261735537E0
6.821885315E0,2.472887754E0,3.848831177E0,4.084449291E0,6.132813489E0
6.826682867E0,2.873261690E0,3.584737778E0,3.966941833E0,6.069810968E0
6.831480419E0,3.226866961E0,3.335534573E0,3.694811344E0,5.932123746E0
6.836277971E0,3.559911489E0,3.098794937E0,3.433367729E0,5.836395621E0
6.841075523E0,3.872582912E0,2.836289406E0,3.235077620E0,5.788537226E0
6.845873075E0,4.112447262E0,2.533735275E0,3.044796705E0,5.709888257E0
6.850670627E0,4.327473164E0,2.229448318E0,3.034454346E0,5.736320856E0
6.855468179E0,4.537018299E0,1.978489399E0,2.906936646E0,5.740142508E0
6.860265732E0,4.743241787E0,1.682844162E0,2.891663074E0,5.804482962E0
6.865063284E0,4.972012520E0,1.325852394E0,2.782959461E0,5.850098839E0
6.869860784E0,5.063093662E0,1.022233009E0,2.712857246E0,5.834335626E0
6.874658336E0,5.064633846E0,8.769931793E-1,2.454788446E0,5.696105630E0
6.879455888E0,5.061263561E0,8.109149933E-1,2.318210602E0,5.625661948E0
6.884253440E0,5.048903942E0,8.022470474E-1,2.244075298E0,5.583091015E0
6.889050992E0,5.054527760E0,7.313060760E-1,2.295176983E0,5.599187158E0
6.893848544E0,5.004468441E0,7.270507812E-1,2.309880257E0,5.559573186E0
6.898646096E0,4.942350388E0,7.677984238E-1,2.360448360E0,5.530647181E0
6.903443648E0,4.832365990E0,8.104171753E-1,2.387416363E0,5.450531529E0
6.908241200E0,4.715023041E0,8.333187103E-1,2.450964689E0,5.378948806E0
6.913038752E0,4.589958191E0,8.317346573E-1,2.414838076E0,5.252708032E0
6.917836304E0,4.337175846E0,7.865657806E-1,2.350837708E0,4.995619879E0
6.922633857E0,4.214540482E0,7.408847809E-1,2.273213387E0,4.845488709E0
6.927431409E0,3.949304581E0,7.520971298E-1,2.234146833E0,4.599355263E0
6.932228909E0,3.696402550E0,5.644464493E-1,2.168827057E0,4.322707763E0
6.937026461E0,3.404892445E0,4.005289078E-1,2.241588116E0,4.096148587E0
6.941824013E0,3.110335588E0,3.513031006E-1,2.011532307E0,3.720734277E0
6.946621565E0,2.745579720E0,2.375030518E-1,2.214452028E0,3.535309531E0
6.951419117E0,2.480211973E0,2.577915192E-1,2.031307459E0,3.216227276E0
6.956216669E0,1.972821236E0,2.591257095E-1,2.391825438E0,3.111269626E0
6.961014221E0,1.660994530E0,3.038539886E-1,2.493811846E0,3.011698457E0
6.965811773E0,1.334177613E0,3.491039276E-1,2.731000662E0,3.059455519E0
6.970609325E0,1.155235529E0,3.997688293E-1,3.074015379E0,3.308164868E0
6.975406877E0,9.475989342E-1,2.766523361E-1,3.324193001E0,3.467670596E0
6.980204429E0,6.996247768E-1,2.116622925E-1,3.640056372E0,3.712719508E0
6.985001982E0,5.570976734E-1,6.115531921E-2,3.926914215E0,3.966705566E0
6.989799534E0,3.906362355E-1,-1.725244522E-1,4.109158039E0,4.131288073E0
6.994597086E0,2.018618286E-1,-4.918270111E-1,4.018238068E0,4.053255380E0
6.999394638E0,4.696369171E-3,-8.752937317E-1,3.963653803E0,4.059151715E0
7.004192190E0,-1.267429888E-1,-1.342078209E0,4.000928402E0,4.221926785E0
7.008989690E0,-3.340572119E-3,-1.982903481E0,3.938756466E0,4.409730136E0
7.013787242E0,1.936007440E-1,-2.455709457E0,3.927240610E0,4.635861193E0
7.018584794E0,5.315212011E-1,-3.095080376E0,3.912619591E0,5.017033923E0
7.023382346E0,9.436460733E-1,-3.695182800E0,3.829810619E0,5.404839796E0
7.028179898E0,1.451007009E0,-4.318094254E0,3.795531750E0,5.929369324E0
7.032977450E0,1.949958444E0,-4.834669113E0,3.854936600E0,6.483586936E0
7.037775002E0,2.324886799E0,-5.101655960E0,3.764326572E0,6.752936154E0
7.042572554E0,2.589323997E0,-4.961559296E0,3.463895798E0,6.581811567E0
7.047370107E0,2.909885883E0,-4.804465294E0,3.212300777E0,6.470641305E0
7.052167659E0,3.216772795E0,-4.259911537E0,2.966186047E0,6.106777643E0
7.056965211E0,3.557447433E0,-3.605582237E0,2.847272873E0,5.810560930E0
7.061762763E0,3.958067417E0,-3.118886948E0,2.910540581E0,5.819364222E0
7.066560315E0,4.292138577E0,-2.560660362E0,2.911942005E0,5.784361788E0
7.071357867E0,4.569717407E0,-1.902269363E0,2.729196310E0,5.652385197E0
7.076155419E0,4.818239212E0,-1.210683823E0,2.254297972E0,5.455551647E0
7.080952971E0,5.000263214E0,-5.503816605E-1,1.589616537E0,5.275645261E0
7.085750523E0,5.068876266E0,3.580188751E-2,1.331807852E0,5.241040024E0
7.090548023E0,4.948729515E0,6.317262650E-1,9.583756924E-1,5.080106874E0
7.095345575E0,4.722494125E0,1.043847084E0,7.508710623E-1,4.894422831E0
7.100143127E0,4.333558559E0,1.310619354E0,3.837597370E-1,4.543646599E0
7.104940679E0,3.676609993E0,1.444047928E0,-2.667238712E-1,3.959024764E0
7.109738232E0,2.978263617E0,1.382005692E0,-7.624611855E-1,3.370658832E0
7.114535784E0,2.028605223E0,1.511795998E0,-1.333180904E0,2.859744326E0
7.119333336E0,9.744656086E-1,1.715922356E0,-1.749267817E0,2.637026857E0
7.124130888E0,-6.766968220E-2,1.922447681E0,-1.965562940E0,2.750240343E0
7.128928440E0,-1.105220199E0,2.162203789E0,-2.115696669E0,3.220684602E0
7.133725992E0,-2.159324169E0,2.327324867E0,-2.258543491E0,3.896169992E0
7.138523544E0,-3.082652092E0,2.439296722E0,-2.131273746E0,4.471603762E0
7.143321096E0,-3.863684654E0,2.464601040E0,-1.970459104E0,4.988489398E0
7.148118648E0,-4.673254967E0,2.372166157E0,-1.785375834E0,5.536610075E0
7.152916200E0,-5.459679127E0,2.130963326E0,-1.656724691E0,6.090471046E0
7.157713752E0,-6.209805012E0,1.674169540E0,-1.559679270E0,6.617939359E0
7.162511252E0,-6.849052906E0,9.446640015E-1,-1.264793634E0,7.028628509E0
7.167308804E0,-7.267210484E0,-3.095722198E-2,-8.226802349E-1,7.313693276E0
7.172106357E0,-7.276181221E0,-1.178379059E0,-3.225998580E-1,7.378039105E0
7.176903909E0,-7.070351601E0,-2.311096191E0,1.344407201E-1,7.439698359E0
7.181701461E0,-6.697369576E0,-3.202223778E0,3.594319820E-1,7.432239750E0
7.186499013E0,-5.928313732E0,-3.871362686E0,2.934278250E-1,7.086497911E0
7.191296565E0,-4.683946609E0,-4.730042458E0,-6.186404228E-1,6.685459854E0
7.196094117E0,-3.286604166E0,-6.354206085E0,-1.015752792E0,7.225611092E0
7.200891669E0,-1.810341835E0,-8.676130295E0,-2.217399120E0,9.136160753E0
7.205689221E0,1.357105374E-2,-1.059318066E1,-3.017419100E0,1.101455758E1
7.210486773E0,1.008572578E0,-1.129543972E1,-3.717201948E0,1.193405914E1
7.215284325E0,1.996052980E0,-1.087476063E1,-4.519907951E0,1.194463118E1
7.220081877E0,2.789937496E0,-9.843464851E0,-5.082141399E0,1.142390969E1
7.224879429E0,3.714999199E0,-8.746646881E0,-5.574361324E0,1.101719360E1
7.229676982E0,5.178789616E0,-7.672304153E0,-6.098169327E0,1.108475449E1
7.234474534E0,6.757983208E0,-6.921107292E0,-5.737261295E0,1.124669864E1
7.239272034E0,7.783154011E0,-5.827957153E0,-6.025270462E0,1.143881353E1
7.244069638E0,8.251168251E0,-4.369246483E0,-5.777295113E0,1.097949139E1
7.248867138E0,8.590242386E0,-2.992271423E0,-4.906310081E0,1.033527122E1
7.253664690E0,8.705498695E0,-1.188022614E0,-3.920534134E0,9.621210587E0
7.258462242E0,8.697792053E0,2.254457474E-1,-3.009545326E0,9.206507234E0
7.263259794E0,8.591416359E0,1.033292770E0,-2.443900585E0,8.991817340E0
7.268057346E0,7.947513103E0,1.900314808E0,-2.006914616E0,8.414384539E0
7.272854898E0,7.261602879E0,2.379128456E0,-1.646860600E0,7.816858602E0
7.277652450E0,6.912972927E0,2.660864830E0,-1.455282450E0,7.548989558E0
7.282450002E0,6.262596130E0,2.535089493E0,-1.215393305E0,6.864690081E0
7.287247554E0,5.009508133E0,2.817213535E0,-8.821812868E-1,5.814645962E0
7.292045107E0,3.094134808E0,2.706429005E0,-5.476659536E-1,4.147091289E0
7.296842659E0,1.570085168E0,2.454272747E0,4.247066379E-1,2.944316199E0
7.301640211E0,5.808806419E-1,2.264052868E0,1.135636568E0,2.598658909E0
7.306437763E0,-1.971083879E-1,2.109437466E0,1.692436695E0,2.711626837E0
7.311235315E0,-7.365181446E-1,2.124200344E0,1.940292001E0,2.969750684E0
7.316032867E0,-1.137439847E0,2.267374992E0,1.999922514E0,3.230239747E0
7.320830419E0,-1.566658616E0,2.438282967E0,1.925175905E0,3.479359900E0
7.325627919E0,-1.977196217E0,2.500600815E0,1.786341429E0,3.654220165E0
7.330425471E0,-2.483939171E0,2.497459888E0,1.536038399E0,3.842742987E0
7.335223023E0,-2.907553196E0,2.359619617E0,1.215247273E0,3.936812957E0
7.340020575E0,-3.357861042E0,2.323824406E0,9.290736914E-1,4.187907421E0
7.344818127E0,-3.831398487E0,2.272994041E0,7.539606094E-1,4.518248873E0
7.349615679E0,-4.224478722E0,2.326756954E0,5.366828442E-1,4.852632983E0
7.354413232E0,-4.479058743E0,2.382370472E0,3.324556351E-1,5.084110840E0
7.359210784E0,-4.649742126E0,2.413660526E0,6.023621559E-2,5.239225838E0
7.364008336E0,-4.661935329E0,2.466234207E0,-2.650719285E-1,5.280740034E0
7.368805888E0,-4.550935268E0,2.619146347E0,-6.046357155E-1,5.285501277E0
7.373603440E0,-4.211208344E0,2.796033382E0,-9.001986980E-1,5.134436297E0
7.378400992E0,-3.783469200E0,3.056875229E0,-1.167633057E0,5.002248725E0
7.383198544E0,-3.231437683E0,3.291905403E0,-1.320080161E0,4.798066518E0
7.387996096E0,-2.739223003E0,3.441646576E0,-1.471167207E0,4.638168471E0
7.392793648E0,-2.288057566E0,3.530241489E0,-1.493066430E0,4.463973540E0
7.397591200E0,-1.918945789E0,3.498155594E0,-1.423073411E0,4.236104748E0
7.402388752E0,-1.756209970E0,3.367334366E0,-1.331365585E0,4.024394179E0
7.407186304E0,-1.629835486E0,3.252872467E0,-1.209730148E0,3.834187010E0
7.411983804E0,-1.632991314E0,3.131116867E0,-1.056922913E0,3.686141548E0
7.416781357E0,-1.610354662E0,3.006994247E0,-8.650349379E-1,3.519025715E0
7.421578909E0,-1.555127144E0,2.928334713E0,-6.933626533E-1,3.387376034E0
7.426376461E0,-1.503517628E0,2.851928234E0,-4.848966599E-1,3.260243040E0
7.431174013E0,-1.501045227E0,2.791974068E0,-2.401819229E-1,3.178984637E0
7.435971565E0,-1.476050019E0,2.698127747E0,1.405763626E-2,3.075518593E0
7.440769117E0,-1.426454306E0,2.787633419E0,1.646093130E-1,3.135724508E0
7.445566669E0,-1.376587868E0,2.797022820E0,3.226807117E-1,3.134079395E0
7.450364221E0,-1.236059666E0,2.711778164E0,4.755618572E-1,3.017903807E0
7.455161773E0,-1.065500498E0,2.784911156E0,6.195213795E-1,3.045460260E0
7.459959325E0,-8.493632078E-1,3.087532520E0,7.203347683E-1,3.282248787E0
7.464756877E0,-5.672272444E-1,2.988129616E0,5.456938744E-1,3.090056173E0
7.469554429E0,-1.950931549E-1,2.371969700E0,1.803537607E-1,2.386803108E0
7.474351982E0,-3.379794359E-1,2.014185905E0,2.703593969E-1,2.060162412E0
7.479149534E0,-4.055988789E-1,1.202646255E0,7.125043869E-1,1.455517423E0
7.483947086E0,2.753138542E-3,4.850101471E-1,8.773423433E-1,1.002482923E0
7.488744638E0,4.446427822E-1,-1.798152924E-1,8.273835182E-1,9.563494285E-1
7.493542190E0,8.838887215E-1,-9.667320251E-1,6.206108332E-1,1.449478488E0
7.498339742E0,1.227094531E0,-1.538816452E0,3.495517969E-1,1.998975618E0
7.503137294E0,1.539824009E0,-2.156770706E0,-2.704575062E-1,2.663806510E0
7.507934794E0,1.482242942E0,-2.901586533E0,-7.718298435E-1,3.348427967E0
7.512732346E0,1.534748912E0,-3.373805046E0,-8.262869120E-1,3.797468206E0
7.517529898E0,1.535436153E0,-3.838995934E0,-3.659608960E-1,4.150828994E0
7.522327450E0,1.658224583E0,-4.105998039E0,4.918726683E-1,4.455431223E0
7.527125002E0,1.544265151E0,-4.208455086E0,1.073516011E0,4.609586282E0
7.531922554E0,1.389832973E0,-3.962476730E0,1.432471275E0,4.436759120E0
7.536720107E0,1.343165278E0,-3.531032562E0,1.661895871E0,4.127248697E0
7.541517659E0,1.323017597E0,-3.098312378E0,1.838714361E0,3.838070564E0
7.546315211E0,1.403606892E0,-2.690577507E0,1.979759455E0,3.623364062E0
7.551112763E0,1.434643388E0,-2.369935036E0,1.996110797E0,3.414564692E0
7.555910315E0,1.378492236E0,-2.234224319E0,1.734616041E0,3.146568284E0
7.560707867E0,1.247539163E0,-2.338233948E0,1.268885612E0,2.938326506E0
7.565505419E0,1.125205636E0,-2.660296440E0,5.794328451E-1,2.946015495E0
7.570302971E0,1.050792694E0,-3.209945679E0,-9.944534302E-2,3.379024404E0
7.575100523E0,9.772512913E-1,-3.948920250E0,-7.150358558E-1,4.130407668E0
7.579898075E0,7.598733902E-1,-4.795971870E0,-1.190861702E0,4.999690525E0
7.584695627E0,3.146454096E-1,-5.815580368E0,-1.634202719E0,6.049016059E0
7.589493179E0,-4.106233120E-1,-6.816285133E0,-2.115893841E0,7.148941269E0
7.594290732E0,-1.397703528E0,-7.353186607E0,-2.750757933E0,7.974308600E0
7.599088284E0,-2.268362522E0,-7.608000755E0,-3.009406567E0,8.490210357E0
7.603885836E0,-3.172688961E0,-7.190896034E0,-3.105969429E0,8.451153005E0
7.608683336E0,-3.918213367E0,-5.896557808E0,-3.527833462E0,7.909955683E0
7.613480888E0,-4.314804554E0,-4.256052971E0,-3.964479685E0,7.242142252E0
7.618278440E0,-4.232185841E0,-2.568131447E0,-4.403272629E0,6.625368364E0
7.623075992E0,-3.702890873E0,-1.083591461E0,-4.768316269E0,6.133711055E0
7.627873544E0,-2.963440418E0,-1.493453979E-2,-4.888656616E0,5.716744324E0
7.632671096E0,-2.240943193E0,8.030576706E-1,-4.751629353E0,5.314575197E0
7.637468648E0,-1.454368949E0,1.475514412E0,-4.579067230E0,5.025951504E0
7.642266200E0,-9.270457029E-1,1.727493763E0,-3.922580242E0,4.385234793E0
7.647063752E0,-3.028813601E-1,1.812548161E0,-3.661136627E0,4.096460589E0
7.651861304E0,-1.891620159E-1,1.498829842E0,-3.460989952E0,3.776337460E0
7.656658857E0,4.811371565E-1,1.608769417E0,-3.670649052E0,4.036495567E0
7.661456409E0,5.081350803E-1,1.374629974E0,-3.325674772E0,3.634270424E0
7.666253961E0,3.942555189E-1,1.100166321E0,-1.541687012E0,1.934580624E0
7.671051513E0,-4.895472527E-2,1.807813644E-1,-3.725074768E0,3.729780221E0
7.675849065E0,6.138372421E-2,-5.728244781E-1,-3.563294888E0,3.609565943E0
7.680646617E0,-3.540052176E-1,-9.960422516E-1,-2.659962177E0,2.862310019E0
7.685444169E0,-1.625186563E0,-1.392529488E0,-2.214261532E0,3.079500587E0
7.690241721E0,-2.624447346E0,-1.912750244E0,-1.706405640E0,3.668536162E0
7.695039273E0,-3.774069309E0,-2.415359497E0,-1.039925814E0,4.599891993E0
7.699836825E0,-4.881257057E0,-2.809245110E0,-6.003994942E-1,5.663833339E0
7.704634377E0,-5.930269718E0,-2.931635857E0,-4.106236100E-1,6.628061517E0
7.709431877E0,-6.981554985E0,-3.207758904E0,-5.184186101E-1,7.700687310E0
7.714229429E0,-8.157230377E0,-3.323803902E0,-7.653411031E-1,8.841596395E0
7.719026982E0,-9.071301460E0,-3.000126839E0,-1.258780837E0,9.637105397E0
7.723824534E0,-9.240325928E0,-2.701252937E0,-1.511460066E0,9.744993700E0
7.728622086E0,-8.995667458E0,-2.305986404E0,-1.864412785E0,9.471834106E0
7.733419638E0,-8.486924171E0,-1.748289108E0,-2.358055353E0,8.980246196E0
7.738217190E0,-7.837131500E0,-1.112680435E0,-2.581288338E0,8.325967655E0
7.743014742E0,-7.082285404E0,-4.905405045E-1,-2.671443462E0,7.585249284E0
7.747812294E0,-6.381740093E0,7.725715637E-2,-2.593583822E0,6.889067595E0
7.752609846E0,-5.759534359E0,6.098833084E-1,-2.627938986E0,6.360051650E0
7.757407398E0,-5.250646591E0,1.267609596E0,-2.022821903E0,5.767836004E0
7.762204950E0,-4.737212181E0,1.708609581E0,-1.392904997E0,5.225008161E0
7.767002502E0,-4.355280399E0,1.957108021E0,-8.686707020E-1,4.853177099E0
7.771800054E0,-4.028009415E0,2.245241165E0,-1.924276948E-1,4.615516889E0
7.776597607E0,-3.638401747E0,2.357917786E0,3.913521171E-1,4.353263148E0
7.781395159E0,-3.160506248E0,2.412495613E0,1.112012625E0,4.128620461E0
7.786192711E0,-2.685404778E0,2.473625660E0,1.885444522E0,4.109151223E0
7.790990263E0,-2.155858994E0,2.467269421E0,2.491683006E0,4.116264155E0
7.795787815E0,-1.658278704E0,2.455674171E0,2.816426039E0,4.088089961E0
7.800585367E0,-1.085681558E0,2.352803707E0,2.879840374E0,3.873999265E0
7.805382919E0,-5.750517845E-1,2.304527760E0,2.774239063E0,3.652113789E0
7.810180471E0,-1.932224035E-1,2.349039078E0,2.539844751E0,3.464986414E0
7.814978023E0,2.844870090E-1,2.290252686E0,2.359879971E0,3.300791374E0
7.819775575E0,5.286206603E-1,2.319529057E0,2.044020653E0,3.136506859E0
7.824573075E0,7.430760860E-1,2.271892548E0,1.616791606E0,2.885770766E0
7.829370627E0,8.607598543E-1,2.018349648E0,1.147870660E0,2.476337998E0
7.834168179E0,9.176343083E-1,1.819626808E0,7.401490211E-1,2.168159362E0
7.838965732E0,9.212524295E-1,1.644586563E0,4.460306466E-1,1.937089141E0
7.843763284E0,9.276267290E-1,1.517154694E0,2.605062723E-1,1.797251577E0
7.848560836E0,8.541625142E-1,1.317858696E0,1.014211625E-1,1.573731678E0
7.853358388E0,6.134092212E-1,1.056431770E0,-1.085842550E-1,1.226421420E0
7.858155940E0,2.948805690E-1,7.545709610E-1,-4.184657633E-1,9.118363232E-1
7.862953492E0,-7.583200932E-3,4.625864029E-1,-7.306993008E-1,8.648497865E-1
7.867751044E0,-2.343252897E-1,3.707408905E-2,-7.561968565E-1,7.925380213E-1
7.872548596E0,-4.046674371E-1,-3.999700546E-1,-1.025022745E0,1.172349524E0
7.877346148E0,-4.664689600E-1,-7.984428406E-1,-1.373416662E0,1.655710599E0
7.882143700E0,-4.969062805E-1,-1.129826546E0,-1.740960956E0,2.134096747E0
7.886941252E0,-5.776131153E-1,-1.411023140E0,-1.976664066E0,2.496362162E0
7.891738804E0,-6.756302118E-1,-1.663696289E0,-1.898988962E0,2.613526469E0
7.896536357E0,-7.337676883E-1,-1.744557381E0,-1.431718349E0,2.373123028E0
7.901333909E0,-8.283882141E-1,-1.723093033E0,-7.886736393E-1,2.068159264E0
