"Time (s)","Linear Acceleration x (m/s^2)","Linear Acceleration y (m/s^2)","Linear Acceleration z (m/s^2)","Absolute acceleration (m/s^2)"
5.281791673E-3,-3.060105228E-1,1.279604673E0,-7.246764261E-1,1.502060745E0
1.529079163E-2,-4.715665403E-1,1.380142869E0,3.557095170E-1,1.501232361E0
2.529879159E-2,-5.301261127E-1,1.414825044E0,1.484010469E0,2.117793822E0
3.530679166E-2,-2.614591250E-1,1.321399986E0,2.050534329E0,2.453395572E0
4.531579162E-2,1.661457092E-2,1.152626538E0,1.943030931E0,2.259246153E0
5.532379169E-2,1.782278109E-1,1.042314137E0,1.632926188E0,1.945413027E0
6.533279165E-2,1.574549925E-1,6.899609220E-1,1.024095383E0,1.244833122E0
7.534079161E-2,3.253779629E-1,4.043542582E-1,2.679966044E-1,5.841193070E-1
8.534979168E-2,6.517939527E-1,4.471006206E-1,-3.234200227E-1,8.540110262E-1
9.535779164E-2,8.835015674E-1,8.676700848E-1,-4.921952248E-1,1.332547386E0
1.053657916E-1,8.016911267E-1,1.373901258E0,-1.088710624E-1,1.594417210E0
1.153747917E-1,4.595585521E-1,1.619869355E0,6.253807640E-1,1.796182588E0
1.253827916E-1,-1.676755966E-1,2.062894466E0,1.416050035E0,2.507757242E0
1.353917916E-1,-5.327631704E-1,2.566315176E0,2.615110483E0,3.702514418E0
1.453997917E-1,6.414030120E-2,2.235366863E0,3.927317476E0,4.519380660E0
1.554087916E-1,7.368843891E-3,1.170089540E0,3.893575534E0,4.065598882E0
1.654167917E-1,-4.382824346E-2,3.859714893E-1,2.991903305E0,3.017015130E0
1.754247916E-1,4.010431261E-1,-2.675036842E-1,1.987369782E0,2.045001824E0
1.854337916E-1,8.296457876E-1,-8.214528152E-1,1.107466738E0,1.609217026E0
1.954417917E-1,8.821056908E-1,-6.644886965E-1,3.882223749E-1,1.170629015E0
2.054507916E-1,1.029999901E0,-2.315570489E-1,-8.386895299E-2,1.059033741E0
2.154587916E-1,1.234185256E0,-2.657772937E-1,-4.092074472E-1,1.327140366E0
2.254677917E-1,1.307868944E0,-5.109858370E-1,-6.337025213E-1,1.540521531E0
2.354757916E-1,1.449854543E0,-5.176484469E-1,-5.396904033E-1,1.631350313E0
2.454837917E-1,1.300154420E0,-4.174938288E-1,-6.591039956E-2,1.367130862E0
2.554927916E-1,6.912154421E-2,-1.883142579E-1,4.536889708E-1,4.960581920E-1
2.655007916E-1,-1.350809727E0,2.789434692E-1,6.488409626E-1,1.524300158E0
2.755097917E-1,-2.335640910E0,3.799772161E-1,3.870845068E-1,2.397798065E0
2.855177916E-1,-1.910719802E0,-3.841825336E-2,-5.929661393E-3,1.911115194E0
2.955267916E-1,-8.424076281E-1,-8.351826623E-1,-7.916486800E-1,1.426144566E0
3.055347917E-1,1.061551769E-1,-1.536223181E0,-1.535849544E0,2.174875722E0
3.155427916E-1,5.039916900E-1,-1.891714012E0,-2.076314119E0,2.853711591E0
3.255517916E-1,-8.001900002E-2,-1.915708939E0,-2.454331348E0,3.114496130E0
3.355597917E-1,-8.951403040E-1,-1.628027390E0,-2.665232230E0,3.248878605E0
3.455687916E-1,-9.676890475E-1,-1.452482574E0,-2.897767811E0,3.382777854E0
3.555767917E-1,-9.209256479E-1,-1.700874049E0,-3.432403881E0,3.939856975E0
3.655857916E-1,-1.036688823E0,-2.206348886E0,-4.140109348E0,4.804498365E0
3.755937916E-1,-8.787976286E-1,-2.309569199E0,-4.479147284E0,5.115579688E0
3.856027917E-1,-4.425178653E-1,-2.217750371E0,-4.280604492E0,4.841261570E0
3.956107916E-1,8.505552846E-1,-2.430529672E0,-3.604209695E0,4.429587600E0
4.056187916E-1,1.300623075E0,-3.045545077E0,-4.066084768E0,5.244045245E0
4.156277917E-1,1.627799349E0,-3.626059863E0,-5.554128646E0,6.829815946E0
4.256357916E-1,1.967788042E0,-3.702524194E0,-6.371141378E0,7.627077923E0
4.356447916E-1,9.267412886E-1,-3.853528831E0,-6.479209617E0,7.595307178E0
4.456527916E-1,1.614612123E-1,-3.848182429E0,-6.063360903E0,7.183239044E0
4.556607916E-1,-6.107709110E-3,-3.950571561E0,-5.308852567E0,6.617474483E0
4.656697917E-1,8.238931507E-2,-4.065737443E0,-4.607211832E0,6.145194042E0
4.756777916E-1,6.661633390E-1,-3.909376464E0,-3.983095236E0,5.620680172E0
4.856867916E-1,1.291567492E0,-4.265036280E0,-3.705955925E0,5.795928776E0
4.956947917E-1,1.569700829E0,-4.704084992E0,-4.064313646E0,6.411787717E0
5.057037916E-1,1.316790626E0,-4.637203663E0,-4.105579786E0,6.331933412E0
5.157117916E-1,1.159212842E0,-4.716940096E0,-4.250295449E0,6.454324883E0
5.257207917E-1,7.935355765E-1,-4.916196833E0,-4.646709774E0,6.811064655E0
5.357287916E-1,4.106774372E-1,-4.693611752E0,-3.679840506E0,5.978283481E0
5.457367917E-1,-1.869799232E-1,-4.370515957E0,-3.226004185E0,5.435390899E0
5.557457916E-1,-1.631174362E-1,-4.449492545E0,-2.705293844E0,5.209914202E0
5.657537916E-1,-5.378801054E-1,-4.656905856E0,-1.876078557E0,5.049332422E0
5.757627917E-1,-1.133601453E0,-4.751658231E0,-7.272433537E-1,4.938845118E0
5.857707916E-1,-1.516077769E0,-4.768809284E0,2.575762814E-1,5.010626641E0
5.957797916E-1,-1.942566662E0,-4.735548567E0,3.766214991E-1,5.132331753E0
6.057877917E-1,-2.453443741E0,-4.420989415E0,9.356831431E-2,5.057003918E0
6.157957916E-1,-2.937635297E0,-3.829805507E0,-3.748009685E-1,4.841238181E0
6.258047917E-1,-3.809398432E0,-3.648816641E0,1.118654215E-1,5.276162732E0
6.358127916E-1,-4.942053806E0,-3.400270800E0,1.167934549E0,6.111448964E0
6.458217916E-1,-5.707430946E0,-3.253489899E0,1.834332946E0,6.820904770E0
6.558297917E-1,-6.294293761E0,-3.294406960E0,1.705231687E0,7.306097883E0
6.658387916E-1,-6.509378911E0,-3.356281027E0,9.727223307E-1,7.388019009E0
6.758467916E-1,-6.119986508E0,-3.604922470E0,3.738274071E-1,7.112625944E0
6.858547917E-1,-6.058737509E0,-3.312769849E0,2.387312901E-1,6.909394829E0
6.958637916E-1,-5.564191704E0,-2.727102204E0,6.152180108E-1,6.227022479E0
7.058718749E-1,-5.195619482E0,-2.209560469E0,1.367113226E0,5.809097851E0
7.158808750E-1,-4.797559751E0,-1.541969532E0,2.109635500E0,5.463040504E0
7.258888750E-1,-4.520106445E0,-1.317795178E0,2.817459227E0,5.486895561E0
7.358968749E-1,-4.276399174E0,-1.394519418E0,3.354091537E0,5.610900493E0
7.459058750E-1,-4.561324053E0,-1.304991822E0,3.681883523E0,6.005409815E0
7.559138749E-1,-4.949015501E0,-8.908072248E-1,3.217054437E0,5.969567085E0
7.659228749E-1,-4.790039647E0,-9.530012803E-1,2.453920873E0,5.465749621E0
7.759308750E-1,-4.324565029E0,-1.486383415E0,1.482955631E0,4.807323137E0
7.859398749E-1,-3.748652294E0,-2.086688687E0,9.316748768E-1,4.390294042E0
7.959478750E-1,-3.572183910E0,-2.173561062E0,8.910419905E-1,4.275373833E0
8.059558750E-1,-4.050094387E0,-1.655307575E0,8.833610880E-1,4.463589869E0
8.159648749E-1,-4.214105862E0,-1.002672062E0,9.771679688E-1,4.440596438E0
8.259728750E-1,-4.023933359E0,-7.193431807E-1,1.454286733E0,4.338714578E0
8.359818750E-1,-3.664632483E0,-7.376057893E-1,3.112318525E0,4.864166952E0
8.459898749E-1,-3.602623930E0,-5.559678823E-2,3.327383795E0,4.904434025E0
8.559988750E-1,-2.991195792E0,4.909494755E-1,3.168754681E0,4.385121422E0
8.660068749E-1,-2.580131269E0,7.036372671E-1,2.833520944E0,3.896283320E0
8.760148750E-1,-2.295095294E0,1.059286558E0,2.757362130E0,3.740667899E0
8.860238750E-1,-1.968064615E0,1.348189589E0,2.659121890E0,3.572369343E0
8.960318749E-1,-1.673558489E0,1.582134056E0,2.537558277E0,3.426827716E0
9.060408750E-1,-1.597631224E0,1.701806096E0,2.506928222E0,3.425384450E0
9.160488750E-1,-1.540949485E0,2.079442379E0,2.714582731E0,3.750675316E0
9.260578749E-1,-1.241737520E0,2.491637169E0,2.943372585E0,4.051371375E0
9.360658750E-1,-9.902101833E-1,2.776272025E0,3.154161201E0,4.317051707E0
9.460738749E-1,-8.172524679E-1,3.008907008E0,3.390332580E0,4.606058834E0
9.560828750E-1,-7.124727023E-1,3.296304674E0,3.311479368E0,4.726429674E0
9.660908750E-1,-7.628458804E-1,3.490315289E0,3.025421884E0,4.681603596E0
9.760998749E-1,-8.842603898E-1,3.652441915E0,2.665220536E0,4.607130222E0
9.861078750E-1,-9.357205653E-1,3.879648051E0,2.408208511E0,4.661191930E0
9.961168750E-1,-1.099422138E0,4.033608162E0,2.274764525E0,4.759545933E0
1.006124875E0,-1.316557907E0,4.258270467E0,2.310620674E0,5.020474080E0
1.016132875E0,-1.557742689E0,4.562832634E0,2.249210000E0,5.320239615E0
1.026141875E0,-1.796794406E0,4.856087456E0,2.173222947E0,5.615421044E0
1.036149875E0,-1.840212321E0,5.072735567E0,2.121346450E0,5.798201297E0
1.046158875E0,-1.960404763E0,5.265263913E0,2.203361397E0,6.034980725E0
1.056166875E0,-1.955474390E0,5.344879602E0,2.277942048E0,6.130304888E0
1.066174875E0,-1.900939164E0,5.408761602E0,2.347116948E0,6.194935814E0
1.076183875E0,-1.945869169E0,5.449721932E0,2.426981581E0,6.275039088E0
1.086191875E0,-2.140473862E0,5.389618987E0,2.401399867E0,6.276650580E0
1.096200875E0,-2.305694541E0,5.201598260E0,2.431624417E0,6.187539824E0
1.106208875E0,-2.410159727E0,5.097084543E0,2.467736675E0,6.154580817E0
1.116217875E0,-2.757848618E0,5.128418017E0,2.363176910E0,6.284186938E0
1.126225875E0,-3.289914837E0,5.223434102E0,2.169286455E0,6.543210770E0
1.136233875E0,-3.853202264E0,5.138455932E0,1.977536666E0,6.720234246E0
1.146242875E0,-4.160866964E0,4.886763704E0,1.780264474E0,6.660526630E0
1.156250875E0,-4.435140554E0,4.723186092E0,1.709337748E0,6.700805484E0
1.166259875E0,-4.865598537E0,4.657344105E0,1.944644908E0,7.010459832E0
1.176267875E0,-4.873701024E0,4.447851816E0,1.884585964E0,6.862070512E0
1.186275875E0,-5.102915386E0,3.887816611E0,1.629731415E0,6.618979372E0
1.196284875E0,-5.973368161E0,3.317698467E0,1.399752237E0,6.974780041E0
1.206292875E0,-6.353916650E0,3.099481548E0,1.467004427E0,7.220190070E0
1.216301875E0,-6.232918462E0,2.688479006E0,1.585774387E0,6.970787066E0
1.226309875E0,-6.702409533E0,2.243545656E0,1.471649309E0,7.219525078E0
1.236318875E0,-7.097137520E0,1.953051889E0,1.466110972E0,7.505548218E0
1.246326875E0,-6.932127925E0,1.914128729E0,1.575733256E0,7.362147897E0
1.256334875E0,-6.640694511E0,2.184107539E0,1.702095387E0,7.194878598E0
1.266343875E0,-6.258041609E0,2.703346136E0,1.708798488E0,7.027884275E0
1.276351875E0,-5.762261456E0,3.106360797E0,1.681131803E0,6.758649172E0
1.286360875E0,-5.217623139E0,3.208592931E0,1.613124007E0,6.334100479E0
1.296368875E0,-4.716209779E0,2.938271474E0,1.470697528E0,5.747958346E0
1.306377875E0,-4.324837509E0,2.367269230E0,1.369235473E0,5.116931587E0
1.316385875E0,-4.063295646E0,1.608639193E0,1.243350767E0,4.543568277E0
1.326393875E0,-3.914682228E0,7.133003756E-1,1.098870746E0,4.128080824E0
1.336402875E0,-3.714107528E0,-1.551853958E-1,9.815369352E-1,3.844748626E0
1.346410875E0,-3.436360692E0,-9.457228124E-1,7.471221328E-1,3.641587281E0
1.356419875E0,-3.062086265E0,-1.528766811E0,4.260749102E-1,3.448918684E0
1.366427875E0,-2.662234948E0,-1.763037845E0,2.775088549E-2,3.193206456E0
1.376435875E0,-2.309159017E0,-1.865027027E0,-2.274846824E-1,2.976959936E0
1.386444875E0,-2.030007679E0,-1.895090487E0,-4.437053983E-1,2.812325303E0
1.396452875E0,-1.770807041E0,-1.985248120E0,-4.818889225E-1,2.703550371E0
1.406461875E0,-1.569975064E0,-2.087570301E0,-3.539495051E-1,2.635915726E0
1.416469875E0,-1.180095588E0,-2.162780697E0,-1.098271552E-1,2.466233554E0
1.426477875E0,-4.182133287E-1,-2.097007415E0,2.714406876E-1,2.155463415E0
1.436486875E0,2.224122959E-1,-2.171547135E0,5.641393661E-1,2.254625781E0
1.446494875E0,6.428768027E-1,-2.340515295E0,8.584905410E-1,2.574550143E0
1.456503875E0,1.016112764E0,-2.403997931E0,1.242980053E0,2.890794115E0
1.466511875E0,1.186045715E0,-2.495266535E0,1.539930900E0,3.162980667E0
1.476520875E0,1.368423879E0,-2.478042100E0,1.604284186E0,3.253767710E0
1.486528875E0,1.350353644E0,-2.366714622E0,1.519354548E0,3.119812704E0
1.496536875E0,1.169317415E0,-2.302564673E0,1.189885070E0,2.843401795E0
1.506545875E0,1.096154130E0,-2.358042763E0,6.737009116E-1,2.686222713E0
1.516553875E0,1.209734539E0,-2.479512090E0,2.187760587E-1,2.767544186E0
1.526562875E0,1.406312667E0,-2.647978266E0,-1.162916907E-1,3.000504620E0
1.536570875E0,1.581620963E0,-2.805008166E0,-2.761101278E-1,3.232001313E0
1.546578875E0,1.757302896E0,-2.968788092E0,-2.920226674E-1,3.462238213E0
1.556587875E0,1.975916841E0,-3.263244224E0,-1.601236618E-1,3.818199814E0
1.566595875E0,2.278208535E0,-3.593394685E0,7.971626043E-2,4.255475787E0
1.576604875E0,2.415236279E0,-3.704719239E0,4.072514804E-1,4.441189558E0
1.586612875E0,2.384062434E0,-3.784638690E0,7.084265752E-1,4.528698700E0
1.596621875E0,2.557617735E0,-3.896421081E0,7.897506738E-1,4.727283770E0
1.606629875E0,2.652578856E0,-3.972023533E0,6.387917916E-1,4.818838085E0
1.616637875E0,2.731083573E0,-4.034935480E0,3.706560235E-1,4.886400281E0
1.626646875E0,2.874501740E0,-4.148616170E0,1.101581077E-1,5.048357276E0
1.636654875E0,2.994774288E0,-4.343666128E0,-2.981261373E-2,5.276077829E0
1.646663875E0,3.218364798E0,-4.620573012E0,-4.735528395E-2,5.631146371E0
1.656671875E0,3.475449328E0,-4.928108781E0,6.108937025E-2,6.030649725E0
1.666679875E0,3.520843602E0,-5.286945389E0,2.725925159E-1,6.357864256E0
1.676688875E0,3.502397976E0,-5.707330374E0,4.604599003E-1,6.712111061E0
1.686696875E0,3.689593077E0,-6.024870436E0,5.564982247E-1,7.086737692E0
1.696705875E0,3.748533010E0,-6.232652999E0,6.391076875E-1,7.301090451E0
1.706713125E0,3.629401254E0,-6.296317483E0,6.241154996E-1,7.294222883E0
1.716721125E0,3.592131101E0,-6.065176463E0,4.450561416E-1,7.063132899E0
1.726730125E0,3.416401221E0,-5.681889138E0,1.838107324E-1,6.632454136E0
1.736738125E0,3.130648962E0,-5.316753325E0,-1.150930115E-1,6.171067593E0
1.746747125E0,2.496437148E0,-4.806318588E0,-3.571105830E-1,5.427745828E0
1.756755125E0,2.123357892E0,-4.851688596E0,-5.459358875E-1,5.324056439E0
1.766764125E0,2.143556514E0,-5.634720819E0,-9.067791867E-1,6.096487655E0
1.776772125E0,1.589746254E0,-6.178587888E0,-1.191007589E0,6.490049347E0
1.786780125E0,1.193455306E0,-6.396611264E0,-1.319861584E0,6.639503433E0
1.796789125E0,1.130008923E0,-6.318000128E0,-1.479842427E0,6.586651607E0
1.806797125E0,1.210512804E0,-5.889638371E0,-1.658241123E0,6.237222540E0
1.816806125E0,1.311441593E0,-5.136302403E0,-1.691415886E0,5.564383984E0
1.826814125E0,1.324487901E0,-4.353926237E0,-1.513568144E0,4.796022352E0
1.836822125E0,1.031292136E0,-3.611930651E0,-1.079898651E0,3.908425206E0
1.846831125E0,4.607067990E-1,-2.970485246E0,-5.828481174E-1,3.061983880E0
1.856839125E0,-1.609832025E-1,-2.627976404E0,5.932117224E-1,2.698902687E0
1.866848125E0,-9.230619282E-1,-2.533661400E0,1.582906912E0,3.126831896E0
1.876856125E0,-1.782131928E0,-2.534144965E0,1.407282135E0,3.402694215E0
1.886864125E0,-1.925995068E0,-2.904445039E0,6.072403622E-1,3.537513087E0
1.896873125E0,-1.962136708E0,-3.417801045E0,3.623391632E-1,3.957604592E0
1.906881125E0,-2.199695047E0,-3.599612614E0,-1.446041282E-1,4.220992729E0
1.916890125E0,-2.038347563E0,-3.342075216E0,-7.053845613E-1,3.977674562E0
1.926898125E0,-1.887604004E0,-2.786909865E0,-1.035720963E0,3.521737268E0
1.936906125E0,-2.028854608E0,-2.173734578E0,-1.103705151E0,3.171677490E0
1.946915125E0,-2.235956554E0,-1.615236021E0,-9.205401702E-1,2.907900157E0
1.956923125E0,-2.125260576E0,-1.058039639E0,-5.983571260E-1,2.448307914E0
1.966932125E0,-2.057537540E0,-5.497569698E-1,-2.762458563E-1,2.147557968E0
1.976940125E0,-1.994160739E0,-1.278096092E-1,7.526674859E-2,1.999669330E0
1.986949125E0,-1.644460405E0,1.417715907E-1,4.369894691E-1,1.707427598E0
1.996957125E0,-1.223935087E0,3.647025347E-1,7.417486147E-1,1.476894053E0
2.006965125E0,-7.931052214E-1,5.871642396E-1,1.005117660E0,1.408559280E0
2.016974125E0,-3.564351565E-1,8.497232258E-1,1.110012104E0,1.442637325E0
2.026982125E0,-3.238772750E-3,1.153048415E0,1.115350612E0,1.604225085E0
2.036991125E0,1.916079944E-1,1.432112044E0,1.008607278E0,1.762086029E0
2.046999125E0,3.207665563E-1,1.616131815E0,8.935527849E-1,1.874355838E0
2.057007125E0,3.544903725E-1,1.735290468E0,9.375683586E-1,2.003978758E0
2.067016125E0,3.469989198E-1,1.861149154E0,1.052395980E0,2.166061338E0
2.077024125E0,4.434551740E-1,2.031682906E0,1.238946936E0,2.420615094E0
2.087033125E0,3.958313566E-1,2.229669628E0,1.386712800E0,2.655387261E0
2.097041125E0,2.703717434E-1,2.439063976E0,1.404941057E0,2.827718750E0
2.107049125E0,7.909528613E-2,2.696994598E0,1.282774010E0,2.987565077E0
2.117058125E0,5.225715101E-2,2.929390723E0,1.208803224E0,3.169426770E0
2.127066125E0,2.907001734E-2,3.051604546E0,1.188891993E0,3.275148782E0
2.137075125E0,-1.472311360E-1,3.152515209E0,1.110299714E0,3.345563421E0
2.147083125E0,-3.846181512E-1,3.300596530E0,1.059458027E0,3.487738507E0
2.157091125E0,-4.290172291E-1,3.402314694E0,1.106266304E0,3.603279922E0
2.167100125E0,-6.191564029E-1,3.455779295E0,1.051156297E0,3.664791228E0
2.177108125E0,-8.121630514E-1,3.661497790E0,8.857606392E-1,3.853666670E0
2.187117125E0,-1.032189099E0,3.887682125E0,7.238712645E-1,4.086988653E0
2.197125125E0,-1.164146723E0,4.060652704E0,6.215356350E-1,4.269712464E0
2.207133125E0,-1.187054944E0,4.136778190E0,5.279158652E-1,4.335980672E0
2.217142125E0,-1.359848353E0,4.106532882E0,4.692811561E-1,4.351209562E0
2.227150125E0,-1.526799808E0,4.055560364E0,3.860415097E-1,4.350599449E0
2.237159125E0,-1.726386913E0,3.821858849E0,4.036778815E-1,4.213071643E0
2.247167125E0,-2.157741859E0,3.550158618E0,4.977116342E-1,4.184159774E0
2.257175125E0,-2.671986934E0,3.360893018E0,5.051209335E-1,4.323223706E0
2.267184125E0,-3.257209021E0,3.203940302E0,5.088233905E-1,4.597123590E0
2.277192125E0,-3.824809939E0,3.116998052E0,5.326065016E-1,4.962712727E0
2.287201125E0,-4.472687865E0,3.023846644E0,4.060142827E-1,5.414188107E0
2.297209125E0,-5.142899231E0,2.786040968E0,2.232116103E-1,5.853311900E0
2.307217125E0,-5.740161320E0,2.531623937E0,2.108434336E-1,6.277183022E0
2.317226125E0,-6.295204757E0,2.136287255E0,3.695804282E-1,6.658071483E0
2.327234125E0,-6.854538297E0,1.706154962E0,5.258671470E-1,7.083233462E0
2.337243125E0,-7.193930574E0,1.557177848E0,5.682442577E-1,7.382434659E0
2.347251125E0,-7.132510836E0,1.565735832E0,6.952003196E-1,7.335362500E0
2.357260125E0,-7.012014340E0,1.743830912E0,9.288923331E-1,7.285062272E0
2.367268125E0,-6.846321205E0,2.070675064E0,1.225714541E0,7.256871598E0
2.377276125E0,-6.576089795E0,2.514061241E0,1.367255752E0,7.171809339E0
2.387285125E0,-6.182390918E0,3.024481652E0,1.504555099E0,7.045078620E0
2.397293125E0,-5.718894997E0,3.404065350E0,1.547060849E0,6.832775290E0
2.407302125E0,-5.137654279E0,3.487353675E0,1.454885341E0,6.377602880E0
2.417310125E0,-4.518152890E0,3.222439722E0,1.358137604E0,5.713349373E0
2.427318125E0,-4.002565295E0,2.649527779E0,1.222980456E0,4.953403636E0
2.437327125E0,-3.604032524E0,1.924183601E0,9.918817560E-1,4.204207700E0
2.447335125E0,-3.181795142E0,1.240392660E0,7.151109660E-1,3.489094147E0
2.457344125E0,-2.880749490E0,5.172727633E-1,3.286018983E-1,2.945211018E0
2.467352125E0,-2.575014371E0,-3.671408236E-2,-6.266344070E-2,2.576038361E0
2.477360125E0,-2.121720087E0,-3.983058983E-1,-5.356645954E-1,2.224248249E0
2.487369125E0,-1.682961397E0,-6.307619566E-1,-9.322110665E-1,2.024657300E0
2.497377125E0,-1.294891634E0,-8.022283396E-1,-1.207029033E0,1.943510674E0
2.507385125E0,-9.262106538E-1,-9.784961638E-1,-1.341391032E0,1.901223505E0
2.517394125E0,-5.487997806E-1,-1.157374185E0,-1.337817214E0,1.852147699E0
2.527402125E0,-8.360290468E-2,-1.326200843E0,-1.177196465E0,1.775271708E0
2.537411125E0,4.375372070E-1,-1.437272797E0,-8.194567951E-1,1.711344892E0
2.547419125E0,9.742431915E-1,-1.436195155E0,-3.445284712E-1,1.769323652E0
2.557427125E0,1.356721846E0,-1.395967188E0,1.193475918E-1,1.950298030E0
2.567436125E0,1.496476148E0,-1.371048694E0,4.905089609E-1,2.088016864E0
2.577444125E0,1.519242282E0,-1.297786590E0,7.263890024E-1,2.126026371E0
2.587453125E0,1.522426676E0,-1.217103493E0,8.393572088E-1,2.122179167E0
2.597461125E0,1.558639067E0,-1.227942184E0,9.041923785E-1,2.180541585E0
2.607470125E0,1.610659990E0,-1.237349477E0,9.259370041E-1,2.232178010E0
2.617478125E0,1.658054012E0,-1.209100409E0,9.409597436E-1,2.257536743E0
2.627486125E0,1.698895059E0,-1.309944706E0,8.472475147E-1,2.306518568E0
2.637495125E0,1.824739419E0,-1.464978951E0,7.231881635E-1,2.449252620E0
2.647503125E0,1.968807212E0,-1.536930402E0,6.479134481E-1,2.580338879E0
2.657512125E0,2.021415780E0,-1.550090876E0,4.795582954E-1,2.592080176E0
2.667520125E0,1.993325756E0,-1.622172427E0,2.088275329E-1,2.578449125E0
2.677528125E0,2.000063503E0,-1.726513798E0,-1.525176036E-1,2.646576190E0
2.687537125E0,2.073160715E0,-1.842766531E0,-3.910733311E-1,2.801200134E0
2.697545125E0,2.145149880E0,-2.011065770E0,-5.395470004E-1,2.989509074E0
2.707553292E0,2.251604873E0,-2.202858536E0,-5.865644614E-1,3.204117367E0
2.717562292E0,2.357782708E0,-2.430979177E0,-4.438093691E-1,3.415518381E0
2.727570292E0,2.379639015E0,-2.673462771E0,-1.469427221E-1,3.582133051E0
2.737579292E0,2.399418976E0,-2.885671676E0,1.372177792E-1,3.755414912E0
2.747587292E0,2.380682743E0,-3.061107441E0,4.991289993E-1,3.909879646E0
2.757595292E0,2.261494269E0,-3.248087949E0,8.250142081E-1,4.042904908E0
2.767604292E0,2.366174047E0,-3.370005319E0,1.067387144E0,4.253825430E0
2.777612292E0,2.294862574E0,-3.648455283E0,1.245597413E0,4.486550246E0
2.787621292E0,2.329269345E0,-4.092962079E0,1.310617428E0,4.888307714E0
2.797629292E0,2.239019326E0,-4.506944947E0,1.278559337E0,5.192347665E0
2.807637292E0,2.419494807E0,-4.707609694E0,1.125993787E0,5.411414432E0
2.817646292E0,2.555389946E0,-4.798962498E0,7.993893702E-1,5.495369159E0
2.827654292E0,2.340761463E0,-4.792661831E0,4.696017297E-1,5.354371806E0
2.837663292E0,2.000270494E0,-4.683770011E0,1.084388070E-1,5.094167502E0
2.847671292E0,1.839829913E0,-4.474475943E0,-2.061763322E-1,4.842356633E0
2.857679292E0,1.672640476E0,-4.197055089E0,-4.697878173E-1,4.542433068E0
2.867688292E0,1.374344770E0,-4.228138595E0,-6.961392362E-1,4.500065484E0
2.877696292E0,9.816761720E-1,-4.701413107E0,-8.745516729E-1,4.881783889E0
2.887705292E0,6.826899093E-1,-5.344108354E0,-8.964250834E-1,5.461605766E0
2.897713292E0,4.863801688E-1,-5.754093481E0,-8.963066773E-1,5.843759331E0
2.907721292E0,3.621777070E-1,-5.812515936E0,-9.566628067E-1,5.901840215E0
2.917730292E0,3.562579858E-1,-5.495700928E0,-1.040657036E0,5.604695845E0
2.927738292E0,3.704521018E-1,-4.920429048E0,-1.043508285E0,5.043487515E0
2.937747292E0,4.805651128E-1,-4.015634991E0,-7.398717315E-1,4.111408200E0
2.947755292E0,2.650332355E-1,-2.933392849E0,-3.480658905E-1,2.965836490E0
2.957763292E0,-1.318716699E-1,-1.983960856E0,5.170575857E-2,1.989010885E0
2.967772292E0,-5.222651160E-1,-1.330880662E0,3.818372154E-1,1.479798583E0
2.977780292E0,-1.059545297E0,-9.560859789E-1,5.781646438E-1,1.539808751E0
2.987789292E0,-1.485316737E0,-9.397779483E-1,6.964105470E-1,1.890591455E0
2.997797292E0,-1.844307711E0,-1.341067096E0,5.999724193E-1,2.357943764E0
3.007805292E0,-1.739208103E0,-1.979179880E0,2.490716524E-1,2.646513652E0
3.017814292E0,-1.546533576E0,-2.461941207E0,-3.107723491E-1,2.923952814E0
3.027822292E0,-1.291358746E0,-2.461604115E0,-6.682804696E-1,2.858968523E0
3.037830292E0,-1.148123598E0,-2.079336837E0,-7.921525638E-1,2.503864046E0
3.047839292E0,-1.115758674E0,-1.536949113E0,-8.024648595E-1,2.061814697E0
3.057847292E0,-1.078304919E0,-9.125363553E-1,-5.918738794E-1,1.531593545E0
3.067856292E0,-1.114400951E0,-4.084391230E-1,-2.838473828E-1,1.220361149E0
3.077864292E0,-1.046924082E0,-3.191790372E-2,1.538270876E-2,1.047523467E0
3.087872292E0,-8.288217688E-1,3.749000788E-1,2.968349259E-1,9.568733284E-1
3.097881292E0,-4.100786823E-1,7.590764728E-1,4.790927839E-1,9.868594190E-1
3.107889292E0,4.851025522E-2,1.031115550E0,4.714471109E-1,1.134819325E0
3.117898292E0,5.388127363E-1,1.266808042E0,5.115262659E-1,1.468598277E0
3.127906292E0,7.796800143E-1,1.477936673E0,6.851546569E-1,1.805999623E0
3.137914292E0,9.751307988E-1,1.607697499E0,8.432971358E-1,2.060757477E0
3.147923292E0,1.230478706E0,1.627419865E0,9.710820405E-1,2.259551635E0
3.157931292E0,1.343858557E0,1.712894755E0,9.641099668E-1,2.381065369E0
3.167940292E0,1.331067188E0,1.896517792E0,9.387118547E-1,2.499939907E0
3.177948292E0,1.399999428E0,2.077278032E0,9.385601194E-1,2.675065891E0
3.187956292E0,1.374423707E0,2.229495966E0,9.755551605E-1,2.794888309E0
3.197965292E0,1.348826351E0,2.527081528E0,1.026424913E0,3.042864058E0
3.207973292E0,1.488728587E0,2.696709546E0,9.049631877E-1,3.210531662E0
3.217982292E0,1.514142925E0,2.685923188E0,8.931120510E-1,3.210056277E0
3.227990292E0,1.472990806E0,2.551313851E0,7.808140817E-1,3.047716344E0
3.237998292E0,1.178473570E0,2.415903154E0,6.309473133E-1,2.761065468E0
3.248007292E0,6.623661572E-1,2.472670847E0,6.099723275E-1,2.631519767E0
3.258015292E0,6.087846118E-1,2.652713342E0,8.047372337E-1,2.838152355E0
3.268024292E0,4.724351442E-1,2.841115893E0,8.170057154E-1,2.993765659E0
3.278032292E0,1.845965981E-1,2.804942385E0,6.427236056E-1,2.883551859E0
3.288040292E0,-1.189551705E-1,2.753367897E0,4.581832138E-1,2.793763942E0
3.298049292E0,-4.209112340E-1,2.916732670E0,2.571954815E-1,2.958148957E0
3.308057292E0,-7.285209703E-1,3.220896057E0,1.299368262E-1,3.304814336E0
3.318065292E0,-9.779216748E-1,3.468580604E0,2.911928013E-2,3.603918720E0
3.328074292E0,-1.154201193E0,3.537992901E0,4.046404794E-2,3.721721578E0
3.338082292E0,-1.276787485E0,3.453181377E0,2.358310711E-1,3.689209156E0
3.348091292E0,-1.541018482E0,3.246961775E0,4.899172957E-1,3.627329278E0
3.358099292E0,-1.900421101E0,2.978693860E0,7.501815422E-1,3.612061713E0
3.368107292E0,-2.327537985E0,2.691914245E0,8.584939031E-1,3.660716754E0
3.378116292E0,-2.863592589E0,2.432302548E0,9.216954339E-1,3.868563128E0
3.388124292E0,-3.452393757E0,2.222365871E0,9.003050034E-1,4.203389325E0
3.398133292E0,-4.108729681E0,2.084839944E0,7.927573121E-1,4.675112976E0
3.408141292E0,-4.508798515E0,2.142160783E0,7.146923053E-1,5.042707800E0
3.418149292E0,-4.793455006E0,2.219009569E0,6.274669044E-1,5.319297799E0
3.428158292E0,-5.119588721E0,2.066027112E0,4.631274001E-1,5.540139321E0
3.438166292E0,-5.312890069E0,1.835438070E0,3.889847057E-1,5.634442554E0
3.448175292E0,-5.400007735E0,1.529352702E0,5.051925619E-1,5.635088531E0
3.458183292E0,-5.386407112E0,1.191022280E0,8.236026902E-1,5.577655156E0
3.468191292E0,-5.278437105E0,1.029108201E0,1.195808080E0,5.509166809E0
3.478200292E0,-5.224452102E0,1.019805281E0,1.501775479E0,5.530843712E0
3.488208292E0,-5.188965935E0,1.241587247E0,1.797846905E0,5.630200695E0
3.498216292E0,-5.120349444E0,1.799448457E0,1.963338457E0,5.771541482E0
3.508225292E0,-5.078621374E0,2.478052917E0,1.797084282E0,5.929810557E0
3.518233292E0,-5.063445511E0,3.045209447E0,1.415537381E0,6.075814932E0
3.528242292E0,-5.063766523E0,3.474908461E0,9.530025959E-1,6.214896150E0
3.538250292E0,-5.136661422E0,3.561966485E0,3.659385630E-1,6.261533904E0
3.548258292E0,-5.093367468E0,3.251279944E0,-1.931370413E-1,6.045702222E0
3.558267292E0,-4.733209974E0,2.563032256E0,-5.225538953E-1,5.407908429E0
3.568275292E0,-4.277392032E0,1.847680385E0,-6.043131729E-1,4.698425248E0
3.578284292E0,-3.903184848E0,1.210822122E0,-5.242566776E-1,4.120168350E0
3.588292292E0,-3.632913092E0,6.105931556E-1,-4.287714998E-1,3.708736514E0
3.598300292E0,-3.472095366E0,2.508221626E-2,-3.982140970E-1,3.494946325E0
3.608309292E0,-3.142576697E0,-5.255442345E-1,-2.986710978E-1,3.200185848E0
3.618317292E0,-2.635305596E0,-7.897372252E-1,-8.327366989E-2,2.752354442E0
3.628325292E0,-2.183866634E0,-8.109506312E-1,1.545781990E-1,2.334696730E0
3.638334292E0,-1.978343436E0,-9.325464043E-1,2.852049967E-1,2.205635381E0
3.648342292E0,-1.700567363E0,-1.074743088E0,3.492180478E-1,2.041801975E0
3.658351292E0,-1.253494517E0,-1.119680986E0,4.297680847E-1,1.734829854E0
3.668359292E0,-8.380668014E-1,-1.150826765E0,4.834981493E-1,1.503505460E0
3.678367292E0,-4.015674752E-1,-1.159572738E0,6.052675482E-1,1.368288777E0
3.688376292E0,2.587217510E-2,-1.176674674E0,7.709566263E-1,1.406984996E0
3.698384292E0,3.739516604E-1,-1.208414823E0,9.257195608E-1,1.567502132E0
3.708393750E0,6.156246847E-1,-1.272589769E0,1.029059815E0,1.748554424E0
3.718401750E0,7.778907663E-1,-1.402253530E0,1.034805143E0,1.908468153E0
3.728409750E0,9.774340171E-1,-1.491330013E0,9.685433257E-1,2.029166982E0
3.738418750E0,1.173374798E0,-1.571230753E0,8.906970048E-1,2.153814210E0
3.748426750E0,1.374029605E0,-1.698535455E0,7.193911278E-1,2.300109485E0
3.758434750E0,1.568987469E0,-1.848426782E0,4.982061990E-1,2.475199520E0
3.768443750E0,1.804585236E0,-1.993274593E0,2.821889663E-1,2.703572098E0
3.778451750E0,1.991969202E0,-2.129348072E0,7.287735701E-2,2.916740582E0
3.788460750E0,2.211013502E0,-2.297994928E0,-6.721030869E-2,3.189651802E0
3.798468750E0,2.553534624E0,-2.465686933E0,-1.325868575E-1,3.552144479E0
3.808476750E0,2.864258587E0,-2.650074493E0,-2.373150214E-1,3.909372136E0
3.818485750E0,3.143762512E0,-2.811071144E0,-3.438618156E-1,4.231265137E0
3.828493750E0,3.214156557E0,-2.927413194E0,-4.345627284E-1,4.369141237E0
3.838501750E0,3.111325668E0,-2.969724231E0,-5.126955628E-1,4.331566248E0
3.848510750E0,3.043240689E0,-3.004885293E0,-5.360166708E-1,4.310216165E0
3.858518750E0,3.061959381E0,-3.068570827E0,-4.523300048E-1,4.358477326E0
3.868527750E0,3.141681488E0,-3.211519462E0,-3.585815962E-1,4.506950254E0
3.878535750E0,3.272694787E0,-3.460623421E0,-2.142630315E-1,4.767845874E0
3.888543750E0,3.331307861E0,-3.740025019E0,-8.877001606E-2,5.009319248E0
3.898552750E0,3.289061728E0,-4.028780994E0,-2.777537070E-2,5.200939801E0
3.908560750E0,3.252142993E0,-4.338189918E0,1.009662846E-1,5.422777886E0
3.918569750E0,3.220996045E0,-4.751872532E0,2.084837166E-1,5.744438488E0
3.928577750E0,3.129639732E0,-5.102457549E0,2.361597577E-1,5.990449843E0
3.938585750E0,3.108714302E0,-5.397759481E0,1.619373950E-1,6.231062168E0
3.948594750E0,3.064706987E0,-5.557854491E0,5.093158722E-2,6.347028399E0
3.958602750E0,3.095004920E0,-5.501531187E0,3.569615521E-2,6.312461886E0
3.968610750E0,3.231227503E0,-5.277285204E0,5.590062417E-2,6.188189976E0
3.978619750E0,3.290565047E0,-4.919025716E0,4.503415860E-2,5.918332569E0
3.988627750E0,3.029422549E0,-4.560997193E0,-1.621440209E-2,5.475432338E0
3.998636750E0,2.584862836E0,-4.481415711E0,-2.215720510E-1,5.178194360E0
4.008644750E0,2.079324850E0,-4.639846019E0,-5.349839795E-1,5.112530760E0
4.018652750E0,1.560094439E0,-4.854448774E0,-7.898395514E-1,5.159788181E0
4.028661750E0,1.032387904E0,-5.146416916E0,-1.055200304E0,5.353959240E0
4.038669750E0,5.152408558E-1,-5.423210657E0,-1.334539264E0,5.608714827E0
4.048677750E0,2.727351880E-1,-5.483867918E0,-1.461563008E0,5.681844617E0
4.058686750E0,3.660292679E-1,-5.221234379E0,-1.356481526E0,5.406968467E0
4.068694750E0,4.971840692E-1,-4.613943439E0,-1.083519612E0,4.765467533E0
4.078703750E0,4.742349172E-1,-3.845343021E0,-6.284938216E-1,3.925119895E0
4.088711750E0,1.392070019E-1,-3.072158386E0,-3.273037434E-2,3.075484843E0
4.098719750E0,-3.957331234E-1,-2.479591904E0,5.109426407E-1,2.562429140E0
4.108728750E0,-9.682071108E-1,-2.156019123E0,9.900880495E-1,2.562443719E0
4.118736750E0,-1.578381021E0,-2.114432410E0,1.311646246E0,2.946612790E0
4.128744750E0,-1.956312296E0,-2.361849154E0,1.435908934E0,3.386343706E0
4.138753750E0,-2.022472372E0,-2.775149067E0,1.355163563E0,3.691654795E0
4.148761750E0,-1.823303928E0,-3.020810185E0,1.105844135E0,3.697650962E0
4.158770750E0,-1.670000458E0,-2.900263402E0,7.629645789E-1,3.432571089E0
4.168778750E0,-1.635512411E0,-2.407393701E0,4.998317615E-1,2.953011526E0
4.178786750E0,-1.739270083E0,-1.771975315E0,3.454196600E-1,2.506844965E0
4.188795750E0,-1.944044253E0,-1.123951208E0,2.931046215E-1,2.264615794E0
4.198803750E0,-2.024072755E0,-5.204095021E-1,2.456194563E-1,2.104287405E0
4.208811750E0,-1.977566925E0,1.061810508E-1,2.345796939E-1,1.994260011E0
4.218820750E0,-1.718051707E0,7.894945657E-1,2.483732756E-1,1.907011437E0
4.228828750E0,-1.425775709E0,1.339742117E0,2.663617229E-1,1.974511048E0
4.238837750E0,-1.053778773E0,1.725679985E0,3.514738671E-1,2.052304800E0
4.248845750E0,-6.203024572E-1,1.993899076E0,4.575844590E-1,2.137707230E0
4.258853750E0,-2.359936237E-1,2.188932077E0,6.028537810E-1,2.282662767E0
4.268862750E0,-1.221132517E-2,2.303181116E0,6.894989920E-1,2.404204906E0
4.278870750E0,1.175354666E-1,2.438612278E0,7.396060487E-1,2.551011865E0
4.288878750E0,2.699238467E-1,2.568515483E0,8.228576088E-1,2.710576565E0
4.298887750E0,5.390711832E-1,2.758373990E0,9.351837909E-1,2.962059002E0
4.308895750E0,7.145578194E-1,2.992261155E0,9.677703238E-1,3.225026991E0
4.318904750E0,7.314515948E-1,3.190296701E0,1.002448990E0,3.423144527E0
4.328912750E0,7.344126248E-1,3.307177279E0,1.030272454E0,3.540938405E0
4.338920750E0,6.794990838E-1,3.393517266E0,1.046368670E0,3.615600342E0
4.348929750E0,5.291981596E-1,3.480972608E0,1.018013036E0,3.665183697E0
4.358937750E0,3.610725832E-1,3.553087488E0,9.341803356E-1,3.691543987E0
4.368946750E0,2.403024369E-1,3.564286368E0,8.818244398E-1,3.679605538E0
4.378954750E0,8.425662339E-2,3.549870058E0,8.139348308E-1,3.642961229E0
4.388962750E0,-1.686553341E-1,3.561444329E0,7.218352640E-1,3.637770812E0
4.398971750E0,-5.295565939E-1,3.616536795E0,6.323377812E-1,3.709396129E0
4.408979750E0,-7.038656008E-1,3.706847041E0,6.721035985E-1,3.832475051E0
4.418987750E0,-7.793005300E-1,3.841315459E0,7.507836592E-1,3.990825713E0
4.428996750E0,-8.849152780E-1,4.017636493E0,8.602857093E-1,4.202923927E0
4.439004750E0,-1.143075696E0,4.215866459E0,9.041608036E-1,4.460679187E0
4.449012750E0,-1.404729241E0,4.361400733E0,9.042429569E-1,4.670410680E0
4.459021750E0,-1.609882895E0,4.310014817E0,9.891150729E-1,4.705985475E0
4.469029750E0,-1.684302163E0,4.022934070E0,1.157327553E0,4.512236627E0
4.479038750E0,-1.777194539E0,3.723971781E0,1.332215581E0,4.336033281E0
4.489046750E0,-2.163925874E0,3.531698374E0,1.456804544E0,4.390643241E0
4.499054750E0,-2.650363930E0,3.429349880E0,1.457875607E0,4.572774962E0
4.509063750E0,-3.255521514E0,3.266259926E0,1.261211526E0,4.780954795E0
4.519071750E0,-3.609318992E0,3.166850243E0,1.081166546E0,4.921894467E0
4.529079750E0,-3.659126744E0,3.196407918E0,1.021588097E0,4.964863981E0
4.539088750E0,-3.751755996E0,3.166573670E0,1.046739383E0,5.019813263E0
4.549096750E0,-4.010357294E0,2.883905232E0,1.014609006E0,5.042747907E0
4.559104750E0,-4.271656498E0,2.332884679E0,1.059962204E0,4.981256873E0
4.569113750E0,-4.640212932E0,1.631701781E0,1.226136710E0,5.069264048E0
4.579121750E0,-4.912549925E0,1.044012169E0,1.479885843E0,5.235758807E0
4.589130750E0,-4.952816191E0,8.799843210E-1,1.823542056E0,5.350707080E0
4.599138750E0,-4.987507721E0,1.101748745E0,2.019416617E0,5.492460928E0
4.609146750E0,-5.053399994E0,1.596887459E0,2.029110277E0,5.674873530E0
4.619155750E0,-5.099924535E0,2.208350680E0,1.937221137E0,5.885479481E0
4.629163750E0,-5.141569574E0,2.785439290E0,1.714402460E0,6.093733299E0
4.639171750E0,-5.355570651E0,3.137018918E0,1.427950873E0,6.368835717E0
4.649180750E0,-5.679067272E0,3.174133535E0,1.147464543E0,6.606330574E0
4.659188750E0,-5.969152903E0,2.858136553E0,7.525588739E-1,6.660786424E0
4.669197750E0,-6.041453140E0,2.247098424E0,3.592131686E-1,6.455822292E0
4.679205750E0,-5.870543704E0,1.521408091E0,1.536975718E-1,6.066431315E0
4.689213750E0,-5.534814708E0,7.867995840E-1,7.133142628E-2,5.590913665E0
4.699222750E0,-5.014028352E0,9.913983375E-2,1.145224694E-1,5.016315822E0
4.709230125E0,-4.349050829E0,-4.251241529E-1,3.084359479E-1,4.380651366E0
4.719238125E0,-3.659338998E0,-7.919740775E-1,6.745955356E-1,3.804348036E0
4.729247125E0,-3.024959369E0,-1.114142796E0,1.067043182E0,3.395625790E0
4.739255125E0,-2.463590414E0,-1.405354016E0,1.392913188E0,3.159826702E0
4.749264125E0,-1.914301806E0,-1.647239587E0,1.688618578E0,3.037989855E0
4.759272125E0,-1.388672202E0,-1.851608252E0,1.971741929E0,3.040498288E0
4.769280125E0,-9.498018301E-1,-2.017024814E0,2.093843486E0,3.058544288E0
4.779289125E0,-6.019854695E-1,-2.094966736E0,2.039382520E0,2.985021473E0
4.789297125E0,-2.510490346E-1,-2.066313333E0,1.821589086E0,2.766019379E0
4.799305125E0,9.942839384E-2,-1.928650289E0,1.594638619E0,2.504486029E0
4.809314125E0,4.555992562E-1,-1.697751051E0,1.348831029E0,2.215688259E0
4.819322125E0,7.794929034E-1,-1.551783791E0,1.078655752E0,2.044294585E0
4.829330125E0,1.056055679E0,-1.526244907E0,9.562372756E-1,2.087837839E0
4.839339125E0,1.333396719E0,-1.536818427E0,9.194841631E-1,2.232758118E0
4.849347125E0,1.585574850E0,-1.623331345E0,8.652277029E-1,2.428553323E0
4.859356125E0,1.796387440E0,-1.766807545E0,7.938612664E-1,2.641747991E0
4.869364125E0,2.059137338E0,-1.913526611E0,7.775639069E-1,2.916545268E0
4.879372125E0,2.334171066E0,-2.042477451E0,7.650122738E-1,3.194575478E0
4.889381125E0,2.478152320E0,-2.196634468E0,7.063050592E-1,3.386046181E0
4.899389125E0,2.531525704E0,-2.396209293E0,5.598767094E-1,3.530425371E0
4.909397125E0,2.590721161E0,-2.618896262E0,3.405792618E-1,3.699519969E0
4.919406125E0,2.699275305E0,-2.834196590E0,3.883486748E-2,3.914111090E0
4.929414125E0,2.889254850E0,-2.940928156E0,-1.692265705E-1,4.126195540E0
4.939422125E0,3.032937895E0,-3.067569199E0,-3.498646037E-1,4.327943889E0
4.949431125E0,3.196043637E0,-3.202988960E0,-5.110595484E-1,4.553571682E0
4.959439125E0,3.369000183E0,-3.355425287E0,-5.644620959E-1,4.788283465E0
4.969448125E0,3.464544856E0,-3.538285847E0,-5.007507976E-1,4.977277283E0
4.979456125E0,3.565967735E0,-3.709143242E0,-2.645619500E-1,5.152073612E0
4.989464125E0,3.566989828E0,-3.835510051E0,8.314740658E-3,5.237807072E0
4.999473125E0,3.541915213E0,-4.005833888E0,1.557861606E-1,5.349405373E0
5.009481125E0,3.577519494E0,-4.207357006E0,1.735266495E-1,5.525451132E0
5.019489125E0,3.535493217E0,-4.464556727E0,2.131898481E-2,5.694948073E0
5.029498125E0,3.457429379E0,-4.788356819E0,-1.985457158E-1,5.909450003E0
5.039506125E0,3.398226905E0,-5.155657271E0,-3.577887869E-1,6.185204994E0
5.049514125E0,3.481825132E0,-5.519485647E0,-4.749833608E-1,6.543197785E0
5.059523125E0,3.601288426E0,-5.875676390E0,-5.813570774E-1,6.915983474E0
5.069531125E0,3.650544201E0,-6.052430118E0,-6.677730775E-1,7.099598874E0
5.079540125E0,3.562887422E0,-5.930779381E0,-6.591589594E-1,6.950021682E0
5.089548125E0,3.278736130E0,-5.632792407E0,-5.698088264E-1,6.542411101E0
5.099556125E0,2.798119562E0,-5.282852923E0,-5.280374873E-1,6.001402475E0
5.109565125E0,2.252967859E0,-5.081221631E0,-6.597238004E-1,5.597313010E0
5.119573125E0,1.655911008E0,-5.168822862E0,-1.015372506E0,5.521752654E0
5.129581125E0,1.233642635E0,-5.437650356E0,-1.371422331E0,5.742013127E0
5.139590125E0,7.793192410E-1,-5.675046726E0,-1.626855608E0,5.954842819E0
5.149598125E0,2.820936567E-1,-5.792924255E0,-1.763041939E0,6.061836779E0
5.159606125E0,-8.247497678E-2,-5.595704103E0,-1.769538195E0,5.869409847E0
5.169615125E0,-1.299508595E-1,-4.922128834E0,-1.574844625E0,5.169562368E0
5.179623125E0,-1.486496705E-1,-3.928602987E0,-1.243550742E0,4.123401096E0
5.189632125E0,-3.269821465E-1,-2.856380049E0,-7.501919210E-1,2.971298071E0
5.199640125E0,-6.456442899E-1,-1.962461082E0,-2.148874776E-1,2.077086102E0
5.209648125E0,-1.267986256E0,-1.459845534E0,1.254239086E-1,1.937696903E0
5.219657125E0,-2.138592228E0,-1.267640101E0,3.410236867E-1,2.509339614E0
5.229665125E0,-2.777553150E0,-1.374602632E0,3.263236769E-1,3.116219029E0
5.239673125E0,-3.134011695E0,-1.799949271E0,1.015545145E-1,3.615544220E0
5.249682125E0,-3.147077299E0,-2.315373730E0,-2.844717193E-1,3.917393929E0
5.259690125E0,-2.954476447E0,-2.567914974E0,-6.363478017E-1,3.965861434E0
5.269698125E0,-2.840421828E0,-2.517951685E0,-8.668122983E-1,3.893512606E0
5.279707125E0,-2.723409687E0,-2.149997514E0,-9.834970681E-1,3.606482513E0
5.289715125E0,-2.679035752E0,-1.479404909E0,-9.576324213E-1,3.206701000E0
5.299724125E0,-2.562996588E0,-7.874112028E-1,-8.591618013E-1,2.815515391E0
5.309732125E0,-2.474006059E0,-2.752486137E-1,-7.110236891E-1,2.588826465E0
5.319740125E0,-2.367199064E0,2.220260873E-1,-4.154539546E-1,2.413613262E0
5.329749125E0,-2.263736091E0,7.376706934E-1,-8.960963968E-2,2.382580330E0
5.339757125E0,-1.965771922E0,1.279312020E0,1.920950675E-1,2.353252857E0
5.349765125E0,-1.369396271E0,1.746420643E0,5.305015405E-1,2.281811363E0
5.359774125E0,-7.223989356E-1,1.985686077E0,7.167049900E-1,2.231249753E0
5.369782125E0,-1.613808131E-1,2.043958551E0,7.958563364E-1,2.199363006E0
5.379790125E0,2.026305807E-1,2.157448621E0,8.822219773E-1,2.339649402E0
5.389799125E0,4.735923082E-1,2.304386519E0,9.869550383E-1,2.551189360E0
5.399807125E0,6.893060338E-1,2.459526599E0,1.008569856E0,2.746202297E0
5.409815125E0,1.016710349E0,2.533394474E0,9.875853682E-1,2.902948907E0
5.419824125E0,1.450221164E0,2.492821522E0,9.533534288E-1,3.037463304E0
5.429832125E0,1.789111165E0,2.472894211E0,9.105751991E-1,3.185164318E0
5.439841125E0,1.930105076E0,2.474276785E0,8.408226673E-1,3.248743445E0
5.449849125E0,1.828142499E0,2.561141559E0,7.603614715E-1,3.237236576E0
5.459857125E0,1.580912865E0,2.740178625E0,6.537725043E-1,3.230368844E0
5.469866125E0,1.210146768E0,2.921236780E0,5.019238222E-1,3.201563220E0
5.479874125E0,8.307624596E-1,3.126078193E0,4.308942584E-1,3.263158132E0
5.489882125E0,5.243514025E-1,3.299456908E0,3.660624874E-1,3.360857335E0
5.499891125E0,3.329568315E-1,3.390775214E0,2.366754822E-1,3.415293851E0
5.509899125E0,1.809110981E-1,3.437507038E0,1.453500867E-1,3.445331640E0
5.519907125E0,-2.141250372E-2,3.472843224E0,1.237014285E-1,3.475111595E0
5.529916125E0,-2.491071743E-1,3.467522551E0,1.568551048E-1,3.479995768E0
5.539924125E0,-3.486250305E-1,3.467289247E0,3.152362597E-1,3.499001005E0
5.549932125E0,-3.700661856E-1,3.547433231E0,5.493716748E-1,3.608745038E0
5.559941125E0,-4.071568286E-1,3.525780699E0,7.861395065E-1,3.635233355E0
5.569949125E0,-5.649386805E-1,3.467519919E0,9.399025670E-1,3.636793497E0
5.579957125E0,-8.505020750E-1,3.339910577E0,9.269439677E-1,3.568974862E0
5.589966125E0,-1.169536686E0,3.112765545E0,1.017675213E0,3.477468654E0
5.599974125E0,-1.458799029E0,2.836544832E0,1.240374534E0,3.422369088E0
5.609983125E0,-1.878592860E0,2.613235281E0,1.308608032E0,3.474271830E0
5.619991125E0,-2.580165183E0,2.464001473E0,1.248326747E0,3.779798315E0
5.629999125E0,-3.441693352E0,2.248654660E0,9.970016512E-1,4.230332517E0
5.640008125E0,-4.312676470E0,1.866104669E0,6.425353253E-1,4.742823696E0
5.650016125E0,-5.205184942E0,1.310358689E0,3.361377168E-1,5.378101778E0
5.660024125E0,-5.932639380E0,8.407424873E-1,2.441716126E-1,5.996889004E0
5.670033125E0,-6.246858809E0,5.004491544E-1,4.324062022E-1,6.281772796E0
5.680041125E0,-6.366498688E0,4.370682603E-1,7.774329293E-1,6.428665194E0
5.690049125E0,-6.394692793E0,6.748128328E-1,1.192878844E0,6.539910413E0
5.700058125E0,-6.284355834E0,1.219620427E0,1.622819860E0,6.604100736E0
5.710066417E0,-5.976023381E0,1.961958075E0,1.890931070E0,6.567933865E0
5.720074417E0,-5.536872343E0,2.640973010E0,2.115844220E0,6.489105527E0
5.730083417E0,-5.199841172E0,3.080907575E0,2.232241234E0,6.443076953E0
5.740091417E0,-5.022979855E0,3.187806372E0,2.263106346E0,6.365067668E0
5.750099417E0,-4.760849762E0,2.916997549E0,2.288147632E0,6.034085245E0
5.760108417E0,-4.284542592E0,2.371137748E0,2.194023832E0,5.365942603E0
5.770116417E0,-3.724402721E0,1.586552505E0,1.965452664E0,4.500147626E0
5.780125417E0,-3.350421824E0,8.682533446E-1,1.683734983E0,3.848915921E0
5.790133417E0,-3.003702986E0,3.797325101E-1,1.397692702E0,3.334662396E0
5.800141417E0,-2.687182678E0,2.846249163E-2,1.021789241E0,2.875032889E0
5.810150417E0,-2.423822331E0,-2.004159477E-1,6.234652162E-1,2.510734976E0
5.820158417E0,-2.161074187E0,-3.241111636E-1,3.230142260E-1,2.208987976E0
5.830166417E0,-1.858556206E0,-4.129560971E-1,3.949209452E-3,1.903885371E0
5.840175417E0,-1.519462722E0,-5.642680049E-1,-2.106131812E-1,1.634479506E0
5.850183417E0,-1.153069757E0,-7.804734814E-1,-2.843535872E-1,1.421114240E0
5.860191417E0,-7.255172557E-1,-9.999393654E-1,-2.066709884E-1,1.252584097E0
5.870200417E0,-2.459473389E-1,-1.148229432E0,1.761650959E-2,1.174406771E0
5.880208417E0,1.912758726E-1,-1.276207733E0,2.504772134E-1,1.314546109E0
5.890216417E0,5.788696718E-1,-1.336367104E0,5.079277432E-1,1.542387022E0
5.900225417E0,9.661816353E-1,-1.333411629E0,6.928272271E-1,1.786477845E0
5.910233417E0,1.281509696E0,-1.316443886E0,8.064608467E-1,2.006407412E0
5.920241417E0,1.529359134E0,-1.301147862E0,8.415312767E-1,2.177177074E0
5.930250417E0,1.688382350E0,-1.284137143E0,8.409769607E-1,2.281860077E0
5.940258417E0,1.807756766E0,-1.263813683E0,7.836555362E-1,2.340795922E0
5.950266417E0,1.897911476E0,-1.280108411E0,7.448194993E-1,2.407384805E0
5.960275417E0,1.946796538E0,-1.382008715E0,5.876475120E-1,2.458718049E0
5.970283417E0,1.926213169E0,-1.492125088E0,3.690294743E-1,2.464328956E0
5.980292417E0,2.012314589E0,-1.545479616E0,1.619889235E-1,2.542470778E0
5.990300417E0,2.317232852E0,-1.666496222E0,-4.913884917E-2,2.854679032E0
6.000308417E0,2.561010874E0,-1.823447915E0,-1.423071774E-1,3.147060586E0
6.010317417E0,2.634139661E0,-1.936222871E0,-1.230464490E-1,3.271512065E0
6.020325417E0,2.708296389E0,-2.040345118E0,-6.185182890E-2,3.391416102E0
6.030333417E0,2.830777431E0,-2.164093543E0,-6.519877514E-2,3.563825558E0
6.040342417E0,2.902171934E0,-2.349747172E0,-1.020526242E-1,3.735549282E0
6.050350417E0,2.865152627E0,-2.471705765E0,-2.434640082E-1,3.791794256E0
6.060358417E0,2.790315868E0,-2.629917387E0,-4.946860655E-1,3.866140505E0
6.070367417E0,2.927097445E0,-2.926939277E0,-5.954406810E-1,4.182035699E0
6.080375417E0,3.072023023E0,-3.071117874E0,-4.963783594E-1,4.372125562E0
6.090383417E0,3.178314294E0,-3.086208369E0,-4.483013463E-1,4.452789906E0
6.100392417E0,3.127245882E0,-3.173918942E0,-4.803288853E-1,4.481533677E0
6.110400417E0,3.032737336E0,-3.304981357E0,-4.231068635E-1,4.505487425E0
6.120408417E0,2.832412312E0,-3.488127846E0,-3.003995712E-1,4.503313811E0
6.130417417E0,2.534976146E0,-3.825399338E0,-6.951754689E-2,4.589620556E0
6.140425417E0,2.471702256E0,-4.169992129E0,1.187755879E-1,4.848943600E0
6.150433417E0,2.320465778E0,-4.557518685E0,1.569159158E-1,5.116655215E0
6.160442417E0,2.193746089E0,-4.696353512E0,-2.839758754E-2,5.183537849E0
6.170450417E0,2.154934026E0,-4.691441850E0,-2.068148482E-1,5.166830718E0
6.180458417E0,1.917399076E0,-4.604036209E0,-2.786222013E-1,4.995117512E0
6.190467417E0,1.450793606E0,-4.523530574E0,-3.293865581E-1,4.761893158E0
6.200475417E0,1.102617642E0,-4.701733242E0,-4.583199291E-1,4.850991476E0
6.210483417E0,9.684731591E-1,-4.938929054E0,-6.249492395E-1,5.071638986E0
6.220492417E0,7.131042016E-1,-5.222058837E0,-9.409853983E-1,5.353864923E0
6.230500417E0,4.604384118E-1,-5.456028154E0,-1.162935179E0,5.597558842E0
6.240508417E0,2.963006365E-1,-5.480315734E0,-1.205238615E0,5.619097324E0
6.250517417E0,1.894503719E-1,-5.361019671E0,-1.210904567E0,5.499337526E0
6.260525417E0,8.972610891E-2,-4.775676254E0,-1.115803113E0,4.905114784E0
6.270533417E0,8.842042565E-2,-3.867433217E0,-6.413717294E-1,3.921251784E0
6.280542417E0,7.884619474E-2,-2.876585980E0,3.219358167E-2,2.877846425E0
6.290550417E0,1.699961007E-2,-2.044072864E0,7.392307305E-1,2.173703046E0
6.300559417E0,-1.979247415E-1,-1.375736407E0,1.252873542E0,1.871234079E0
6.310567417E0,-5.747187334E-1,-1.040689781E0,1.513151822E0,1.924309039E0
6.320575417E0,-9.729000860E-1,-1.216504446E0,1.594949691E0,2.229412963E0
6.330584417E0,-1.235071694E0,-1.370915962E0,1.266712732E0,2.238163044E0
6.340592417E0,-1.432456738E0,-1.457843886E0,8.007106948E-1,2.195080572E0
6.350600417E0,-1.614039681E0,-1.686931364E0,2.102003860E-1,2.344151386E0
6.360609417E0,-1.740044839E0,-1.657229555E0,-3.849490670E-1,2.433588220E0
6.370617417E0,-1.985678183E0,-1.431128835E0,-7.582271647E-1,2.562412149E0
6.380625417E0,-2.168634637E0,-1.072462089E0,-9.574815631E-1,2.601907390E0
6.390634417E0,-2.172144721E0,-4.233398750E-1,-8.106954002E-1,2.356831850E0
6.400642417E0,-2.070761018E0,-2.015014833E-1,-8.354805779E-1,2.242026279E0
6.410650417E0,-1.782551174E0,1.039488763E-2,-6.976698911E-1,1.914246593E0
6.420659417E0,-1.312412816E0,2.856779999E-1,-2.827619934E-1,1.372586487E0
6.430667417E0,-8.778910178E-1,3.058105481E-1,1.169910908E-2,9.297040387E-1
6.440675417E0,-3.464948899E-1,4.499701416E-1,2.957685399E-1,6.403209088E-1
6.450684417E0,3.006240678E-1,6.910482118E-1,4.284044409E-1,8.668637875E-1
6.460692417E0,8.399531132E-1,9.679428166E-1,4.629936451E-1,1.362643623E0
6.470700417E0,1.057296458E0,1.299678457E0,5.870651293E-1,1.775298667E0
6.480709417E0,1.177956092E0,1.542122144E0,7.742771870E-1,2.089312429E0
6.490717417E0,1.222805405E0,1.670926073E0,8.080267310E-1,2.222645765E0
6.500725417E0,1.141606291E0,1.874078225E0,6.907046878E-1,2.300544953E0
6.510734417E0,1.224051447E0,2.029196962E0,5.593750548E-1,2.434921500E0
6.520742417E0,1.344378374E0,2.059478230E0,4.444439381E-1,2.499266734E0
6.530750417E0,1.281896197E0,2.082372711E0,3.915956336E-1,2.476465447E0
6.540759417E0,1.113018084E0,2.172451992E0,4.256673592E-1,2.477811456E0
6.550767417E0,8.598377395E-1,2.317033170E0,4.925542438E-1,2.520034391E0
6.560775417E0,7.013477898E-1,2.428562084E0,5.226229656E-1,2.581266604E0
6.570784417E0,6.447414798E-1,2.558708240E0,4.624223721E-1,2.678901619E0
6.580792417E0,5.460469115E-1,2.588774916E0,3.897344649E-1,2.674287895E0
6.590800417E0,6.078905725E-1,2.717218363E0,4.109657049E-1,2.814551366E0
6.600809417E0,5.369246703E-1,2.795118771E0,4.384651601E-1,2.879796649E0
6.610817417E0,3.626916772E-1,2.775727649E0,3.578297174E-1,2.822100520E0
6.620825417E0,2.025341016E-1,2.769969311E0,3.124997628E-1,2.794889291E0
6.630834417E0,-1.737441659E-2,2.719517781E0,2.806067097E-1,2.734011513E0
6.640842417E0,-1.666193336E-1,2.732015619E0,2.219345967E-1,2.746074710E0
6.650850417E0,-2.428991854E-1,2.840801897E0,2.253236246E-1,2.860057022E0
6.660859417E0,-3.399214500E-1,2.949453104E0,2.181830049E-1,2.976982370E0
6.670867417E0,-4.403403622E-1,3.028004014E0,1.598827565E-1,3.064028466E0
6.680875417E0,-5.373380685E-1,3.004004118E0,1.010340484E-1,3.053355665E0
6.690884417E0,-6.615902317E-1,2.843387536E0,7.179913501E-2,2.920224209E0
6.700892417E0,-8.140014160E-1,2.725045738E0,1.169782178E-1,2.846428725E0
6.710900125E0,-1.021484016E0,2.578716243E0,2.474225914E-1,2.784676821E0
6.720909125E0,-1.476241858E0,2.300008124E0,3.688727689E-1,2.757787975E0
6.730917125E0,-1.939657672E0,2.036580534E0,4.608611655E-1,2.849969328E0
6.740925125E0,-2.407112743E0,1.855906833E0,4.411595571E-1,3.071352094E0
6.750934125E0,-2.875334968E0,1.790086480E0,4.195424008E-1,3.412913215E0
6.760942125E0,-3.339030279E0,1.832012186E0,4.291786122E-1,3.832699588E0
6.770950125E0,-3.891852359E0,1.830003667E0,4.911286926E-1,4.328583556E0
6.780959125E0,-4.514345183E0,1.665938982E0,5.741193938E-1,4.846058007E0
6.790967125E0,-4.771307507E0,1.444558720E0,7.029534352E-1,5.034507797E0
6.800975125E0,-4.827087021E0,1.291081004E0,9.307200265E-1,5.082705877E0
6.810984125E0,-4.926830580E0,1.076249623E0,1.133611393E0,5.168853606E0
6.820992125E0,-4.994525549E0,8.293790084E-1,1.255822878E0,5.216344132E0
6.831000125E0,-5.046862807E0,7.746414685E-1,1.467978573E0,5.312801021E0
6.841009125E0,-5.025600577E0,1.127226233E0,1.723189656E0,5.431084858E0
6.851017125E0,-4.970794040E0,1.811311288E0,1.845295891E0,5.603102613E0
6.861025125E0,-4.902408514E0,2.577782443E0,1.718670927E0,5.799344904E0
6.871034125E0,-4.812876533E0,3.282122253E0,1.417500730E0,5.995449551E0
6.881042125E0,-4.882941379E0,3.633764446E0,1.044088182E0,6.175555092E0
6.891050125E0,-5.061956810E0,3.522751549E0,6.847878903E-1,6.205007629E0
6.901059125E0,-4.989671776E0,2.995425668E0,3.479028994E-1,5.830131713E0
6.911067125E0,-4.720111041E0,2.312358028E0,1.042406523E-1,5.257120315E0
6.921075125E0,-4.329479613E0,1.696287201E0,-2.652890878E-3,4.649923766E0
6.931084125E0,-3.856302457E0,1.207290403E0,-1.676046808E-2,4.040903324E0
6.941092125E0,-3.404795668E0,8.134789672E-1,5.194664558E-2,3.501011286E0
6.951100125E0,-2.959736602E0,4.951618096E-1,9.445942084E-2,3.002357166E0
6.961109125E0,-2.558312384E0,1.904005444E-1,1.670596290E-1,2.570821569E0
6.971117125E0,-2.188200590E0,-9.333530277E-2,2.582703094E-1,2.205365469E0
6.981126125E0,-1.839424701E0,-3.535820076E-1,4.463881373E-1,1.925555981E0
6.991134125E0,-1.408839834E0,-5.901697084E-1,6.343743664E-1,1.653953082E0
7.001142125E0,-9.510987425E-1,-7.378791466E-1,8.022958750E-1,1.446628191E0
7.011151125E0,-4.854709268E-1,-8.360155982E-1,9.576955712E-1,1.360803038E0
7.021159125E0,1.670081735E-2,-8.424571833E-1,1.137478741E0,1.415581474E0
7.031167125E0,3.627507341E-1,-8.195112473E-1,1.290347178E0,1.571045072E0
7.041176125E0,6.162251937E-1,-7.727735755E-1,1.393537670E0,1.708467069E0
7.051184125E0,8.124893260E-1,-7.211678043E-1,1.454148738E0,1.815150258E0
7.061192125E0,9.843547815E-1,-7.453589049E-1,1.422374969E0,1.883524564E0
7.071200125E0,1.091706153E0,-8.055451727E-1,1.366939856E0,1.925941307E0
7.081209125E0,1.211844800E0,-9.520974469E-1,1.217405502E0,1.963958635E0
7.091217125E0,1.328666906E0,-1.127892231E0,1.016926696E0,2.017829660E0
7.101225125E0,1.362350961E0,-1.330747637E0,7.819224215E-1,2.058711269E0
7.111234125E0,1.512306315E0,-1.519996573E0,5.327363098E-1,2.209359171E0
7.121242125E0,1.795925510E0,-1.682387200E0,2.722837830E-1,2.475866230E0
7.131250125E0,2.197695299E0,-1.836768604E0,9.687666893E-2,2.865827737E0
7.141259125E0,2.556057113E0,-1.928954198E0,-4.291739345E-2,3.202519971E0
7.151267125E0,2.807365764E0,-2.042801387E0,-6.467956523E-2,3.472538478E0
7.161275125E0,2.879209333E0,-2.252937892E0,-7.097350930E-3,3.655902884E0
7.171284125E0,2.890983286E0,-2.435195019E0,2.105652523E-1,3.785802011E0
7.181292125E0,3.034012613E0,-2.599448715E0,2.965894890E-1,4.006286496E0
7.191300125E0,3.208839099E0,-2.773928461E0,1.822963035E-1,4.245534055E0
7.201309125E0,3.368342371E0,-2.895993766E0,9.242342949E-2,4.443090401E0
7.211317125E0,3.564404774E0,-3.037499016E0,1.129506648E-1,4.684457228E0
7.221325125E0,3.795244077E0,-3.165101341E0,1.468504822E-1,4.944017513E0
7.231334125E0,3.894067284E0,-3.312321367E0,1.780295902E-1,5.115361902E0
7.241342125E0,3.933027867E0,-3.511644763E0,1.754082835E-1,5.275521321E0
7.251350125E0,3.886091098E0,-3.735317718E0,4.651109219E-2,5.390404972E0
7.261359125E0,3.771571040E0,-3.987439717E0,-1.474971843E-1,5.490553618E0
7.271367125E0,3.568799542E0,-4.309971548E0,-3.638500106E-1,5.607545964E0
7.281375125E0,3.399895701E0,-4.639227384E0,-4.769667363E-1,5.771413931E0
7.291384125E0,3.307095126E0,-4.860353877E0,-5.021179497E-1,5.900172914E0
7.301392125E0,3.269268903E0,-4.847673021E0,-4.303433776E-1,5.862870312E0
7.311400125E0,3.103265866E0,-4.742355311E0,-3.721109569E-1,5.679670721E0
7.321409125E0,2.793166385E0,-4.677878941E0,-3.600481510E-1,5.460216527E0
7.331417125E0,2.222161219E0,-4.848010113E0,-4.642478728E-1,5.353197981E0
7.341425125E0,1.602831738E0,-5.287873927E0,-6.117485654E-1,5.559219060E0
7.351434125E0,1.133728337E0,-5.830384442E0,-7.256113958E-1,5.983747537E0
7.361442125E0,7.052326798E-1,-6.225712354E0,-6.806240880E-1,6.302388166E0
7.371450125E0,4.849575412E-1,-6.381623096E0,-5.821511292E-1,6.426445137E0
7.381459125E0,3.748310816E-1,-6.206291412E0,-4.883372319E-1,6.236747925E0
7.391467125E0,2.609752679E-1,-5.572625728E0,-2.801471186E-1,5.585762974E0
7.401475125E0,7.866668522E-2,-4.532392614E0,1.136722294E-1,4.534500263E0
7.411484125E0,-5.575378597E-2,-3.248179166E0,5.692989492E-1,3.298162772E0
7.421492125E0,-2.155932730E-1,-2.116009696E0,8.706387162E-1,2.298257877E0
7.431500125E0,-7.229485738E-1,-1.353222873E0,1.074852723E0,1.873279253E0
7.441509125E0,-1.473875490E0,-8.405736490E-1,1.221413183E0,2.090627462E0
7.451517125E0,-2.209002644E0,-7.089605722E-1,1.073780344E0,2.556427586E0
7.461525125E0,-2.715595468E0,-9.953574872E-1,6.870314670E-1,2.972744105E0
7.471534125E0,-2.885406212E0,-1.467943782E0,1.578082009E-1,3.241192895E0
7.481542125E0,-2.830255859E0,-1.864753085E0,-2.405053353E-1,3.397866259E0
7.491550125E0,-2.662673489E0,-2.049398508E0,-4.486229432E-1,3.389856471E0
7.501559125E0,-2.393462418E0,-1.974549177E0,-6.523434448E-1,3.170655889E0
7.511567125E0,-2.228460424E0,-1.604738223E0,-8.550102782E-1,2.876154238E0
7.521575125E0,-2.109074898E0,-1.092668312E0,-9.674533316E-1,2.564778142E0
7.531583125E0,-2.110540795E0,-5.188140893E-1,-8.403513086E-1,2.330180429E0
7.541592125E0,-2.095031641E0,4.822520345E-2,-5.479612899E-1,2.166043587E0
7.551600125E0,-1.875072252E0,5.098760355E-1,-2.118539604E-1,1.954674300E0
7.561608125E0,-1.527283373E0,8.876573297E-1,1.712450659E-1,1.774783060E0
7.571617125E0,-1.045785629E0,1.166729730E0,4.717159367E-1,1.636289024E0
7.581625125E0,-6.004628545E-1,1.397393032E0,6.284154689E-1,1.645651521E0
7.591633125E0,-1.428632659E-1,1.588064887E0,6.468681121E-1,1.720697054E0
7.601642125E0,3.450184679E-1,1.788698936E0,5.975328147E-1,1.917166423E0
7.611650125E0,6.640390456E-1,2.010223040E0,5.073441911E-1,2.177003136E0
7.621658125E0,7.891074800E-1,2.112022480E0,2.929881889E-1,2.273581239E0
7.631667125E0,9.580230153E-1,2.190700859E0,5.589353442E-2,2.391673565E0
7.641675125E0,1.084625174E0,2.270619434E0,-1.230102146E-1,2.519376092E0
7.651683125E0,1.110279833E0,2.361626667E0,-2.183999366E-1,2.618721130E0
7.661692125E0,1.190773773E0,2.403441568E0,-2.688134422E-1,2.695688079E0
7.671700125E0,1.251545640E0,2.428537818E0,-2.858481538E-1,2.746974989E0
7.681708125E0,1.232345722E0,2.484116772E0,-2.485441057E-1,2.784113196E0
7.691717125E0,1.188491020E0,2.488467393E0,-2.053179793E-1,2.765345610E0
7.701725125E0,1.104589323E0,2.597424994E0,-1.967897787E-1,2.829392230E0
7.711733625E0,9.622341800E-1,2.735304386E0,-2.125135446E-1,2.907395175E0
7.721742625E0,8.367938626E-1,2.827235187E0,-2.649601819E-1,2.960352457E0
7.731750625E0,6.636338335E-1,2.847061926E0,-3.394139117E-1,2.943021114E0
7.741758625E0,4.300580335E-1,2.935266297E0,-3.385561252E-1,2.985859742E0
7.751767625E0,2.995663065E-1,3.031653847E0,-3.508125104E-1,3.066550902E0
7.761775625E0,2.578844297E-1,3.082769913E0,-2.893681777E-1,3.107041786E0
7.771783625E0,2.233624685E-1,3.138043058E0,-1.430673520E-1,3.149233763E0
7.781791625E0,5.147011578E-2,3.138907569E0,-4.896637458E-2,3.139711389E0
7.791800625E0,-1.222284418E-1,3.215799624E0,6.461520474E-2,3.218770284E0
7.801808625E0,-1.802895391E-1,3.180418707E0,8.538221240E-2,3.186668730E0
7.811816625E0,-2.466180146E-1,2.944700487E0,2.748191357E-4,2.955009557E0
7.821825625E0,-4.530896312E-1,2.715922912E0,-4.053876439E-2,2.753755776E0
7.831833625E0,-1.002815611E0,2.449975757E0,-4.998843133E-2,2.647738507E0
7.841841625E0,-1.861134828E0,2.220436875E0,-1.088874346E-1,2.899313580E0
7.851850625E0,-2.419457969E0,2.232745264E0,-1.273453403E-1,3.294714724E0
7.861858625E0,-2.601475360E0,2.220236900E0,-2.500912607E-1,3.429237755E0
7.871866625E0,-2.688163841E0,2.196286705E0,-3.674893177E-1,3.490694562E0
7.881875625E0,-2.863811275E0,2.329542410E0,-3.382076677E-1,3.707096882E0
7.891883625E0,-3.421917484E0,2.292928900E0,-1.926336143E-1,4.123608847E0
7.901891625E0,-4.249328320E0,1.936576189E0,2.639023840E-2,4.669883827E0
7.911900625E0,-4.658980740E0,1.766321057E0,3.708865499E-1,4.996353515E0
7.921908625E0,-4.777065845E0,1.500337064E0,5.711250347E-1,5.039598516E0
7.931916625E0,-4.758850014E0,1.145207591E0,6.794903129E-1,4.941645573E0
7.941925625E0,-4.781441317E0,1.033732764E0,7.216943461E-1,4.944858665E0
7.951933625E0,-4.837683345E0,1.294318022E0,6.802019191E-1,5.053821716E0
7.961941625E0,-4.840369556E0,1.939669366E0,7.378162891E-1,5.266485314E0
7.971950625E0,-4.904760264E0,2.658529567E0,7.702911401E-1,5.631855924E0
7.981958625E0,-4.916022586E0,3.143064939E0,6.714778733E-1,5.873416196E0
7.991966625E0,-5.069578071E0,3.447051156E0,3.989602017E-1,6.143447951E0
8.001974625E0,-5.486142485E0,3.369638114E0,-1.616523067E-2,6.438360171E0
8.011983625E0,-5.955466325E0,2.872041231E0,-4.360356420E-1,6.626184956E0
8.021991625E0,-6.225973139E0,2.231857072E0,-7.111266732E-1,6.652039437E0
8.031999625E0,-6.130838356E0,1.538907638E0,-8.209332901E-1,6.374115400E0
8.042008625E0,-5.857955818E0,8.398893785E-1,-7.558508563E-1,5.965934215E0
8.052016625E0,-5.446024153E0,3.035342270E-1,-4.844763154E-1,5.475950092E0
8.062024625E0,-4.843706562E0,-5.548803002E-2,-7.163190921E-2,4.844553985E0
8.072033625E0,-4.159329146E0,-2.688818729E-1,4.709978986E-1,4.194538762E0
8.082041625E0,-3.534096317E0,-4.465837267E-1,1.029739115E0,3.708050222E0
8.092049625E0,-2.949421529E0,-5.574083439E-1,1.540868794E0,3.374028461E0
8.102058625E0,-2.570599138E0,-6.279213792E-1,1.923043978E0,3.271140983E0
8.112066625E0,-2.436155278E0,-7.260584155E-1,2.026537356E0,3.250979394E0
8.122074625E0,-2.073626738E0,-7.736366245E-1,1.738428669E0,2.814351739E0
8.132082625E0,-1.362410603E0,-8.027616057E-1,1.237228732E0,2.007815674E0
8.142091625E0,-6.471423465E-1,-8.060062256E-1,9.277660131E-1,1.388952493E0
8.152099625E0,-1.493378878E-3,-8.501465642E-1,8.039903980E-1,1.170107675E0
8.162107625E0,5.372059214E-1,-9.200813100E-1,8.379434252E-1,1.355466341E0
8.172116625E0,9.239074355E-1,-1.049460604E0,1.011582341E0,1.725766885E0
8.182124625E0,1.287236459E0,-1.305872705E0,1.210849603E0,2.197370698E0
8.192132625E0,1.666079900E0,-1.620848179E0,1.361776764E0,2.693957499E0
8.202141625E0,2.065161724E0,-1.889975050E0,1.484721490E0,3.168800489E0
8.212149625E0,2.460474433E0,-2.097405025E0,1.487613523E0,3.558937520E0
8.222157625E0,2.809105310E0,-2.256016597E0,1.295141895E0,3.828586692E0
8.232166625E0,3.026951516E0,-2.379840159E0,9.487352979E-1,3.965623952E0
8.242174625E0,3.160197866E0,-2.472468826E0,4.994048417E-1,4.043433917E0
8.252182625E0,3.256920753E0,-2.539875528E0,5.316756248E-2,4.130535956E0
8.262191625E0,3.356995264E0,-2.611142562E0,-3.520058906E-1,4.267480619E0
8.272199625E0,3.483669344E0,-2.725913173E0,-6.152194726E-1,4.465988102E0
8.282207625E0,3.623229518E0,-2.859832830E0,-7.408515787E-1,4.674964921E0
8.292216625E0,3.660288001E0,-3.027371346E0,-7.026891410E-1,4.801714022E0
8.302224625E0,3.702510746E0,-3.230242539E0,-4.989663005E-1,4.938827801E0
8.312232625E0,3.821923168E0,-3.398335079E0,-2.364157744E-1,5.119733434E0
8.322240625E0,3.890193504E0,-3.555749433E0,3.893057909E-3,5.270386579E0
8.332249625E0,3.955768273E0,-3.739599927E0,8.939223289E-2,5.444327435E0
8.342257625E0,4.059758080E0,-3.936901940E0,7.560097178E-2,5.655665130E0
8.352265625E0,4.149188320E0,-4.083679039E0,-1.829241117E-2,5.821729367E0
8.362274625E0,4.097384328E0,-4.242797857E0,-1.717736908E-1,5.900796403E0
8.372282625E0,3.907222935E0,-4.483872127E0,-2.448287666E-1,5.952431557E0
8.382290625E0,3.586771544E0,-4.816817556E0,-2.419530694E-1,6.010424508E0
8.392299625E0,3.305739157E0,-5.082226183E0,-2.554695114E-1,6.068129779E0
8.402307625E0,3.144724964E0,-5.264459336E0,-2.312959707E-1,6.136556447E0
8.412315625E0,2.999443874E0,-5.361713151E0,-2.090356572E-1,6.147221110E0
8.422324625E0,2.925870699E0,-5.261076137E0,-1.370212944E-1,6.021496185E0
8.432332625E0,2.743276772E0,-5.086287074E0,-9.084930422E-2,5.779631238E0
8.442340625E0,2.271803495E0,-5.029194276E0,-1.991889461E-1,5.522097647E0
8.452348625E0,1.645203001E0,-5.183189471E0,-4.293891120E-1,5.454953805E0
8.462357625E0,1.049692154E0,-5.645582022E0,-7.469221580E-1,5.790711761E0
8.472365625E0,7.500913489E-1,-5.930637293E0,-8.559598660E-1,6.038854447E0
8.482373625E0,7.500317073E-1,-6.057397327E0,-8.332843637E-1,6.160273758E0
8.492382625E0,7.907996643E-1,-5.992172806E0,-7.237145591E-1,6.087303328E0
8.502390625E0,7.908002490E-1,-5.624334995E0,-4.794810390E-1,5.699860633E0
8.512398625E0,7.157769638E-1,-4.857434655E0,-6.410887241E-3,4.909892991E0
8.522407625E0,4.900405258E-1,-3.731411778E0,6.137412965E-1,3.813168231E0
8.532415625E0,-8.668848038E-2,-2.836845379E0,1.070068531E0,3.033191925E0
8.542423625E0,-8.401314533E-1,-2.279381779E0,1.377339714E0,2.792573515E0
8.552431625E0,-1.743412251E0,-2.064366064E0,1.490150045E0,3.085715586E0
8.562440625E0,-2.567017719E0,-2.232559322E0,1.453526595E0,3.699546007E0
8.572448625E0,-3.019376448E0,-2.606346091E0,1.292489598E0,4.192875319E0
8.582456625E0,-3.054729883E0,-2.978857582E0,9.363660979E-1,4.368266089E0
8.592465625E0,-2.962056777E0,-3.146287632E0,6.166017544E-1,4.364986133E0
8.602473625E0,-2.888804614E0,-3.003068563E0,4.355006218E-1,4.189662717E0
8.612481625E0,-2.896763844E0,-2.520178305E0,3.168676694E-1,3.852654225E0
8.622490625E0,-2.992475747E0,-1.789315817E0,2.594830950E-1,3.496268535E0
8.632498625E0,-2.998890728E0,-9.591249231E-1,2.079562247E-1,3.155394113E0
8.642506625E0,-2.965739939E0,-2.584749985E-1,5.951310709E-2,2.977576954E0
8.652515625E0,-2.775225958E0,4.034248433E-1,2.625436373E-3,2.804396123E0
8.662523625E0,-2.407265940E0,9.900131321E-1,1.624477107E-2,2.602944333E0
8.672531625E0,-1.826750861E0,1.395823639E0,3.298765182E-2,2.299223897E0
8.682539625E0,-1.079023542E0,1.675524615E0,9.956523696E-2,1.995391635E0
8.692548625E0,-2.334734738E-1,1.849047756E0,2.051951877E-1,1.874991342E0
8.702556625E0,5.009824204E-1,1.966008442E0,3.071133077E-1,2.051948138E0
8.712563917E0,8.826173222E-1,2.075194377E0,3.194988799E-1,2.277613789E0
8.722572917E0,1.112888861E0,2.237285627E0,4.024428034E-1,2.530993639E0
8.732580917E0,1.292748045E0,2.430332328E0,4.290757012E-1,2.786004072E0
8.742588917E0,1.357335219E0,2.682055839E0,3.068759108E-1,3.021581580E0
8.752597917E0,1.371246915E0,2.889520313E0,9.995347381E-2,3.199943193E0
8.762605917E0,1.176921135E0,3.010022657E0,-1.574304342E-1,3.235763294E0
8.772613917E0,9.238811231E-1,3.101511409E0,-3.661742789E-1,3.256840947E0
8.782621917E0,7.694555730E-1,3.242971051E0,-5.414720500E-1,3.376701807E0
8.792630917E0,6.420605314E-1,3.427265933E0,-6.988463509E-1,3.556231112E0
8.802638917E0,5.155010569E-1,3.541867266E0,-7.884841669E-1,3.665006460E0
8.812646917E0,2.668166363E-1,3.639799065E0,-8.213291466E-1,3.740843477E0
8.822655917E0,7.252710879E-2,3.746654008E0,-7.996769071E-1,3.831730626E0
8.832663917E0,1.215910953E-1,3.932672649E0,-7.021523666E-1,3.996713212E0
8.842671917E0,1.060468572E-1,4.135464905E0,-5.038493103E-1,4.167394875E0
8.852680917E0,1.362927496E-2,4.290871033E0,-3.274715585E-1,4.303370493E0
8.862688917E0,-1.608001846E-1,4.395474797E0,-2.396949112E-1,4.404941435E0
8.872696917E0,-4.146354175E-1,4.337063452E0,-2.099489558E-1,4.361894139E0
8.882704917E0,-5.545610422E-1,4.201052538E0,-4.022006373E-2,4.237687817E0
8.892713917E0,-6.785652834E-1,4.133589118E0,2.050162446E-1,4.193929125E0
8.902721917E0,-9.235396457E-1,3.998448270E0,3.503324175E-1,4.118646240E0
8.912729917E0,-1.393759865E0,3.779665926E0,3.408049643E-1,4.042844184E0
8.922738917E0,-2.128094137E0,3.528823882E0,2.560144901E-1,4.128792325E0
8.932746917E0,-2.836702999E0,3.358103896E0,1.685471606E-1,4.399108299E0
8.942754917E0,-3.406808864E0,3.263126403E0,1.213566220E-1,4.719011336E0
8.952763917E0,-3.908000615E0,3.216113035E0,1.288971913E-1,5.062851602E0
8.962771917E0,-4.403696567E0,3.219883904E0,2.276169026E-1,5.460037113E0
8.972779917E0,-4.924235001E0,3.079253690E0,3.414692080E-1,5.817774046E0
8.982787917E0,-5.281239091E0,2.775376816E0,4.976237798E-1,5.986804844E0
8.992796917E0,-5.540570122E0,2.464683259E0,7.115125895E-1,6.105639279E0
9.002804917E0,-5.929976558E0,1.976626108E0,9.993090355E-1,6.330109896E0
9.012812917E0,-6.248659751E0,1.358188328E0,1.298040944E0,6.524977741E0
9.022821917E0,-6.371879881E0,9.540036392E-1,1.698450086E0,6.663010495E0
9.032829917E0,-6.274574026E0,8.842498648E-1,2.032335455E0,6.654514591E0
9.042837917E0,-6.163987391E0,1.189440023E0,2.170823250E0,6.642437934E0
9.052846917E0,-5.938446250E0,1.892002280E0,2.152175310E0,6.593684482E0
9.062854917E0,-5.721685288E0,2.674784827E0,1.913643994E0,6.599559814E0
9.072862917E0,-5.572183678E0,3.170222332E0,1.536730134E0,6.592501808E0
9.082870917E0,-5.467668207E0,3.205566997E0,1.092503128E0,6.431533136E0
9.092879917E0,-5.238471386E0,2.760882154E0,7.112494648E-1,5.964053029E0
9.102887917E0,-4.824694340E0,1.908721223E0,5.231246567E-1,5.214839556E0
9.112895917E0,-4.400578832E0,9.889205799E-1,6.097850704E-1,4.551361972E0
9.122904917E0,-3.994439419E0,1.991821852E-1,8.027256453E-1,4.079165144E0
9.132912917E0,-3.583114110E0,-5.253527382E-1,9.811557698E-1,3.751981992E0
9.142920917E0,-3.096006548E0,-1.044386390E0,1.115859246E0,3.452700586E0
9.152928917E0,-2.575332459E0,-1.316064110E0,1.204228216E0,3.132814647E0
9.162937917E0,-2.123237439E0,-1.429338710E0,1.262696865E0,2.854040950E0
9.172945917E0,-1.781101649E0,-1.460801408E0,1.278087906E0,2.634344801E0
9.182953917E0,-1.451649638E0,-1.407197351E0,1.328909565E0,2.419399035E0
9.192962917E0,-1.127210446E0,-1.331449596E0,1.361889031E0,2.213165865E0
9.202970917E0,-8.251596576E-1,-1.284179827E0,1.343877268E0,2.033718860E0
9.212978917E0,-5.241713083E-1,-1.185841939E0,1.287638748E0,1.827290401E0
9.222987917E0,-1.615907282E-1,-9.989201957E-1,1.245977336E0,1.605120757E0
9.232995917E0,1.941199583E-1,-8.655490074E-1,1.194535872E0,1.487875529E0
9.243003917E0,4.940973240E-1,-8.437754381E-1,1.199467413E0,1.547517764E0
9.253011917E0,7.859570003E-1,-8.291392726E-1,1.279458493E0,1.715288423E0
9.263020917E0,1.052061446E0,-8.735278255E-1,1.321463721E0,1.901617867E0
9.273028917E0,1.262737210E0,-9.865109423E-1,1.369208575E0,2.107709948E0
9.283036917E0,1.478352118E0,-1.122439410E0,1.364066534E0,2.303491421E0
9.293045917E0,1.672592529E0,-1.254366336E0,1.324489070E0,2.474928680E0
9.303053917E0,1.829149974E0,-1.340061667E0,1.292800670E0,2.610151044E0
9.313061917E0,1.911444857E0,-1.435058895E0,1.153377321E0,2.653920631E0
9.323069917E0,1.939089907E0,-1.601612886E0,8.404542196E-1,2.651715822E0
9.333078917E0,1.908204914E0,-1.781173131E0,4.083636940E-1,2.642079602E0
9.343086917E0,1.960554451E0,-1.903627860E0,-2.329528889E-2,2.732785293E0
9.353094917E0,2.058717508E0,-2.089729239E0,-3.851221812E-1,2.958649213E0
9.363103917E0,2.292569296E0,-2.327690012E0,-6.408595133E-1,3.329371666E0
9.373111917E0,2.504390531E0,-2.601982899E0,-7.763780916E-1,3.693920665E0
9.383119917E0,2.763916274E0,-2.907197323E0,-7.254862654E-1,4.076439594E0
9.393128917E0,3.032811595E0,-3.159090403E0,-5.190409613E-1,4.409898170E0
9.403136917E0,3.199623302E0,-3.378718548E0,-2.294330478E-1,4.658966390E0
9.413144917E0,3.287257277E0,-3.575042906E0,6.334407488E-2,4.857057202E0
9.423152917E0,3.354247073E0,-3.732020766E0,3.317663383E-1,5.028819079E0
9.433161917E0,3.444205901E0,-3.892146182E0,5.174715686E-1,5.222942946E0
9.443169917E0,3.547462467E0,-4.137916935E0,4.634035714E-1,5.470063015E0
9.453177917E0,3.596128843E0,-4.415882750E0,3.086920194E-1,5.703284481E0
9.463186917E0,3.589354843E0,-4.723762627E0,1.756188015E-1,5.935338534E0
9.473194917E0,3.495899965E0,-5.064481053E0,1.024080984E-1,6.154735764E0
9.483202917E0,3.369425860E0,-5.397761235E0,-5.601632595E-4,6.363085517E0
9.493210917E0,3.369286112E0,-5.697926297E0,2.118563175E-2,6.619584716E0
9.503219917E0,3.448151602E0,-5.774316076E0,1.423376560E-1,6.727015358E0
9.513227917E0,3.449470734E0,-5.662004512E0,2.659828234E-1,6.635351558E0
9.523235917E0,3.186239026E0,-5.556835907E0,2.819971776E-1,6.411713252E0
9.533244917E0,2.564066629E0,-5.592033221E0,1.113707471E-1,6.152859227E0
9.543252917E0,1.843935828E0,-5.846972408E0,-2.208961495E-1,6.134817095E0
9.553260917E0,1.357179099E0,-6.050616311E0,-5.382911281E-1,6.224279090E0
9.563268917E0,1.122725047E0,-6.135104485E0,-6.746330309E-1,6.273368178E0
9.573277917E0,8.278271574E-1,-6.240414008E0,-7.671511853E-1,6.341654810E0
9.583285917E0,5.316972595E-1,-6.148408070E0,-7.446008134E-1,6.216112462E0
9.593293917E0,4.259907103E-1,-5.624143791E0,-5.787246609E-1,5.669866286E0
9.603302917E0,1.836107576E-1,-4.539859509E0,-2.912790112E-1,4.552898059E0
9.613310917E0,-6.912344456E-2,-3.193615580E0,-6.090810657E-2,3.194944182E0
9.623318917E0,-4.251750237E-1,-2.113455194E0,7.425731817E-2,2.157076912E0
9.633326917E0,-8.410523897E-1,-1.376120131E0,2.683638279E-1,1.634960208E0
9.643335917E0,-1.210198224E0,-1.018838151E0,3.721413624E-1,1.625146182E0
9.653343917E0,-1.653475642E0,-1.110494572E0,2.920275096E-1,2.013072269E0
9.663351917E0,-2.012180103E0,-1.555719844E0,4.107087929E-2,2.543780615E0
9.673360917E0,-2.080826415E0,-2.242315401E0,-2.614711118E-1,3.070209125E0
9.683368917E0,-1.886528701E0,-2.755431379E0,-4.857305431E-1,3.374511340E0
9.693376917E0,-1.720802822E0,-2.856780291E0,-6.311472881E-1,3.394216092E0
9.703384917E0,-1.637420357E0,-2.625305395E0,-7.107688236E-1,3.174675758E0
9.713394292E0,-1.714767326E0,-2.123345321E0,-6.235143328E-1,2.799605768E0
9.723402292E0,-1.829317789E0,-1.476235426E0,-4.614494320E-1,2.395539644E0
9.733410292E0,-1.758132616E0,-9.469171062E-1,-2.711529680E-1,2.015243468E0
9.743419292E0,-1.545375243E0,-5.547963926E-1,-4.133044085E-2,1.642465185E0
9.753427292E0,-1.239537213E0,-2.717581183E-1,2.406632102E-1,1.291597367E0
9.763435292E0,-8.407699692E-1,-9.162411511E-2,6.328815722E-1,1.056327697E0
9.773443292E0,-3.759976012E-1,1.273242903E-1,9.862159503E-1,1.063112210E0
9.783452292E0,1.658521789E-1,3.767299649E-1,1.180604296E0,1.250303529E0
9.793460292E0,5.946361041E-1,6.827363947E-1,1.277493829E0,1.565794228E0
9.803468292E0,8.376159811E-1,9.824488816E-1,1.370839949E0,1.883084837E0
9.813477292E0,9.865808165E-1,1.282758369E0,1.374012648E0,2.122904025E0
9.823485292E0,1.031479831E0,1.602732628E0,1.309701462E0,2.312578742E0
9.833493292E0,9.115434980E-1,1.760173295E0,1.132768224E0,2.283043019E0
9.843501292E0,8.718818343E-1,1.910812188E0,1.009176797E0,2.330197193E0
9.853510292E0,9.721013564E-1,2.134746806E0,9.561717868E-1,2.533059308E0
9.863518292E0,1.059057639E0,2.321941030E0,8.785149157E-1,2.699037178E0
9.873526292E0,9.955182856E-1,2.412511185E0,7.749162877E-1,2.722455165E0
9.883535292E0,8.235101581E-1,2.541030353E0,7.558087564E-1,2.776013529E0
9.893543292E0,7.451223850E-1,2.676615882E0,7.466824222E-1,2.876980116E0
9.903551292E0,7.780006939E-1,2.901228193E0,7.684235394E-1,3.100465262E0
9.913559292E0,7.557578856E-1,3.109185880E0,8.239112771E-1,3.304093916E0
9.923568292E0,5.981923807E-1,3.229795227E0,7.575535655E-1,3.370949234E0
9.933576292E0,4.033935606E-1,3.301359592E0,6.181769943E-1,3.382875155E0
9.943584292E0,2.081088370E-1,3.382977659E0,4.802177882E-1,3.423223080E0
9.953593292E0,-8.639845848E-2,3.536397196E0,3.445460129E-1,3.554192141E0
9.963601292E0,-3.350518888E-1,3.701161208E0,1.473849269E-1,3.719217172E0
9.973609292E0,-5.313516891E-1,3.830260128E0,-3.964878162E-2,3.867143558E0
9.983617292E0,-6.267975444E-1,3.909245487E0,-1.004305975E-1,3.960449689E0
9.993626292E0,-6.877120829E-1,3.895878167E0,1.771724615E-3,3.956111442E0
1.000363429E1,-8.920681769E-1,3.766849414E0,1.881025887E-1,3.875606110E0
1.001364229E1,-1.269663237E0,3.641545336E0,4.237991738E-1,3.879755522E0
1.002365029E1,-1.774261576E0,3.491337968E0,5.493751466E-1,3.954650174E0
1.003365929E1,-2.402214530E0,3.308658087E0,5.589166331E-1,4.126771230E0
1.004366729E1,-3.054089613E0,3.155408412E0,5.003076518E-1,4.419770736E0
1.005367529E1,-3.667209935E0,3.057976842E0,3.941409266E-1,4.791137458E0
1.006368429E1,-4.194835778E0,3.040204815E0,3.687312663E-1,5.193790068E0
1.007369229E1,-4.663332238E0,2.967386515E0,4.619721365E-1,5.546662830E0
1.008370029E1,-5.189775190E0,2.624250850E0,5.300945377E-1,5.839645474E0
1.009370829E1,-5.667443007E0,2.046663473E0,6.184763718E-1,6.057330652E0
1.010371729E1,-5.912603311E0,1.480515588E0,9.220579612E-1,6.164494724E0
1.011372529E1,-6.038928312E0,1.220810920E0,1.426890188E0,6.324163982E0
1.012373329E1,-6.091142778E0,1.289021029E0,1.896841435E0,6.508579184E0
1.013374229E1,-6.011524166E0,1.730571765E0,2.226906234E0,6.640211805E0
1.014375029E1,-5.926408002E0,2.531621014E0,2.423928165E0,6.885262850E0
1.015375829E1,-5.783978015E0,3.438040597E0,2.460244052E0,7.164309152E0
1.016376629E1,-5.783630691E0,4.070135134E0,2.218942326E0,7.412158189E0
1.017377529E1,-5.994215823E0,4.288651430E0,1.911233772E0,7.614195227E0
1.018378329E1,-6.228664028E0,3.972580188E0,1.584163917E0,7.555608794E0
1.019379129E1,-6.188360925E0,3.219454134E0,1.284840270E0,7.093060720E0
1.020380029E1,-5.819378228E0,2.367292619E0,1.026544197E0,6.365770204E0
1.021380829E1,-5.604897680E0,1.520145092E0,7.525869405E-1,5.855946227E0
1.022381629E1,-5.440055315E0,7.947371793E-1,4.220298064E-1,5.513974807E0
1.023382429E1,-5.164040424E0,3.327708900E-1,1.594418764E-1,5.177206938E0
1.024383329E1,-4.686890670E0,1.037489015E-1,-4.211164713E-3,4.688040712E0
1.025384129E1,-4.122454265E0,-5.365375847E-2,-2.853441238E-3,4.122804390E0
1.026384929E1,-3.543607398E0,-1.546842894E-1,2.286518598E-1,3.554344144E0
1.027385729E1,-2.980294828E0,-2.136940974E-1,5.693831491E-1,3.041713267E0
1.028386629E1,-2.422936478E0,-2.899967533E-1,9.019985032E-1,2.601599622E0
1.029387429E1,-1.757566606E0,-3.993513805E-1,1.176857400E0,2.152560159E0
1.030388229E1,-1.153607701E0,-4.905147350E-1,1.341257715E0,1.835861567E0
1.031389129E1,-5.209594327E-1,-5.259848222E-1,1.470561873E0,1.646393326E0
1.032389929E1,-3.864834130E-2,-5.400722265E-1,1.389541683E0,1.491307411E0
1.033390729E1,3.847947371E-1,-5.613581380E-1,1.237171429E0,1.412013844E0
1.034391529E1,7.253295600E-1,-5.840155140E-1,9.738268697E-1,1.347410800E0
1.035392429E1,1.001773052E0,-6.314349711E-1,7.307785803E-1,1.391508787E0
1.036393229E1,1.258024355E0,-7.461053020E-1,5.105227375E-1,1.549171347E0
1.037394029E1,1.510683128E0,-9.323712802E-1,3.142071497E-1,1.802832729E0
1.038394829E1,1.693693961E0,-1.186034897E0,1.839475389E-1,2.075840723E0
1.039395729E1,1.904507720E0,-1.439929479E0,1.348011158E-1,2.391384097E0
1.040396529E1,2.023202105E0,-1.625667454E0,1.686448091E-1,2.600881100E0
1.041397329E1,2.076329906E0,-1.824696442E0,1.957150787E-1,2.771094978E0
1.042398229E1,2.239694095E0,-1.962793935E0,1.508230805E-1,2.981868084E0
1.043399029E1,2.402888714E0,-1.999426156E0,8.657621384E-2,3.127151190E0
1.044399829E1,2.548928187E0,-2.059665926E0,-5.466679771E-2,3.277536741E0
1.045400629E1,2.686690927E0,-2.156625625E0,-1.498524336E-1,3.448448634E0
1.046401529E1,2.834288099E0,-2.340633701E0,-1.606089807E-1,3.679341027E0
1.047402329E1,3.004109952E0,-2.580121329E0,-1.636846344E-1,3.963394421E0
1.048403129E1,3.162266026E0,-2.859854465E0,-1.349747690E-1,4.265783887E0
1.049403929E1,3.353008048E0,-3.140128468E0,2.608040906E-4,4.593807770E0
1.050404829E1,3.493433610E0,-3.411817296E0,1.632086527E-1,4.885817507E0
1.051405629E1,3.596168604E0,-3.705284957E0,2.868456888E-1,5.171445223E0
1.052406429E1,3.656718861E0,-4.058379307E0,3.085774871E-1,5.471494813E0
1.053407329E1,3.682503912E0,-4.436677203E0,3.091294277E-1,5.774123368E0
1.054408129E1,3.697099732E0,-4.814918380E0,3.279329038E-1,6.079434631E0
1.055408929E1,3.576165279E0,-5.164091295E0,3.008181953E-1,6.288663498E0
1.056409729E1,3.441044896E0,-5.425703909E0,2.869299253E-1,6.431281495E0
1.057410629E1,3.208902249E0,-5.600326327E0,2.619459240E-1,6.459823858E0
1.058411429E1,3.077811767E0,-5.629684612E0,2.852997215E-1,6.422434899E0
1.059412229E1,2.859177357E0,-5.583710879E0,3.172441936E-1,6.281191465E0
1.060413029E1,2.392601708E0,-5.719314827E0,3.123033329E-1,6.207466342E0
1.061413929E1,1.672829341E0,-6.152819794E0,2.424372919E-1,6.380777794E0
1.062414729E1,7.380718124E-1,-6.875057346E0,6.614487290E-2,6.914878065E0
1.063415529E1,1.693090528E-1,-7.665120261E0,-1.794170980E-1,7.669088907E0
1.064416329E1,1.246731627E-1,-8.012379382E0,-1.072110379E-1,8.014066444E0
1.065417229E1,4.072258258E-1,-7.933551314E0,2.604958327E-1,7.948265685E0
1.066418029E1,5.954991531E-1,-7.264145694E0,7.806184924E-1,7.330197619E0
1.067418829E1,5.809290612E-1,-6.051574085E0,1.409930924E0,6.240747767E0
1.068419729E1,7.398014188E-2,-4.956130393E0,1.790639627E0,5.270207947E0
1.069420529E1,-6.551764208E-1,-3.973025746E0,1.973714780E0,4.484388448E0
1.070421329E1,-1.350827853E0,-3.008436307E0,2.137716315E0,3.930045286E0
1.071422079E1,-1.819806708E0,-2.266558396E0,2.084539397E0,3.576910387E0
1.072422979E1,-2.267809846E0,-2.010607933E0,1.598380837E0,3.426416067E0
1.073423779E1,-2.542505606E0,-2.062176720E0,7.947325015E-1,3.368754567E0
1.074424579E1,-2.488229996E0,-2.029790747E0,-1.529210981E-1,3.214766532E0
1.075425379E1,-2.194020908E0,-1.919879027E0,-1.038818599E0,3.094964831E0
1.076426279E1,-1.923985965E0,-1.750119300E0,-1.736742332E0,3.127445201E0
1.077427079E1,-1.694985611E0,-1.504618103E0,-2.115537826E0,3.100379356E0
1.078427879E1,-1.403076818E0,-1.154393274E0,-2.191223016E0,2.846525372E0
1.079428779E1,-1.090138514E0,-9.261603677E-1,-2.065873915E0,2.512769396E0
1.080429579E1,-7.299196243E-1,-8.344660860E-1,-1.781899209E0,2.098637915E0
1.081430379E1,-2.988143545E-1,-7.530260664E-1,-1.383751770E0,1.603467255E0
1.082431179E1,1.172050989E-1,-6.258432788E-1,-1.026147755E0,1.207640700E0
1.083432079E1,4.385856128E-1,-3.849862334E-1,-7.292319918E-1,9.339973434E-1
1.084432879E1,5.113746768E-1,4.123281062E-2,-5.604474342E-1,7.598062459E-1
1.085433679E1,5.656999880E-1,5.190424231E-1,-4.960333371E-1,9.140408005E-1
1.086434479E1,8.646470743E-1,1.002123593E0,-5.097158217E-1,1.418335813E0
1.087435379E1,1.338598402E0,1.352562137E0,-5.325924683E-1,1.976088245E0
1.088436179E1,1.761964881E0,1.558483239E0,-5.556667507E-1,2.417055189E0
1.089436979E1,2.078354212E0,1.662021933E0,-5.666852438E-1,2.720846431E0
1.090437779E1,2.194883373E0,1.732312481E0,-4.732362127E-1,2.835907627E0
1.091438679E1,2.150271456E0,1.835738617E0,-3.258021784E-1,2.846006090E0
1.092439479E1,2.041935414E0,1.965359986E0,-1.840855515E-1,2.840075280E0
1.093440279E1,2.036681691E0,2.103260135E0,-1.281124036E-2,2.927787498E0
1.094441179E1,1.963892627E0,2.283530963E0,7.718091686E-2,3.012863223E0
1.095441979E1,1.938068984E0,2.431609360E0,7.514139891E-2,3.110382886E0
1.096442779E1,2.014396198E0,2.518182066E0,-1.056941788E-2,3.224770483E0
1.097443579E1,1.827250798E0,2.568120211E0,-5.510181229E-2,3.152320274E0
1.098444479E1,1.489398678E0,2.589961608E0,-4.671222727E-2,2.988041430E0
1.099445279E1,1.160329075E0,2.628376938E0,-9.685559154E-2,2.874736492E0
1.100446079E1,8.886966723E-1,2.651037530E0,-1.390947171E-1,2.799487292E0
1.101446879E1,7.864259470E-1,2.706708285E0,-8.588154634E-2,2.819948785E0
1.102447779E1,7.404124528E-1,2.719845517E0,-3.426285647E-4,2.818824286E0
1.103448579E1,6.677678150E-1,2.800674795E0,1.116701245E-1,2.881347494E0
1.104449379E1,4.188325489E-1,2.897107075E0,2.109008825E-1,2.934813332E0
1.105450179E1,-2.293570340E-2,2.964147157E0,3.132072759E-1,2.980737025E0
1.106451079E1,-5.362440544E-1,2.937672134E0,4.057102640E-1,3.013648299E0
1.107451879E1,-1.222760966E0,2.817918234E0,4.298779758E-1,3.101709630E0
1.108452679E1,-1.946254501E0,2.686430141E0,3.870107953E-1,3.339848925E0
1.109453479E1,-2.581323516E0,2.545249119E0,3.883767414E-1,3.645868987E0
1.110454379E1,-3.189940313E0,2.397138562E0,4.585351431E-1,4.016496852E0
1.111455179E1,-3.760303456E0,2.284537561E0,5.766734576E-1,4.437515771E0
1.112455979E1,-4.158509951E0,2.234391255E0,8.123174179E-1,4.790153325E0
1.113456879E1,-4.423442030E0,2.349494864E0,1.074418786E0,5.122630305E0
1.114457679E1,-4.662804819E0,2.424352673E0,1.337937666E0,5.423035300E0
1.115458479E1,-5.162534766E0,2.249312764E0,1.477059299E0,5.821758952E0
1.116459279E1,-5.776393007E0,1.932547458E0,1.588033605E0,6.294704646E0
1.117460179E1,-6.162582890E0,1.615791507E0,1.815787332E0,6.624597626E0
1.118460979E1,-6.386768062E0,1.456869448E0,2.104073775E0,6.880436128E0
1.119461779E1,-6.676022218E0,1.559648296E0,2.357642959E0,7.249845225E0
1.120462579E1,-6.800874306E0,2.079127214E0,2.422607864E0,7.512901581E0
1.121463479E1,-6.747217916E0,2.997596154E0,2.349320033E0,7.747892419E0
1.122464279E1,-6.774360691E0,4.005670166E0,2.023520193E0,8.126007028E0
1.123465079E1,-6.913877596E0,4.773333567E0,1.571632165E0,8.547306267E0
1.124465879E1,-7.134815809E0,5.038534033E0,9.573425455E-1,8.786861019E0
1.125466779E1,-7.187327898E0,4.682861354E0,4.006407281E-1,8.587629811E0
1.126467579E1,-6.932039632E0,3.769975335E0,5.489482999E-2,7.891064626E0
1.127468379E1,-6.462101249E0,2.648879907E0,1.909704287E-2,6.983958907E0
1.128469179E1,-5.970335210E0,1.667724137E0,2.397616060E-1,6.203522543E0
1.129470079E1,-5.428618746E0,8.897842544E-1,4.291341734E-1,5.517768902E0
1.130470879E1,-4.780384140E0,3.265985692E-1,4.763527787E-1,4.815148089E0
1.131471679E1,-4.065428125E0,-7.005549073E-3,5.072740610E-1,4.096960079E0
1.132472479E1,-3.366551954E0,-1.797170967E-1,5.882766724E-1,3.422285747E0
1.133473379E1,-2.818943251E0,-3.469445407E-1,7.278637433E-1,2.931995429E0
1.134474179E1,-2.337599874E0,-5.444076446E-1,9.775901377E-1,2.591608637E0
1.135474979E1,-1.858617017E0,-6.896393251E-1,1.270383614E0,2.354556040E0
1.136475779E1,-1.352429405E0,-7.201331395E-1,1.506402966E0,2.148698893E0
1.137476679E1,-9.159289098E-1,-7.017407227E-1,1.696430458E0,2.051643758E0
1.138477479E1,-5.817570269E-1,-6.102540171E-1,1.835438654E0,2.019823323E0
1.139478279E1,-3.972949147E-1,-4.667858568E-1,1.783206646E0,1.885618792E0
1.140479079E1,-2.678539324E-1,-3.065794569E-1,1.482750978E0,1.537623867E0
1.141479979E1,4.080596387E-2,-2.197623378E-1,1.064314871E0,1.087532416E0
1.142480779E1,3.883732331E-1,-1.924774754E-1,6.684045768E-1,7.966467379E-1
1.143481579E1,6.671100032E-1,-2.340397766E-1,3.364897192E-1,7.829659664E-1
1.144482379E1,9.660442257E-1,-4.573332480E-1,1.202772260E-1,1.075575082E0
1.145483279E1,1.278023586E0,-7.300380304E-1,9.366070032E-2,1.474812578E0
1.146484079E1,1.596146032E0,-1.058572905E0,2.063575959E-1,1.926354642E0
1.147484879E1,1.883553053E0,-1.408139045E0,2.681193960E-1,2.366963389E0
1.148485679E1,2.145329974E0,-1.737327931E0,3.711251163E-1,2.785405337E0
1.149486579E1,2.380299751E0,-2.043523225E0,3.772740483E-1,3.159770527E0
1.150487379E1,2.639874026E0,-2.301818714E0,3.110344505E-1,3.516254640E0
1.151488179E1,2.881578040E0,-2.501508730E0,2.267292953E-1,3.822622673E0
1.152488979E1,3.063835752E0,-2.709784505E0,1.087932944E-1,4.091681508E0
1.153489879E1,3.224477477E0,-2.873866732E0,3.557441435E-3,4.319302912E0
1.154490679E1,3.362550119E0,-2.997062596E0,-1.158286643E-1,4.505834416E0
1.155491479E1,3.485536360E0,-3.118525929E0,-2.333717322E-1,4.682801518E0
1.156492379E1,3.511427831E0,-3.365662592E0,-2.844927692E-1,4.872242423E0
1.157493179E1,3.675850950E0,-3.528916853E0,-1.721431983E-1,5.098506413E0
1.158493979E1,3.763660927E0,-3.700891652E0,1.781061888E-2,5.278452406E0
1.159494779E1,3.879305989E0,-3.967881365E0,2.077720374E-1,5.553041212E0
1.160495679E1,3.850910740E0,-4.274616651E0,3.236737919E-1,5.762519046E0
1.161496479E1,3.640574698E0,-4.603892660E0,4.242985260E-1,5.884695489E0
1.162497279E1,3.297243152E0,-4.961112805E0,4.365519512E-1,5.972857798E0
1.163498079E1,2.938632247E0,-5.258591655E0,3.712900078E-1,6.035412327E0
1.164498979E1,2.775741098E0,-5.426370492E0,3.359026587E-1,6.104348119E0
1.165499779E1,2.566961585E0,-5.583939505E0,2.654448978E-1,6.151433424E0
1.166500579E1,2.233612406E0,-5.697297136E0,1.985901729E-1,6.122716480E0
1.167501379E1,1.572333831E0,-5.817756211E0,6.464798570E-2,6.026831702E0
1.168502279E1,9.081597143E-1,-5.791219207E0,-1.133412405E-1,5.863089647E0
1.169503079E1,4.302428055E-1,-5.851307534E0,-3.812583411E-1,5.879478434E0
1.170503879E1,1.706591749E-1,-6.020325395E0,-6.052979537E-1,6.053084175E0
1.171504704E1,2.870322150E-1,-6.404361164E0,-9.630117866E-1,6.482717109E0
1.172505604E1,5.398161185E-1,-6.556734341E0,-1.173306971E0,6.682725186E0
1.173506404E1,8.218670905E-1,-6.118750407E0,-1.038361419E0,6.260412646E0
1.174507204E1,8.028057522E-1,-5.358484318E0,-8.098487234E-1,5.478476633E0
1.175508004E1,4.634152293E-1,-4.256090625E0,-5.429630534E-1,4.315538200E0
1.176508904E1,1.396543139E-1,-3.142855317E0,-2.559278782E-1,3.156349465E0
1.177509704E1,-3.107432592E-1,-2.347920940E0,-1.375780042E-1,2.372387367E0
1.178510504E1,-9.404281586E-1,-1.850159312E0,-3.369399548E-2,2.075723943E0
1.179511304E1,-1.536172895E0,-1.578374443E0,-1.808774035E-2,2.202593973E0
1.180512204E1,-2.020887777E0,-1.678243278E0,-2.655805349E-1,2.640269101E0
1.181513004E1,-2.290521601E0,-2.006257166E0,-6.450918011E-1,3.112507101E0
1.182513804E1,-2.154082671E0,-2.326945077E0,-1.042031059E0,3.337749882E0
1.183514604E1,-1.818192292E0,-2.470584561E0,-1.345413916E0,3.349589510E0
1.184515504E1,-1.578993809E0,-2.305176624E0,-1.451297636E0,3.148543401E0
1.185516304E1,-1.494210352E0,-1.922700747E0,-1.433985200E0,2.825908047E0
1.186517104E1,-1.531486351E0,-1.454103715E0,-1.277027221E0,2.467927588E0
1.187517904E1,-1.334382559E0,-1.008970098E0,-1.080399319E0,1.991446750E0
1.188518704E1,-9.870871854E-1,-6.342670700E-1,-9.230566657E-1,1.492872880E0
1.189519604E1,-6.168888527E-1,-3.302709129E-1,-7.556426223E-1,1.029867227E0
1.190520404E1,-1.876038212E-1,-1.171586135E-1,-5.790555036E-1,6.198601542E-1
1.191521204E1,2.576745147E-1,1.359161890E-1,-3.386776742E-1,4.467347456E-1
1.192522104E1,7.791455787E-1,3.988432574E-1,-1.015404081E-1,8.811664039E-1
1.193522904E1,1.174489862E0,6.402715757E-1,1.241165809E-1,1.343420654E0
1.194523704E1,1.329136437E0,8.779038817E-1,2.875099325E-1,1.618635492E0
1.195524504E1,1.278882542E0,1.119033700E0,4.220684345E-1,1.750976511E0
1.196525304E1,1.324786109E0,1.330891771E0,4.355684495E-1,1.927706154E0
1.197526204E1,1.429528452E0,1.452833407E0,4.128157640E-1,2.079589709E0
1.198527004E1,1.550757605E0,1.486387070E0,3.642546745E-1,2.178732920E0
1.199527804E1,1.612687805E0,1.463537905E0,3.213711584E-1,2.201359711E0
1.200528604E1,1.664488873E0,1.505684928E0,3.595090012E-1,2.273072157E0
1.201529504E1,1.710111773E0,1.607635518E0,4.774298723E-1,2.395185487E0
1.202530304E1,1.611250559E0,1.669556947E0,5.947881317E-1,2.395270691E0
1.203531104E1,1.496959713E0,1.782430136E0,6.974020886E-1,2.429879677E0
1.204531904E1,1.390998225E0,1.910874168E0,7.559303784E-1,2.481480785E0
1.205532804E1,1.347213104E0,2.071943617E0,7.974268985E-1,2.596887206E0
1.206533604E1,1.349533864E0,2.223109637E0,8.181085002E-1,2.726308792E0
1.207534404E1,1.203453460E0,2.255926258E0,8.397841287E-1,2.691234084E0
1.208535204E1,9.633609384E-1,2.311551113E0,8.521767175E-1,2.645285996E0
1.209536104E1,6.662107015E-1,2.388050527E0,7.587686169E-1,2.592749859E0
1.210536904E1,4.201844251E-1,2.481693394E0,6.678701413E-1,2.604113587E0
1.211537704E1,2.991874069E-1,2.664336729E0,6.423119617E-1,2.756949033E0
1.212538504E1,4.763434231E-2,2.876773968E0,5.701784436E-1,2.933121366E0
1.213539404E1,-3.050088948E-1,3.071163483E0,3.763256665E-1,3.109131160E0
1.214540204E1,-5.455177385E-1,3.138647660E0,1.513154526E-1,3.189293825E0
1.215541004E1,-7.801589012E-1,3.061315894E0,5.992928267E-2,3.159730121E0
1.216541804E1,-1.023318872E0,2.807567493E0,3.398401737E-3,2.988248365E0
1.217542704E1,-1.352922326E0,2.388553680E0,-2.466355562E-3,2.745103566E0
1.218543504E1,-1.938973548E0,1.909956155E0,6.900068957E-2,2.722556157E0
1.219544304E1,-2.578136199E0,1.515395106E0,1.076858683E-1,2.992457992E0
1.220545104E1,-3.092240941E0,1.295772809E0,1.121249648E-1,3.354631607E0
1.221546004E1,-3.539624274E0,1.278551590E0,1.486058164E-1,3.766393216E0
1.222546804E1,-4.041981960E0,1.394734011E0,2.366204453E-1,4.282393065E0
1.223547604E1,-4.536368136E0,1.438153680E0,3.399395764E-1,4.771004170E0
1.224548404E1,-4.894698960E0,1.371584299E0,4.453321667E-1,5.102709294E0
1.225549204E1,-5.191588411E0,1.224134477E0,6.170449003E-1,5.369528830E0
1.226550104E1,-5.398261757E0,1.012037255E0,8.478088474E-1,5.557358117E0
1.227550904E1,-5.550648968E0,7.913995886E-1,1.091475188E0,5.712034257E0
1.228551704E1,-5.664255690E0,7.310873133E-1,1.312939650E0,5.860212599E0
1.229552504E1,-5.618047484E0,1.089432170E0,1.552494228E0,5.929549587E0
1.230553404E1,-5.324282784E0,1.834799554E0,1.660416287E0,5.871239973E0
1.231554204E1,-4.989347255E0,2.697597739E0,1.603365004E0,5.894183483E0
1.232555004E1,-4.831542599E0,3.396416023E0,1.312146767E0,6.049890481E0
1.233555804E1,-4.816226987E0,3.819170884E0,9.033457017E-1,6.212740304E0
1.234556704E1,-4.749101536E0,3.940674856E0,6.039460774E-1,6.200615662E0
1.235557504E1,-4.564788528E0,3.564342794E0,2.183958435E-1,5.795647557E0
1.236558304E1,-4.119475109E0,2.862889169E0,-1.085687431E-1,5.017768104E0
1.237559104E1,-3.685237486E0,2.125431899E0,-1.501751908E-1,4.256875459E0
1.238560004E1,-3.218850701E0,1.612162725E0,-5.735648951E-2,3.600466394E0
1.239560804E1,-2.784120743E0,1.225418234E0,-5.642210444E-2,3.042394059E0
1.240561604E1,-2.534392594E0,9.540434003E-1,-1.032314229E-1,2.709981800E0
1.241562404E1,-2.389234881E0,7.615074527E-1,-1.480059103E-1,2.512019639E0
1.242563304E1,-2.282526119E0,5.102639982E-1,-2.039438836E-1,2.347741029E0
1.243564104E1,-2.081488320E0,2.465504792E-1,-1.988193655E-1,2.105447673E0
1.244564904E1,-1.801883823E0,-2.051320195E-2,-6.396151344E-2,1.803135374E0
1.245565704E1,-1.389990165E0,-2.795632741E-1,1.450507092E-1,1.425225593E0
1.246566604E1,-8.862390876E-1,-4.465653080E-1,4.238237321E-1,1.079104652E0
1.247567404E1,-2.968175304E-1,-4.545178136E-1,7.827620816E-1,9.525773279E-1
1.248568204E1,2.133754241E-1,-3.745907611E-1,1.140048008E0,1.218834185E0
1.249569004E1,5.703374147E-1,-2.184315115E-1,1.430533004E0,1.555449056E0
1.250569804E1,7.445470190E-1,-6.977599382E-2,1.600402805E0,1.766495992E0
1.251570704E1,8.256671959E-1,2.375811428E-2,1.600750129E0,1.801302790E0
1.252571504E1,9.320052445E-1,1.424001664E-2,1.498039109E0,1.764357595E0
1.253572304E1,1.068842955E0,-6.714006901E-2,1.362774299E0,1.733230176E0
1.254573104E1,1.207097445E0,-1.889065808E-1,1.209739802E0,1.719372073E0
1.255574004E1,1.326197627E0,-3.372440100E-1,9.818632829E-1,1.684217674E0
1.256574804E1,1.416423088E0,-5.183182454E-1,6.910543513E-1,1.659055238E0
1.257575604E1,1.586004621E0,-7.100595564E-1,4.568979228E-1,1.796761237E0
1.258576404E1,1.798918700E0,-9.045417497E-1,2.845559192E-1,2.033537887E0
1.259577304E1,2.006129989E0,-1.101198522E0,1.601376951E-1,2.294088011E0
1.260578104E1,2.174709894E0,-1.366634924E0,9.476934155E-2,2.570220879E0
1.261578904E1,2.356122099E0,-1.614992192E0,8.744979699E-2,2.857824101E0
1.262579704E1,2.466849067E0,-1.840378382E0,1.314383912E-1,3.080521540E0
1.263580504E1,2.552403188E0,-2.060850572E0,1.029694676E-1,3.282144089E0
1.264581404E1,2.715736386E0,-2.298212298E0,4.881255170E-2,3.558003169E0
1.265582204E1,2.904496202E0,-2.518267143E0,1.106059770E-2,3.844202118E0
1.266583004E1,3.100338750E0,-2.693215250E0,-1.629150768E-2,4.106796095E0
1.267583804E1,3.203964860E0,-2.878921650E0,2.350582976E-3,4.307387400E0
1.268584704E1,3.156682520E0,-3.182118200E0,7.906838894E-2,4.482942402E0
1.269585504E1,3.040113598E0,-3.531088801E0,2.012038600E-1,4.663835525E0
1.270586304E1,2.833570061E0,-3.840156833E0,2.905329430E-1,4.781248078E0
1.271587125E1,2.671017466E0,-4.147686755E0,3.114601278E-1,4.943141423E0
1.272588025E1,2.518224458E0,-4.433235239E0,2.647782969E-1,5.105402693E0
1.273588825E1,2.432458084E0,-4.703394436E0,2.070230091E-1,5.299210326E0
1.274589625E1,2.317034047E0,-4.942699923E0,1.366505992E-1,5.460549669E0
1.275590425E1,2.071818194E0,-5.119238473E0,4.838337064E-2,5.522804915E0
1.276591225E1,1.838555220E0,-5.134213192E0,2.759885788E-2,5.453548579E0
1.277592125E1,1.650985898E0,-4.994976370E0,-1.429995517E-2,5.260774454E0
1.278592925E1,1.276654168E0,-4.866774997E0,-1.685565162E-1,5.034258241E0
1.279593725E1,8.060667443E-1,-4.909496509E0,-3.708771944E-1,4.989032918E0
1.280594525E1,4.091565764E-1,-5.120316115E0,-5.667425466E-1,5.167808369E0
1.281595425E1,4.616961479E-3,-5.358895962E0,-7.518607163E-1,5.411384461E0
1.282596225E1,-2.000940585E-1,-5.474200131E0,-9.343324363E-1,5.556966962E0
1.283597025E1,-2.558589542E-1,-5.323881665E0,-9.526915240E-1,5.414499140E0
1.284597825E1,-3.037546670E-1,-4.942703431E0,-8.642266595E-1,5.026874956E0
1.285598725E1,-5.364136237E-1,-4.339362870E0,-6.613154125E-1,4.422120279E0
1.286599525E1,-8.099668372E-1,-3.485585184E0,-3.112028503E-1,3.591962913E0
1.287600325E1,-8.606060636E-1,-2.510640912E0,9.381506681E-2,2.655703645E0
1.288601125E1,-9.725673795E-1,-1.641609010E0,4.746652722E-1,1.966233600E0
1.289601925E1,-1.378778129E0,-9.780590844E-1,7.026341772E-1,1.830662035E0
1.290602825E1,-1.891578357E0,-5.866721964E-1,7.069856751E-1,2.102874625E0
1.291603625E1,-2.284621176E0,-5.268613198E-1,5.231515539E-1,2.402241519E0
1.292604425E1,-2.511150497E0,-8.234613338E-1,2.721062103E-2,2.642859399E0
1.293605225E1,-2.352512028E0,-1.284116093E0,-6.832354546E-1,2.765877377E0
1.294606125E1,-1.928656136E0,-1.650076656E0,-1.227515337E0,2.819443449E0
1.295606925E1,-1.512093476E0,-1.752516950E0,-1.502421012E0,2.759530982E0
1.296607725E1,-1.186359125E0,-1.643133672E0,-1.583650532E0,2.572019682E0
1.297608525E1,-9.416168976E-1,-1.297637486E0,-1.449405477E0,2.161314800E0
1.298609425E1,-6.896966279E-1,-9.681100470E-1,-1.089331598E0,1.612315674E0
1.299610225E1,-3.679670352E-1,-7.443183929E-1,-5.705268645E-1,1.007427671E0
1.300611025E1,6.298445284E-2,-6.067275614E-1,-1.312524498E-1,6.239491811E-1
1.301611825E1,5.008590442E-1,-4.600185817E-1,2.056617773E-1,7.104742390E-1
1.302612625E1,8.955905396E-1,-2.516194305E-1,4.384429407E-1,1.028409921E0
1.303613525E1,1.185532914E0,2.210539877E-3,5.206688261E-1,1.294831728E0
1.304614325E1,1.485938880E0,3.065566528E-1,4.868754280E-1,1.593436230E0
1.305615125E1,1.701447369E0,6.670144013E-1,4.925156522E-1,1.892723706E0
1.306615925E1,1.780205855E0,1.023443126E0,4.379412496E-1,2.099609787E0
1.307616825E1,1.746113080E0,1.331016025E0,2.695636582E-1,2.212053144E0
1.308617625E1,1.634356416E0,1.602212225E0,1.149796486E-1,2.291598837E0
1.309618425E1,1.519322973E0,1.793883955E0,3.692399740E-2,2.351111508E0
1.310619225E1,1.564144805E0,1.920073300E0,9.860749044E-3,2.476555609E0
1.311620025E1,1.708071095E0,2.016448570E0,-5.382478952E-2,2.643192920E0
1.312620925E1,1.745574551E0,2.024041180E0,-9.507923484E-2,2.674474392E0
1.313621725E1,1.694388610E0,2.074124044E0,-7.754109621E-2,2.679357373E0
1.314622525E1,1.652200949E0,2.187541901E0,-7.205991626E-2,2.742316571E0
1.315623325E1,1.567522157E0,2.309095867E0,-5.556958954E-2,2.791440025E0
1.316624225E1,1.471260030E0,2.349387276E0,-6.194774151E-2,2.772735864E0
1.317625025E1,1.410080028E0,2.338858194E0,-1.027472643E-1,2.732972803E0
1.318625825E1,1.439370486E0,2.386545746E0,-3.783497533E-2,2.787260210E0
1.319626625E1,1.452713247E0,2.434253179E0,6.303065498E-2,2.835478298E0
1.320627425E1,1.368468318E0,2.410682175E0,1.146346629E-1,2.774389157E0
1.321628325E1,1.217735869E0,2.402727916E0,1.341538473E-1,2.697031579E0
1.322629125E1,1.127506900E0,2.366178140E0,1.682945609E-1,2.626479366E0
1.323629925E1,1.170374007E0,2.391857942E0,3.315242636E-1,2.683406057E0
1.324630725E1,1.177639757E0,2.461983891E0,4.396626699E-1,2.764326924E0
1.325631625E1,1.026674005E0,2.436287425E0,5.267101693E-1,2.695733580E0
1.326632425E1,8.125314260E-1,2.334588557E0,5.877819979E-1,2.540865744E0
1.327633225E1,6.484427673E-1,2.235043804E0,5.838959384E-1,2.399340179E0
1.328634025E1,2.099653280E-1,2.058415499E0,5.852162397E-1,2.150264601E0
1.329634825E1,-4.379172760E-1,1.710790050E0,4.572639585E-1,1.824188714E0
1.330635725E1,-1.382123905E0,1.288450634E0,3.131534815E-1,1.915316326E0
1.331636525E1,-2.568460811E0,9.850927001E-1,3.139112806E-1,2.768743191E0
1.332637325E1,-3.644523323E0,9.392587155E-1,2.610430956E-1,3.772651678E0
1.333638125E1,-4.269932154E0,1.126817513E0,2.127872125E-1,4.421234749E0
1.334639025E1,-4.735079913E0,1.304803834E0,2.133567131E-1,4.916199336E0
1.335639825E1,-5.332907428E0,1.361607195E0,2.174942029E-1,5.508282810E0
1.336640625E1,-5.817969634E0,1.220143168E0,3.273879798E-1,5.953545406E0
1.337641425E1,-6.077185475E0,1.038333353E0,6.728788662E-1,6.201861447E0
1.338642225E1,-6.114876042E0,8.740371180E-1,1.153474385E0,6.283800844E0
1.339643125E1,-6.047115583E0,8.589249891E-1,1.724566090E0,6.346612263E0
1.340643925E1,-5.927148260E0,1.078033608E0,2.129648327E0,6.389729646E0
1.341644725E1,-5.707915095E0,1.642575848E0,2.324251850E0,6.378126434E0
1.342645525E1,-5.570499095E0,2.424702922E0,2.288804859E0,6.492170062E0
1.343646425E1,-5.569240190E0,3.163379336E0,1.889105569E0,6.677733520E0
1.344647225E1,-5.492672655E0,3.605620628E0,1.307784745E0,6.699272643E0
1.345648025E1,-5.367017745E0,3.596846296E0,6.312396741E-1,6.491582725E0
1.346648825E1,-5.067608144E0,3.169138259E0,-2.686192598E-3,5.976963846E0
1.347649625E1,-4.747230427E0,2.543833508E0,-4.572136724E-1,5.405213223E0
1.348650525E1,-4.455477755E0,1.911966428E0,-6.852854884E-1,4.896581854E0
1.349651325E1,-4.128569868E0,1.400149117E0,-8.062047386E-1,4.433449310E0
1.350652125E1,-3.673861143E0,1.065692475E0,-8.008837724E-1,3.908243975E0
1.351652925E1,-3.184571984E0,8.131316426E-1,-6.703470218E-1,3.354407089E0
1.352653725E1,-2.702836844E0,5.033572671E-1,-4.187711531E-1,2.781018666E0
1.353654625E1,-2.215810558E0,1.159999877E-1,-3.887228966E-2,2.219185319E0
1.354655425E1,-1.680321963E0,-2.198930231E-1,3.308249366E-1,1.726638347E0
1.355656225E1,-1.208195552E0,-6.565695199E-1,6.047085178E-1,1.502162581E0
1.356657025E1,-6.650400889E-1,-9.930987078E-1,8.568404567E-1,1.470611754E0
1.357657925E1,-2.923549354E-2,-1.192506011E0,1.061847931E0,1.597011687E0
1.358658725E1,6.054581308E-1,-1.176481716E0,1.238788185E0,1.812535501E0
1.359659525E1,1.113713318E0,-1.031729507E0,1.322316830E0,2.013292063E0
1.360660325E1,1.451658994E0,-8.544685337E-1,1.217934675E0,2.078652251E0
1.361661125E1,1.670535479E0,-6.093035522E-1,1.025159576E0,2.052533011E0
1.362662025E1,1.837418522E0,-4.067448923E-1,8.158818805E-1,2.051148818E0
1.363662825E1,1.875809001E0,-3.008714050E-1,5.796057997E-1,1.986234098E0
1.364663625E1,1.916092808E0,-2.673443475E-1,4.133548772E-1,1.978319212E0
1.365664425E1,1.942643260E0,-3.517404270E-1,2.726708686E-1,1.992971040E0
1.366665225E1,2.023074635E0,-4.672103646E-1,2.574751246E-1,2.092226074E0
1.367666125E1,2.132748520E0,-6.817406139E-1,2.611243719E-1,2.254234339E0
1.368666925E1,2.322849687E0,-8.589106634E-1,2.512378631E-1,2.489272717E0
1.369667725E1,2.477583386E0,-9.995706984E-1,1.664181894E-1,2.676799587E0
1.370668525E1,2.560955910E0,-1.054179892E0,6.804987749E-2,2.770274572E0
1.371669437E1,2.610488259E0,-1.104566226E0,-1.105200138E-1,2.836711154E0
1.372670237E1,2.628570773E0,-1.178823965E0,-3.700229162E-1,2.904466768E0
1.373671037E1,2.649552922E0,-1.302570782E0,-6.244884789E-1,3.017748695E0
1.374671838E1,2.675464273E0,-1.437114045E0,-8.096323764E-1,3.143073407E0
1.375672637E1,2.726455502E0,-1.672467399E0,-9.108225363E-1,3.325703609E0
1.376673537E1,2.912780537E0,-1.900801170E0,-8.316108906E-1,3.576158864E0
1.377674337E1,3.111869459E0,-2.057848904E0,-6.446356452E-1,3.786030739E0
1.378675137E1,3.195875822E0,-2.232808267E0,-4.315783095E-1,3.922411868E0
1.379675938E1,3.117180485E0,-2.405563669E0,-3.093709177E-1,3.949589992E0
1.380676737E1,2.939167852E0,-2.565447741E0,-3.260442897E-1,3.914911832E0
1.381677637E1,2.731682328E0,-2.756143570E0,-4.308767167E-1,3.904365565E0
1.382678438E1,2.546312728E0,-3.005137308E0,-5.858980250E-1,3.982189755E0
1.383679237E1,2.076781311E0,-3.339399823E0,-7.716033284E-1,4.007490922E0
1.384680037E1,1.467271644E0,-3.578686014E0,-8.612059879E-1,3.962518822E0
1.385680937E1,1.372140369E0,-3.770333769E0,-8.371762705E-1,4.098664421E0
1.386681737E1,1.445971407E0,-4.098846132E0,-8.614468932E-1,4.430966449E0
1.387682538E1,1.586770606E0,-4.401205654E0,-8.451781851E-1,4.754237933E0
1.388683337E1,1.664090677E0,-4.526574343E0,-7.316661876E-1,4.877951258E0
1.389684137E1,1.651300478E0,-4.526799168E0,-5.845449793E-1,4.853905315E0
1.390685038E1,1.482815298E0,-4.437301685E0,-4.918643089E-1,4.704287188E0
1.391685837E1,1.174760588E0,-4.355842370E0,-3.951361227E-1,4.528747923E0
1.392686638E1,6.295077288E-1,-4.442019219E0,-4.403339303E-1,4.507960591E0
1.393687437E1,6.071105540E-2,-4.699608364E0,-5.866189867E-1,4.736467718E0
1.394688237E1,-4.101085031E-1,-4.890429616E0,-7.337600756E-1,4.962146175E0
1.395689138E1,-7.762085223E-1,-4.863293857E0,-8.659071493E-1,5.000392185E0
1.396689937E1,-8.832283562E-1,-4.645229843E0,-8.469282568E-1,4.803700667E0
1.397690737E1,-9.087725025E-1,-4.189315422E0,-6.534321964E-1,4.336266228E0
1.398691537E1,-1.030522642E0,-3.496199635E0,-4.162118268E-1,3.668599336E0
1.399692337E1,-1.098019391E0,-2.556593595E0,9.267953753E-2,2.783955260E0
1.400693238E1,-1.242598230E0,-1.633396596E0,5.055005640E-1,2.113661662E0
1.401694037E1,-1.495897273E0,-8.947383079E-1,7.706466508E-1,1.905823064E0
1.402694837E1,-1.942061462E0,-3.487273568E-1,8.774261642E-1,2.159418942E0
1.403695637E1,-2.388573561E0,-5.700479776E-2,8.869840229E-1,2.548582716E0
1.404696437E1,-2.692625266E0,-1.022414893E-2,6.719199228E-1,2.775213819E0
1.405697337E1,-2.849497876E0,-1.823986298E-1,3.095445800E-1,2.872059410E0
1.406698137E1,-2.689016950E0,-4.440659156E-1,-2.256966404E-1,2.734766108E0
1.407698937E1,-2.394858148E0,-6.098540676E-1,-7.776633096E-1,2.590758143E0
1.408699738E1,-2.055991536E0,-5.987803182E-1,-1.142264103E0,2.427015934E0
1.409700537E1,-1.755000848E0,-4.126409322E-1,-1.238646097E0,2.187360205E0
1.410701437E1,-1.512224454E0,-1.979899380E-1,-1.159250264E0,1.915694127E0
1.411702237E1,-1.198037184E0,-9.548269272E-2,-9.513279533E-1,1.532786650E0
1.412703037E1,-6.992170644E-1,-1.014345735E-1,-6.188622880E-1,9.392465104E-1
1.413703838E1,-1.484479415E-1,-9.675387740E-2,-2.205967355E-1,2.829505678E-1
1.414704737E1,4.121035731E-1,-6.903632104E-2,1.317190576E-1,4.381155997E-1
1.415705537E1,9.258405250E-1,-6.122034788E-3,3.935433412E-1,1.006029084E0
1.416706338E1,1.306415327E0,1.401887494E-1,5.971457291E-1,1.443245271E0
1.417707137E1,1.552225256E0,3.547912118E-1,6.843493491E-1,1.733093789E0
1.418707937E1,1.839538722E0,6.808816579E-1,6.694944978E-1,2.072613187E0
1.419708837E1,1.990647147E0,9.398791051E-1,5.412434238E-1,2.266934767E0
1.420709637E1,2.132519310E0,1.113405170E0,3.849736619E-1,2.436291115E0
1.421710438E1,2.259866989E0,1.268109340E0,2.565267062E-1,2.604017292E0
1.422711237E1,2.227320217E0,1.333978224E0,1.442005241E-1,2.600239805E0
1.423712037E1,2.247577311E0,1.421378603E0,2.911970040E-2,2.659467777E0
1.424712937E1,2.419962584E0,1.493152590E0,-1.313401580E-2,2.843571006E0
1.425713737E1,2.496179286E0,1.516504616E0,1.690254629E-2,2.920784650E0
1.426714538E1,2.473806084E0,1.484654247E0,5.506615341E-2,2.885644999E0
1.427715337E1,2.369647878E0,1.446302360E0,3.916287800E-2,2.776428517E0
1.428716137E1,2.193352572E0,1.479406371E0,-4.126789391E-2,2.645967073E0
1.429717038E1,2.102492688E0,1.599751717E0,-1.081156021E-1,2.644119899E0
1.430717837E1,2.049164912E0,1.686618245E0,-1.468346947E-1,2.658066660E0
1.431718637E1,1.879464095E0,1.701098582E0,-1.576567397E-1,2.539877422E0
1.432719437E1,1.583538265E0,1.766979161E0,-1.310618488E-1,2.376338781E0
1.433720237E1,1.173599916E0,1.863415827E0,-2.400036625E-1,2.215232960E0
1.434721138E1,9.152588189E-1,1.953161524E0,-3.207472605E-1,2.180691966E0
1.435721937E1,9.505257154E-1,2.132771909E0,-2.966795361E-1,2.353770146E0
1.436722737E1,9.076726413E-1,2.263628795E0,-2.632919713E-1,2.452999716E0
1.437723537E1,6.748528862E-1,2.314811228E0,-2.836478831E-1,2.427804267E0
1.438724337E1,3.702702534E-1,2.298749803E0,-4.232939744E-1,2.366543578E0
1.439725237E1,6.268332124E-2,2.249602202E0,-4.733596255E-1,2.299719244E0
1.440726037E1,-2.373069084E-1,2.138457449E0,-4.678439470E-1,2.201861210E0
1.441726837E1,-6.658586991E-1,1.870643570E0,-5.180025689E-1,2.052072571E0
1.442727638E1,-1.142641833E0,1.626805907E0,-6.285265660E-1,2.084987640E0
1.443728437E1,-1.774797181E0,1.492015892E0,-7.048362386E-1,2.423388243E0
1.444729337E1,-2.447315274E0,1.348847986E0,-8.053411049E-1,2.908146701E0
1.445730137E1,-3.127132446E0,1.179274639E0,-8.854497135E-1,3.457407584E0
1.446730937E1,-3.757503224E0,9.612591568E-1,-9.041385841E-1,3.982501252E0
1.447731738E1,-4.414538475E0,5.654301390E-1,-8.234563637E-1,4.526139809E0
1.448732537E1,-5.035405773E0,5.144965053E-2,-5.959774919E-1,5.070813301E0
1.449733437E1,-5.402020932E0,-3.823792523E-1,-1.717549614E-1,5.418260220E0
1.450734238E1,-5.581030515E0,-5.325842822E-1,3.581817198E-1,5.617814680E0
1.451735037E1,-5.725495334E0,-4.052728558E-1,8.817437482E-1,5.807152051E0
1.452735838E1,-5.717900385E0,1.284510487E-1,1.323422538E0,5.870462648E0
1.453736637E1,-5.462698073E0,1.088283777E0,1.595658374E0,5.794096777E0
1.454737537E1,-5.315108503E0,2.173136408E0,1.601362917E0,5.961313902E0
1.455738338E1,-5.315760468E0,3.099778002E0,1.488247361E0,6.330940943E0
1.456739137E1,-5.353232349E0,3.753990217E0,1.336947148E0,6.673602236E0
1.457739937E1,-5.427238804E0,3.948121285E0,1.133286288E0,6.806388214E0
1.458740737E1,-5.259596207E0,3.559104273E0,8.172501290E-1,6.403005018E0
1.459741637E1,-4.695055722E0,2.791169561E0,5.595072019E-1,5.490648783E0
1.460742438E1,-3.963766095E0,1.920485821E0,3.891848266E-1,4.421670756E0
1.461743237E1,-3.382981460E0,1.209365580E0,2.479687214E-1,3.601196628E0
1.462744037E1,-2.747400813E0,6.766456425E-1,8.564709127E-2,2.830794231E0
1.463744837E1,-2.204186878E0,3.710023248E-1,1.494547407E-2,2.235241795E0
1.464745737E1,-1.733561447E0,1.528754532E-1,-6.270846426E-2,1.741418544E0
1.465746537E1,-1.270030442E0,-1.164297581E-2,-5.766229888E-2,1.271392081E0
1.466747337E1,-8.425808519E-1,-8.147685707E-2,1.021227725E-1,8.526488321E-1
1.467748137E1,-4.760861456E-1,-1.153898308E-1,3.995151025E-1,6.321274778E-1
1.468748938E1,-1.114227873E-1,-6.768619895E-2,8.040880466E-1,8.145882676E-1
1.469749837E1,2.304095328E-1,6.555927426E-2,1.174863499E0,1.199037453E0
1.470750637E1,5.363048655E-1,2.157502708E-1,1.457495100E0,1.567948677E0
1.471751437E1,7.773843974E-1,4.216880366E-1,1.615572821E0,1.841798806E0
1.472752237E1,9.155166811E-1,5.866011527E-1,1.615579838E0,1.947400811E0
1.473753038E1,1.023215961E0,7.337132978E-1,1.467757548E0,1.933809279E0
1.474753837E1,1.077528409E0,7.819920033E-1,1.222248166E0,1.807337695E0
1.475754737E1,1.085565991E0,7.451905051E-1,8.857602006E-1,1.586925815E0
1.476755538E1,1.097372689E0,7.194171479E-1,6.099768591E-1,1.447017491E0
1.477756337E1,1.149233984E0,6.862134415E-1,3.838474882E-1,1.392467785E0
1.478757138E1,1.250804213E0,6.504878309E-1,1.890317112E-1,1.422455126E0
1.479757937E1,1.370105538E0,5.880658802E-1,2.873087883E-2,1.491253208E0
1.480758837E1,1.493381217E0,4.735221416E-1,-6.230032861E-2,1.567894131E0
1.481759638E1,1.620048280E0,2.904095668E-1,-7.811646223E-2,1.647724591E0
1.482760437E1,1.789875981E0,8.230014503E-2,-2.729480267E-3,1.791769179E0
1.483761237E1,1.925634295E0,-7.223153204E-2,1.081103488E-1,1.930018829E0
1.484762037E1,1.969939817E0,-2.793966284E-1,1.483292431E-1,1.995175913E0
1.485762937E1,2.019904860E0,-5.572300038E-1,9.090140839E-2,2.097327820E0
1.486763738E1,2.095376626E0,-8.191931587E-1,3.117735386E-2,2.250033925E0
1.487764537E1,2.188938509E0,-1.086091364E0,-7.609683394E-2,2.444757038E0
1.488765337E1,2.279710684E0,-1.395820423E0,-1.388988537E-1,2.676693548E0
1.489766137E1,2.319011575E0,-1.592096981E0,-1.107836866E-1,2.815112876E0
1.490767037E1,2.300228564E0,-1.828050113E0,-8.405430973E-2,2.939367923E0
1.491767837E1,2.234985917E0,-2.134435004E0,-7.824569483E-2,3.091455518E0
1.492768637E1,2.173355094E0,-2.469281509E0,-5.418731689E-2,3.289948298E0
1.493769437E1,2.032597411E0,-2.830067579E0,-3.043710549E-2,3.484488650E0
1.494770238E1,1.807353893E0,-3.324936150E0,-3.347765763E-2,3.784554036E0
1.495771037E1,1.599387143E0,-3.926120844E0,-7.601382175E-2,4.240075732E0
1.496771937E1,1.364562963E0,-4.388317221E0,-1.029718065E-1,4.596733982E0
1.497772737E1,1.155531435E0,-4.616208943E0,-1.870033121E-1,4.762311218E0
1.498773537E1,9.452123505E-1,-4.639835202E0,-3.347618669E-1,4.746952980E0
1.499774338E1,9.777532750E-1,-4.476915987E0,-4.065937418E-1,4.600445271E0
1.500775137E1,9.224263358E-1,-4.228996382E0,-4.800423717E-1,4.354965146E0
1.501776037E1,6.985142291E-1,-4.198331829E0,-4.700003636E-1,4.281916932E0
1.502776838E1,2.883115858E-1,-4.531264102E0,-5.244297552E-1,4.570613143E0
1.503777637E1,-1.457710862E-1,-5.031548365E0,-5.547709572E-1,5.064138522E0
1.504778438E1,-3.757444167E-1,-5.441689028E0,-5.888263106E-1,5.486335732E0
1.505779237E1,-3.369703603E-1,-5.460831642E0,-5.205705929E-1,5.495928037E0
1.506780137E1,-3.643645656E-1,-5.060114937E0,-3.657608807E-1,5.086384348E0
1.507780938E1,-2.915755016E-1,-4.261668284E0,-1.159724967E-1,4.273205174E0
1.508781737E1,-4.145775300E-1,-3.204144369E0,1.660901606E-1,3.235120030E0
1.509782537E1,-5.859108889E-1,-2.188549669E0,4.312017488E-1,2.306290565E0
1.510783337E1,-7.666342914E-1,-1.373338172E0,7.345272303E-1,1.735890585E0
1.511784137E1,-1.189896106E0,-8.859280157E-1,8.886247516E-1,1.729270118E0
1.512785038E1,-1.769308984E0,-8.392169487E-1,7.827854705E-1,2.108907884E0
1.513785837E1,-2.196366811E0,-1.173920636E0,4.554443049E-1,2.531708187E0
1.514786637E1,-2.131169772E0,-1.693402185E0,-8.774914702E-2,2.723452858E0
1.515787437E1,-1.900867243E0,-2.148891806E0,-6.068977153E-1,2.932466045E0
1.516788237E1,-1.699116669E0,-2.330503400E0,-9.616564751E-1,3.040234650E0
1.517789137E1,-1.370910115E0,-2.237108164E0,-1.183005162E0,2.878115476E0
1.518789937E1,-1.126300035E0,-1.849552079E0,-1.164842541E0,2.458912932E0
1.519790737E1,-9.599818325E-1,-1.299001057E0,-9.753646874E-1,1.886877086E0
1.520791538E1,-6.441491568E-1,-8.086985761E-1,-7.075972939E-1,1.252842948E0
1.521792337E1,-1.538759118E-1,-5.418249294E-1,-4.779326963E-1,7.386959541E-1
1.522793137E1,3.780844724E-1,-3.701743591E-1,-2.265679121E-1,5.755952946E-1
1.523794037E1,1.049312670E0,-2.426904398E-1,7.348665058E-2,1.079516566E0
1.524794837E1,1.649886037E0,-1.008086291E-1,2.433307099E-1,1.670777109E0
1.525795638E1,2.055495107E0,6.564288944E-2,3.225815320E-1,2.081688730E0
1.526796437E1,2.337310436E0,2.954065973E-1,3.753257561E-1,2.385614084E0
1.527797237E1,2.503501754E0,5.367480844E-1,4.141594541E-1,2.593674534E0
1.528798138E1,2.519969267E0,7.677812228E-1,4.118094581E-1,2.666330839E0
1.529798937E1,2.505119094E0,9.703457299E-1,3.278896344E-1,2.706419059E0
1.530799737E1,2.544500676E0,1.162948920E0,1.663988936E-1,2.802609939E0
1.531800537E1,2.581516474E0,1.264353088E0,2.519389808E-2,2.874621849E0
1.532801337E1,2.676453037E0,1.315916760E0,-4.879676878E-2,2.982854154E0
1.533802238E1,2.741553013E0,1.356250561E0,-5.162857533E-2,3.059116542E0
1.534803037E1,2.687948079E0,1.364839536E0,1.806698274E-4,3.014606419E0
1.535803837E1,2.536183596E0,1.402022273E0,5.548773766E-2,2.898443130E0
1.536804637E1,2.316663333E0,1.446259967E0,7.229498346E-2,2.731999901E0
1.537805437E1,2.055941834E0,1.535212490E0,2.393382311E-2,2.565998255E0
1.538806238E1,1.970790002E0,1.602646381E0,-5.117482225E-2,2.540690363E0
1.539807137E1,1.852965099E0,1.662541750E0,-1.298695832E-1,2.492867994E0
1.540807937E1,1.706771843E0,1.729555519E0,-1.824155867E-1,2.436741239E0
1.541808738E1,1.526224442E0,1.792187385E0,-1.973218936E-1,2.362251595E0
1.542809537E1,1.376173779E0,1.803307035E0,-1.717531890E-1,2.274921908E0
1.543810338E1,1.148513022E0,1.760841339E0,-1.285393417E-1,2.106220963E0
1.544811137E1,9.582434553E-1,1.768426347E0,-5.386455059E-2,2.012079435E0
1.545812037E1,8.418727541E-1,1.809192550E0,-1.316442132E-2,1.995520162E0
1.546812838E1,7.636954808E-1,1.846412124E0,1.071384410E-2,1.998144966E0
1.547813637E1,4.945458055E-1,1.894305498E0,-6.596819563E-3,1.957808058E0
1.548814437E1,-3.739586771E-2,1.970940276E0,2.709365388E-2,1.971481191E0
1.549815237E1,-7.224100453E-1,2.007667514E0,4.316648483E-2,2.134120069E0
1.550816137E1,-1.504937654E0,1.904746871E0,-3.690762063E-2,2.427809745E0
1.551816938E1,-2.437107790E0,1.832220347E0,-1.041985524E-1,3.050800406E0
1.552817737E1,-3.178565724E0,1.857227426E0,-1.809643078E-1,3.685827161E0
1.553818537E1,-3.507346475E0,1.849624000E0,-2.078883970E-1,3.970617813E0
1.554819337E1,-3.692673390E0,1.876812968E0,-1.623426801E-1,4.145433491E0
1.555820137E1,-3.696765856E0,1.937262068E0,-1.797843511E-2,4.173653716E0
1.556821037E1,-3.740376145E0,2.018182855E0,1.549430287E-1,4.252938170E0
1.557821837E1,-3.947317293E0,1.794813370E0,3.226248014E-1,4.348189923E0
1.558822637E1,-4.131329754E0,1.379907811E0,5.661011070E-1,4.392323026E0
1.559823438E1,-4.195928038E0,9.967520481E-1,9.354679656E-1,4.412983918E0
1.560824237E1,-4.092087336E0,8.066801172E-1,1.203451706E0,4.340991544E0
1.561825137E1,-3.957256390E0,9.210955095E-1,1.320120031E0,4.272120313E0
1.562825937E1,-4.061194741E0,1.407749328E0,1.300382754E0,4.490663225E0
1.563826737E1,-4.353307602E0,2.135376844E0,1.080734437E0,4.967807189E0
1.564827538E1,-4.780139142E0,2.914371564E0,6.943445796E-1,5.641401087E0
1.565828337E1,-5.286177649E0,3.382356977E0,1.265547967E-1,6.276944239E0
1.566829137E1,-5.913887359E0,3.481532772E0,-4.927302450E-1,6.880255608E0
1.567830038E1,-6.259284727E0,3.320088224E0,-8.109509236E-1,7.131568727E0
1.568830837E1,-6.352855965E0,2.895777419E0,-7.822124434E-1,7.025394087E0
1.569831638E1,-6.025641684E0,2.256082671E0,-5.599492514E-1,6.458468076E0
1.570832437E1,-5.479553842E0,1.469615501E0,-2.061225561E-1,5.676950461E0
1.571833200E1,-4.894574999E0,8.406325597E-1,2.489013340E-1,4.972472162E0
1.572834000E1,-4.335042654E0,4.009622884E-1,6.015545297E-1,4.394909945E0
1.573834900E1,-3.738352423E0,4.150529087E-2,7.223837328E-1,3.807734207E0
1.574835700E1,-3.209906800E0,-2.945795086E-1,6.977985299E-1,3.298060270E0
1.575836500E1,-2.682306685E0,-5.047679079E-1,6.089255663E-1,2.796488895E0
1.576837300E1,-2.112087384E0,-6.207237491E-1,4.598531055E-1,2.248927737E0
1.577838100E1,-1.520070832E0,-6.611183614E-1,4.096951050E-1,1.707496091E0
1.578838900E1,-9.052630037E-1,-6.176460671E-1,4.010797809E-1,1.166984473E0
1.579839800E1,-2.736964703E-1,-5.102186823E-1,4.007821941E-1,7.041727265E-1
1.580840600E1,2.561536539E-1,-3.756002828E-1,3.970581025E-1,6.036103077E-1
1.581841400E1,7.247115093E-1,-2.369879428E-1,3.877551458E-1,8.554087385E-1
1.582842200E1,1.122366613E0,-1.225573477E-1,3.948028314E-1,1.196075412E0
1.583843000E1,1.543918701E0,-1.579096135E-1,3.669953010E-1,1.594774578E0
1.584843800E1,2.008349592E0,-2.792343682E-1,3.636500359E-1,2.060019724E0
1.585844700E1,2.385023131E0,-4.942493516E-1,4.910083131E-1,2.484694533E0
1.586845500E1,2.647756072E0,-7.236671966E-1,5.652450746E-1,2.802464705E0
1.587846300E1,2.780331162E0,-8.083290321E-1,5.254495096E-1,2.942742663E0
1.588847100E1,2.780880800E0,-8.748039803E-1,2.708348429E-1,2.927786116E0
1.589847900E1,2.898068358E0,-8.657761717E-1,-5.266821027E-2,3.025085540E0
1.590848800E1,2.974480357E0,-8.805058926E-1,-3.940374309E-1,3.126993687E0
1.591849600E1,3.062656953E0,-9.218901461E-1,-7.411187965E-1,3.283139675E0
1.592850400E1,3.110816376E0,-1.004110038E0,-1.041413154E0,3.430737071E0
1.593851200E1,3.185864219E0,-1.078513811E0,-1.229105342E0,3.581008629E0
1.594852000E1,3.185622729E0,-1.147225465E0,-1.389637578E0,3.659974185E0
1.595852800E1,3.139397566E0,-1.230865646E0,-1.513364661E0,3.696095225E0
1.596853700E1,2.955282193E0,-1.375942814E0,-1.623734365E0,3.641898510E0
1.597854500E1,2.674231680E0,-1.485161932E0,-1.606904324E0,3.455338268E0
1.598855300E1,2.491257100E0,-1.577085570E0,-1.399606057E0,3.263810342E0
1.599856100E1,2.449702692E0,-1.709617391E0,-1.144552703E0,3.199036698E0
1.600856900E1,2.431500310E0,-1.914477076E0,-9.205821971E-1,3.228759485E0
1.601857700E1,2.389889184E0,-2.156331803E0,-7.170042944E-1,3.297792036E0
1.602858600E1,2.249912689E0,-2.447691542E0,-5.974135315E-1,3.377899335E0
1.603859400E1,2.113179644E0,-2.805837302E0,-4.847681645E-1,3.545878078E0
1.604860200E1,1.939723746E0,-3.257584120E0,-4.324998307E-1,3.815945310E0
1.605861000E1,1.748300523E0,-3.746371587E0,-4.340902734E-1,4.156956718E0
1.606861800E1,1.573399193E0,-4.246735080E0,-4.422331059E-1,4.550375147E0
1.607862600E1,1.504126645E0,-4.575659379E0,-3.381199229E-1,4.828393190E0
1.608863500E1,1.439101514E0,-4.756291273E0,-2.171561607E-1,4.973979959E0
1.609864300E1,1.297194852E0,-4.855899176E0,-8.729779679E-2,5.026936661E0
1.610865100E1,1.105895591E0,-4.715888182E0,1.667589359E-3,4.843821754E0
1.611865900E1,6.921682459E-1,-4.511252299E0,-9.536808729E-2,4.565039896E0
1.612866700E1,1.389625883E-1,-4.569886131E0,-3.434221780E-1,4.584878258E0
1.613867500E1,-2.230432105E-1,-4.774983067E0,-5.525378690E-1,4.812017213E0
1.614868400E1,-3.027395904E-1,-4.995388014E0,-5.654982591E-1,5.036401587E0
1.615869200E1,-1.977148265E-1,-5.147525548E0,-4.233126855E-1,5.168684944E0
1.616870000E1,3.696375847E-2,-5.028669780E0,-2.623470247E-1,5.035644154E0
1.617870800E1,1.073127794E-1,-4.743070133E0,-5.777633786E-2,4.744635753E0
1.618871600E1,2.652413964E-2,-4.093922777E0,2.664108396E-1,4.102667665E0
1.619872400E1,3.498798430E-2,-3.321973951E0,6.662434459E-1,3.388305686E0
1.620873300E1,-1.008293867E-1,-2.590771740E0,1.086296309E0,2.811103777E0
1.621874100E1,-5.742339993E-1,-2.055583108E0,1.389088524E0,2.546513995E0
1.622874900E1,-1.194870917E0,-1.797669442E0,1.645126988E0,2.713996083E0
1.623875700E1,-1.887437943E0,-1.664645578E0,1.760878469E0,3.071507752E0
1.624876500E1,-2.483742843E0,-1.588983192E0,1.684289299E0,3.395684988E0
1.625877300E1,-2.805514535E0,-1.620960445E0,1.294257211E0,3.489058082E0
1.626878200E1,-2.849620083E0,-1.836061091E0,6.077332824E-1,3.443950448E0
1.627879000E1,-2.509212145E0,-1.869186152E0,-2.864200115E-1,3.141980089E0
1.628879800E1,-2.010326536E0,-1.688018361E0,-9.649437797E-1,2.796772294E0
1.629880600E1,-1.453837082E0,-1.462137497E0,-1.481880913E0,2.539184782E0
1.630881400E1,-9.354223573E-1,-1.249422223E0,-1.782909608E0,2.369564844E0
1.631882200E1,-5.244759482E-1,-1.060968802E0,-1.794753143E0,2.149853173E0
1.632883000E1,-1.780559027E-1,-9.635375243E-1,-1.534007671E0,1.820243940E0
1.633883900E1,1.255490756E-1,-7.993833768E-1,-1.009730528E0,1.293959850E0
1.634884700E1,4.060142827E-1,-5.491321948E-1,-4.266269239E-1,8.052355539E-1
1.635885500E1,7.386863548E-1,-2.893488818E-1,-5.616897482E-2,7.953208534E-1
1.636886300E1,1.088335233E0,-1.292000771E-2,1.382123905E-1,1.097152300E0
1.637887100E1,1.352627041E0,2.556753516E-1,2.385973889E-1,1.397103615E0
1.638887900E1,1.667644030E0,5.498736218E-1,2.626563789E-1,1.775495983E0
1.639888800E1,1.839339332E0,7.227281338E-1,3.041305699E-1,1.999500072E0
1.640889600E1,1.845862486E0,8.554564208E-1,3.438933905E-1,2.063316909E0
1.641890400E1,1.948196361E0,1.066731817E0,3.948466490E-1,2.255945413E0
1.642891200E1,2.000009708E0,1.159480644E0,4.007542006E-1,2.346281767E0
1.643892000E1,1.995536588E0,1.266556027E0,3.855941246E-1,2.394788774E0
1.644892800E1,1.927832263E0,1.394432002E0,3.188574404E-1,2.400551585E0
1.645893700E1,1.811021851E0,1.483488312E0,1.637571216E-1,2.346775258E0
1.646894500E1,1.676481512E0,1.568145470E0,-4.961194374E-2,2.296112328E0
1.647895300E1,1.616405464E0,1.738168760E0,-1.543577955E-1,2.378618001E0
1.648896100E1,1.572415107E0,1.938770065E0,-2.580886437E-1,2.509567369E0
