"Time (s)","Linear Acceleration x (m/s^2)","Linear Acceleration y (m/s^2)","Linear Acceleration z (m/s^2)","Absolute acceleration (m/s^2)"
1.033203900E-2,0.000000000E0,0.000000000E0,0.000000000E0,0.000000000E0
1.503506000E-2,-8.608222008E-3,1.548957825E-2,-1.905155182E-2,2.601903432E-2
1.983334100E-2,-3.533244133E-2,5.188941956E-2,-2.953529358E-2,6.937742312E-2
2.463151900E-2,-9.459137917E-2,1.197915077E-1,-2.592563629E-2,1.548214228E-1
2.942969600E-2,-1.777760983E-1,2.030687332E-1,-7.169246674E-2,2.792508931E-1
3.422787300E-2,-2.481204271E-1,2.783989906E-1,-5.587530136E-2,3.770832715E-1
3.902610200E-2,-3.049117327E-1,3.420128822E-1,-4.265642166E-2,4.601777338E-1
4.382427900E-2,-3.413939476E-1,3.851776123E-1,-4.936122894E-2,5.170572032E-1
4.862245600E-2,-3.656415939E-1,3.862071037E-1,-2.677583694E-2,5.325097629E-1
5.342063300E-2,-3.725957870E-1,3.386869431E-1,3.854560852E-2,5.049972573E-1
5.821881000E-2,-3.484200239E-1,2.547049522E-1,3.912792206E-1,5.825551941E-1
6.301703900E-2,-2.629315853E-1,1.362314224E-1,5.353531837E-1,6.117965760E-1
6.781521600E-2,-1.592818499E-1,2.210521698E-2,5.943546295E-1,6.157245926E-1
7.261339400E-2,-1.237848997E-1,-4.464626312E-2,5.697612762E-1,5.847596960E-1
7.741157100E-2,-1.735535860E-1,-7.660818100E-2,5.728168488E-1,6.034142879E-1
8.220980000E-2,-1.960282326E-1,-1.029930115E-1,6.926903725E-1,7.272238861E-1
8.700797700E-2,-1.732141972E-1,-1.369171143E-1,8.209304810E-1,8.501037048E-1
9.180615400E-2,-1.097607613E-1,-1.676988602E-1,9.090552330E-1,9.308876136E-1
9.660433100E-2,-2.489733696E-2,-1.778373718E-1,1.045936584E0,1.061239533E0
1.014025600E-1,1.140974760E-1,-1.871337891E-1,1.006196022E0,1.029790136E0
1.062007370E-1,3.968947530E-1,-2.038865089E-1,6.778802872E-1,8.115521161E-1
1.109989140E-1,7.392387390E-1,-2.253298759E-1,1.989011765E-1,7.980032232E-1
1.157970910E-1,9.730083942E-1,-2.268605232E-1,-8.474445343E-2,1.002692702E0
1.205953210E-1,9.970882535E-1,-1.895723343E-1,-2.363357544E-1,1.042102319E0
1.253934980E-1,1.082020044E0,-1.032466888E-1,-5.738201141E-1,1.229104055E0
1.301916750E-1,1.150437474E0,-7.326126099E-3,-9.568748474E-1,1.496385488E0
1.349898520E-1,1.153118253E0,8.014345169E-2,-1.137261391E0,1.621563489E0
1.397880290E-1,1.154756308E0,1.197633743E-1,-1.290675163E0,1.735986110E0
1.445862580E-1,1.124677181E0,1.432180405E-1,-1.300666332E0,1.725439966E0
1.493844350E-1,1.097324371E0,1.482954025E-1,-1.352009773E0,1.747581966E0
1.541826120E-1,1.042697430E0,1.727695465E-1,-1.277012825E0,1.657657685E0
1.589808410E-1,9.287217259E-1,2.094001770E-1,-1.068147182E0,1.430842717E0
1.637790190E-1,7.869086266E-1,2.464747429E-1,-8.798880577E-1,1.205893022E0
1.685771960E-1,6.015199423E-1,3.026928902E-1,-7.228307724E-1,9.878934924E-1
1.733753730E-1,3.006490171E-1,3.585529327E-1,-5.582523346E-1,7.284200067E-1
1.781735500E-1,-1.086397842E-1,3.917245865E-1,-3.734331131E-1,5.519991343E-1
1.829717790E-1,-4.826717079E-1,4.530248642E-1,-1.842999458E-1,6.871462546E-1
1.877699560E-1,-6.715139151E-1,6.177935600E-1,-6.711769104E-2,9.149342082E-1
1.925681330E-1,-7.310503125E-1,8.872842789E-1,3.417205811E-2,1.150163328E0
1.973663100E-1,-8.673962951E-1,1.291773796E0,2.599196434E-1,1.577534182E0
2.021645390E-1,-8.526924849E-1,1.620592117E0,3.746819496E-1,1.869168224E0
2.069627160E-1,-6.751012206E-1,1.715401649E0,3.456692696E-1,1.875593698E0
2.117608940E-1,-5.034051538E-1,1.684947491E0,2.390079498E-1,1.774708313E0
2.165590710E-1,-3.448528051E-1,1.573776722E0,1.711006165E-1,1.620176549E0
2.213573000E-1,-2.586829066E-1,1.439103127E0,1.249423027E-1,1.467496247E0
2.261554770E-1,-2.275000364E-1,1.222078800E0,1.284022331E-1,1.249687959E0
2.309536540E-1,-1.999521852E-1,9.565725327E-1,2.414741516E-1,1.006638789E0
2.357518310E-1,-1.821646541E-1,6.504740715E-1,4.571495056E-1,8.156507521E-1
2.405500080E-1,-1.504167616E-1,3.339323997E-1,7.715883255E-1,8.540987026E-1
2.453482370E-1,-7.840342820E-2,8.213853836E-2,1.140670300E0,1.146308235E0
2.501464140E-1,5.355831981E-2,-1.267871857E-1,1.439806938E0,1.446370459E0
2.549445910E-1,1.684894264E-1,-4.136409760E-1,1.665843964E0,1.724680740E0
2.597427690E-1,9.452089667E-2,-6.221082211E-1,2.082475662E0,2.175467242E0
2.645409980E-1,1.946964860E-2,-5.326917171E-1,2.476172447E0,2.532897456E0
2.693391750E-1,-2.769112587E-3,-3.244006634E-1,2.567592621E0,2.588006052E0
2.741373520E-1,-4.183454812E-2,-2.078685760E-1,2.472114563E0,2.481191223E0
2.789355290E-1,-2.219990492E-1,-1.298563480E-1,2.388153076E0,2.401961982E0
2.837337580E-1,-4.647868276E-1,-1.943802834E-2,2.282717705E0,2.329636184E0
2.885319350E-1,-6.495591998E-1,1.445245743E-1,2.113559723E0,2.215840520E0
2.933301120E-1,-7.408728004E-1,2.613966465E-1,1.888090134E0,2.045019576E0
2.981282890E-1,-8.470114470E-1,1.073296070E-1,1.531247139E0,1.753187336E0
3.029265190E-1,-9.387106895E-1,-1.987807751E-1,1.183224678E0,1.523388392E0
3.077246960E-1,-9.992758632E-1,-5.383477211E-1,9.280519485E-1,1.466168796E0
3.125228730E-1,-9.179936051E-1,-5.030336380E-1,9.411573410E-1,1.407669081E0
3.173210500E-1,-8.462951183E-1,-5.587608814E-1,1.161669731E0,1.542045951E0
3.221192790E-1,-7.635815144E-1,-6.939444542E-1,1.331627846E0,1.684591450E0
3.269174560E-1,-6.439961791E-1,-8.673388958E-1,1.473089218E0,1.826745654E0
3.317156330E-1,-4.920069873E-1,-9.938108921E-1,1.591593742E0,1.939819993E0
3.365138100E-1,-3.845078349E-1,-1.147165179E0,1.726393700E0,2.108143598E0
3.413120390E-1,-3.402566612E-1,-1.308019519E0,1.765130997E0,2.223145765E0
3.461102160E-1,-3.222762346E-1,-1.424947262E0,1.756627083E0,2.284748428E0
3.509083940E-1,-2.659494579E-1,-1.452226996E0,1.751237869E0,2.290529729E0
3.557065710E-1,-7.147419453E-2,-1.368597031E0,1.770329475E0,2.238801654E0
3.605047480E-1,1.625887454E-1,-1.238693714E0,1.763625145E0,2.161289168E0
3.653029770E-1,3.639947176E-1,-1.140105009E0,1.778205872E0,2.143442957E0
3.701011540E-1,5.613597631E-1,-1.047495842E0,1.784907341E0,2.144356906E0
3.748993310E-1,7.852050662E-1,-1.049246669E0,1.702887535E0,2.148788385E0
3.796975080E-1,9.611864090E-1,-1.190231442E0,1.603576660E0,2.216300590E0
3.844957370E-1,1.041195869E0,-1.283977032E0,1.640773773E0,2.329125250E0
3.892939140E-1,1.058357835E0,-1.174584627E0,1.656756401E0,2.290111815E0
3.940920910E-1,1.084222555E0,-9.301005602E-1,1.580700874E0,2.130549426E0
3.988902690E-1,1.128413439E0,-7.057297230E-1,1.453872681E0,1.971070040E0
4.036884980E-1,1.154752374E0,-4.871225357E-1,1.347820282E0,1.840478449E0
4.084866750E-1,1.141040325E0,-2.914354801E-1,1.305091858E0,1.757888626E0
4.132848520E-1,1.093766093E0,-1.309456825E-1,1.337041855E0,1.732383318E0
4.180830290E-1,1.053425789E0,-2.249002457E-2,1.440791130E0,1.784962401E0
4.228812580E-1,1.036515117E0,2.425551414E-2,1.618308067E0,1.921945087E0
4.276794350E-1,1.024864793E0,-9.289741516E-3,1.750510216E0,2.028477300E0
4.324776120E-1,9.707413912E-1,-1.180565357E-1,1.932682037E0,2.165995395E0
4.372757890E-1,8.931445479E-1,-2.616360188E-1,2.112377167E0,2.308310613E0
4.420740190E-1,8.226781487E-1,-3.834102154E-1,2.280290604E0,2.454287670E0
4.468721960E-1,8.949568868E-1,-4.626340866E-1,2.288617134E0,2.500549242E0
4.516703730E-1,1.002249479E0,-5.100946426E-1,2.383192062E0,2.635204920E0
4.564685500E-1,9.403700829E-1,-6.275541782E-1,2.619549751E0,2.853096745E0
4.612667270E-1,8.502223492E-1,-7.416267395E-1,2.809679985E0,3.027736759E0
4.660649560E-1,7.566204667E-1,-8.245077133E-1,2.987882614E0,3.190568917E0
4.708631330E-1,6.769697070E-1,-8.652508259E-1,3.069603920E0,3.260278393E0
4.756613100E-1,5.857645869E-1,-8.787732124E-1,3.120265961E0,3.294149689E0
4.804594870E-1,4.842723012E-1,-8.680701256E-1,3.207139015E0,3.357648890E0
4.852577160E-1,3.401936293E-1,-8.437747955E-1,3.309444427E0,3.432216489E0
4.900558940E-1,1.748091280E-1,-8.093183041E-1,3.392455101E0,3.492034645E0
4.948540710E-1,-3.167808056E-2,-7.607903481E-1,3.426526070E0,3.510112015E0
4.996522480E-1,-2.712625563E-1,-8.001847267E-1,3.450800896E0,3.552732159E0
5.044504770E-1,-6.161792278E-1,-8.072144985E-1,3.489500999E0,3.634265994E0
5.092486540E-1,-9.784175158E-1,-8.794593811E-1,3.604014397E0,3.836622135E0
5.140468310E-1,-1.320008993E0,-1.018471956E0,3.760077477E0,4.113136455E0
5.188450080E-1,-1.667263150E0,-1.249571562E0,3.933089256E0,4.450886046E0
5.236432370E-1,-2.104191542E0,-1.632899523E0,4.069795609E0,4.863868747E0
5.284414140E-1,-2.410672188E0,-1.883399487E0,4.224710464E0,5.216005419E0
5.332395910E-1,-2.623403788E0,-1.913496017E0,4.321641922E0,5.405580759E0
5.380377690E-1,-2.804193974E0,-1.776970387E0,4.283143044E0,5.419081281E0
5.428359980E-1,-2.991539478E0,-1.577305317E0,4.101429939E0,5.315912721E0
5.476341750E-1,-3.222860813E0,-1.336289406E0,3.799458504E0,5.158331719E0
5.524323520E-1,-3.432584047E0,-1.096431255E0,3.382897377E0,4.942548877E0
5.572305290E-1,-3.579458237E0,-8.776798248E-1,2.884972572E0,4.680374973E0
5.620287060E-1,-3.666087389E0,-7.064828873E-1,2.364118576E0,4.419091700E0
5.668269350E-1,-3.728031874E0,-6.070113182E-1,1.878466606E0,4.218450092E0
5.716251120E-1,-3.738008261E0,-5.724768639E-1,1.454873085E0,4.051800984E0
5.764232890E-1,-3.700413227E0,-5.538549423E-1,1.082325459E0,3.895027824E0
5.812214660E-1,-3.654829979E0,-5.171375275E-1,7.382588387E-1,3.764337858E0
5.860196960E-1,-3.623152733E0,-4.619040489E-1,4.096765518E-1,3.675381062E0
5.908178730E-1,-3.624437809E0,-4.068946838E-1,9.797286987E-2,3.648521810E0
5.956160500E-1,-3.689541817E0,-3.657889366E-1,-2.075762749E-1,3.713436181E0
6.004142270E-1,-3.820377111E0,-3.967366219E-1,-5.255398750E-1,3.876709092E0
6.052124560E-1,-3.921371460E0,-3.895344734E-1,-7.836651802E-1,4.017838019E0
6.100106330E-1,-4.040392876E0,-3.255496025E-1,-9.879951477E-1,4.172156702E0
6.148088100E-1,-4.184177399E0,-2.485504150E-1,-1.181915760E0,4.355002029E0
6.196069870E-1,-4.336825848E0,-2.544250488E-1,-1.360140800E0,4.552227316E0
6.244052160E-1,-4.406635284E0,-3.391861916E-1,-1.514934540E0,4.672098935E0
6.292033940E-1,-4.392381191E0,-4.843444824E-1,-1.651041985E0,4.717365975E0
6.340015710E-1,-4.379155159E0,-6.715478897E-1,-1.686141253E0,4.740363783E0
6.387997480E-1,-4.377131939E0,-9.038124084E-1,-1.664581299E0,4.769380650E0
6.435979250E-1,-4.322620392E0,-1.159890652E0,-1.631000280E0,4.763460432E0
6.483961540E-1,-4.250537872E0,-1.406507015E0,-1.555949211E0,4.739864147E0
6.531943310E-1,-4.163903236E0,-1.639049053E0,-1.467535496E0,4.709377070E0
6.579925080E-1,-4.038123131E0,-1.905284882E0,-1.432314873E0,4.689144356E0
6.627906850E-1,-3.894527435E0,-2.150225639E0,-1.383467197E0,4.658840599E0
6.675889140E-1,-3.727177143E0,-2.395566463E0,-1.347550154E0,4.631034393E0
6.723870910E-1,-3.520425320E0,-2.610351562E0,-1.370860815E0,4.592013620E0
6.771852690E-1,-3.309721947E0,-2.744577408E0,-1.399508476E0,4.521679830E0
6.819834460E-1,-3.095050812E0,-2.774709702E0,-1.432081461E0,4.396499831E0
6.867816750E-1,-2.880879164E0,-2.720362663E0,-1.497956753E0,4.236001913E0
6.915798520E-1,-1.383711815E0,-2.244732857E0,-2.476868153E0,3.617783829E0
6.963780290E-1,-5.315067768E-1,-2.530532360E0,-2.897097588E0,3.883203305E0
7.011762060E-1,2.463594913E0,-4.622189045E0,-2.708296776E0,5.896507686E0
7.059744350E-1,6.817023277E0,-7.149068356E0,-2.156006813E0,1.011085308E1
7.107726120E-1,4.286944866E0,-3.627078056E0,-1.661194205E0,5.856036006E0
7.155707890E-1,1.019243240E0,-7.619295120E-1,-2.197184324E0,2.539096753E0
7.203689660E-1,-6.172695160E-1,9.785680771E-1,-3.997500420E0,4.161565420E0
7.251671960E-1,-1.589528799E0,2.852103233E0,-6.054407120E0,6.878731004E0
7.299653730E-1,-2.480234146E0,3.595171928E0,-6.837561607E0,8.113511653E0
7.347635500E-1,-2.644845247E0,2.522711754E0,-6.473174572E0,7.433792438E0
7.395617270E-1,-1.752639294E0,9.515924454E-1,-5.067526340E0,5.445832892E0
7.443599560E-1,-1.012164593E0,-1.016936302E-1,-3.434432507E0,3.581919234E0
7.491581330E-1,-6.979432106E-1,-7.390031815E-1,-2.434695244E0,2.638369072E0
7.539563100E-1,-7.190060616E-1,-1.051677704E0,-2.087823629E0,2.445813406E0
7.587544870E-1,-7.023668289E-1,-1.077736378E0,-1.945614338E0,2.332434354E0
7.635526640E-1,-5.464777946E-1,-1.042417526E0,-1.805191755E0,2.154991775E0
7.683508940E-1,-5.286302567E-1,-1.190636158E0,-1.762643576E0,2.191797615E0
7.731490710E-1,8.748960495E-2,-1.759551048E0,-2.035015345E0,2.691646666E0
7.779472480E-1,1.067165375E0,-2.847715378E0,-2.112017155E0,3.702558747E0
7.827454250E-1,1.434346676E0,-3.337471247E0,-1.771039009E0,4.041366586E0
7.875436540E-1,1.733707905E0,-3.804406881E0,-1.262896419E0,4.367397644E0
7.923418310E-1,2.503091335E0,-4.560308456E0,-7.295991182E-1,5.253017640E0
7.971400080E-1,3.408837795E0,-5.054097652E0,-3.531791568E-1,6.106456723E0
8.019381850E-1,3.992399216E0,-5.117989540E0,-1.098813415E-1,6.491929015E0
8.067364140E-1,4.244057178E0,-4.707885742E0,-5.290549994E-2,6.338691386E0
8.115345910E-1,4.212981701E0,-4.012240410E0,-3.078010082E-1,5.825978834E0
8.163327690E-1,3.895357609E0,-3.165516853E0,-8.004673719E-1,5.082819676E0
8.211309460E-1,3.417770863E0,-2.217457771E0,-1.382130146E0,4.302157642E0
8.259291750E-1,2.922274590E0,-1.335896492E0,-1.983389735E0,3.775995638E0
8.307273520E-1,2.155159950E0,-5.446739197E-1,-2.865075588E0,3.626298694E0
8.355255290E-1,1.544588566E0,2.514362335E-1,-3.670513630E0,3.990193520E0
8.403237060E-1,7.237896919E-1,1.075904846E0,-4.214449883E0,4.409425197E0
8.451218830E-1,2.634510994E-1,1.658948898E0,-4.553887367E0,4.853803466E0
8.499201120E-1,-3.562445641E-1,2.120166302E0,-4.553618908E0,5.035619177E0
8.547182890E-1,-5.073132515E-1,2.342558861E0,-4.469315529E0,5.071462318E0
8.595164660E-1,-8.541531563E-1,2.254323006E0,-4.265690804E0,4.899762021E0
8.643146440E-1,-9.125003815E-1,2.047715187E0,-4.100539684E0,4.673352131E0
8.691128730E-1,-1.199979782E0,1.716302872E0,-3.773702621E0,4.315840416E0
8.739110500E-1,-1.243355274E0,1.207860947E0,-3.228525877E0,3.664456268E0
8.787092270E-1,-1.121493816E0,6.010460854E-1,-2.412454128E0,2.727441970E0
8.835074040E-1,-9.789462090E-1,-2.674303055E-1,-9.196815491E-1,1.369550583E0
8.883056330E-1,-5.095839500E-1,-1.456147194E0,1.344985723E0,2.046711276E0
8.931038100E-1,-2.708263397E-1,-2.480783939E0,3.867177486E0,4.602466466E0
8.979019870E-1,-6.012697220E-1,-3.094562769E0,5.795759678E0,6.597626411E0
9.027001640E-1,-8.006167412E-1,-3.460509062E0,7.290245533E0,8.109487657E0
9.074983940E-1,-1.317689896E0,-3.476998329E0,7.113189697E0,8.026412132E0
9.122965710E-1,-1.921308994E0,-3.073875904E0,5.559089661E0,6.636536686E0
9.170947480E-1,-1.943841934E0,-2.002053022E0,4.236417770E0,5.072866379E0
9.218929250E-1,-1.856944084E0,-5.080995560E-1,3.158314705E0,3.698832014E0
9.266911540E-1,-1.641063690E0,3.379597664E-1,2.151023626E0,2.726574679E0
9.314893310E-1,-1.409215450E0,3.749976158E-1,1.172971129E0,1.871462708E0
9.362875080E-1,-1.933328629E0,7.214641571E-1,1.269703388E0,2.422894304E0
9.410856850E-1,-2.101828098E0,7.006325722E-1,3.049322367E-1,2.236414770E0
9.458839140E-1,-9.597287178E-1,6.881713867E-2,5.192570686E-1,1.093363121E0
9.506820910E-1,-6.880359650E-1,-7.841093540E-1,1.784206033E-1,1.058326452E0
9.554802690E-1,2.119293213E-1,-1.191783190E0,-4.105501473E-1,1.278206803E0
9.602784460E-1,7.259626389E-1,-9.930405617E-1,-3.553828597E-2,1.230615407E0
9.650766230E-1,1.314638138E0,-8.627743721E-1,2.363616228E-1,1.590132028E0
9.698748520E-1,2.255345345E0,-6.543698311E-1,7.936316729E-2,2.349698068E0
9.746730290E-1,2.027493477E0,-5.443191528E-2,-1.505760998E-1,2.033805741E0
9.794712060E-1,2.687844276E0,-2.254414558E-1,-4.889572561E-1,2.741242401E0
9.842693830E-1,4.052006721E0,-6.801644564E-1,-1.032757834E-1,4.109993680E0
9.890676120E-1,4.644630432E0,-8.226481676E-1,5.337730050E-1,4.747025962E0
9.938657890E-1,3.306120872E0,-5.885736942E-1,6.166508794E-1,3.414251386E0
9.986639660E-1,3.872314453E0,-1.094194770E0,-4.498678446E-1,4.049007594E0
1.003462144E0,3.133497238E0,-1.028484941E0,-3.318191767E-1,3.314617652E0
1.008260373E0,1.945762634E0,-2.889970541E-1,3.023272753E-1,1.990204338E0
1.013058550E0,7.013044357E-1,8.982708454E-1,2.751975656E-1,1.172370301E0
1.017856727E0,-3.118600845E-1,2.100221395E0,4.758344293E-1,2.175914756E0
1.022654904E0,-4.138126373E-1,2.307793856E0,2.541332841E-1,2.358333544E0
1.027453133E0,2.215385437E-2,2.063821793E0,5.023580790E-1,2.124197454E0
1.032251310E0,1.431837082E-1,1.494754553E0,1.317703247E0,1.997782419E0
1.037049487E0,-1.354675293E-1,8.038089275E-1,2.581547737E0,2.707184693E0
1.041847664E0,-7.648830414E-1,-1.442802250E-1,3.850823879E0,3.928703017E0
1.046645841E0,-1.515014648E0,-1.392730594E0,3.837581396E0,4.354537732E0
1.051444071E0,-1.935085297E0,-2.190962315E0,3.207414150E0,4.339628613E0
1.056242248E0,-1.981728077E0,-2.467900753E0,3.228043318E0,4.520845492E0
1.061040425E0,-1.695384502E0,-2.609889507E0,3.015686035E0,4.333614440E0
1.065838602E0,-1.299128532E0,-2.064309597E0,1.930892944E0,3.110861073E0
1.070636831E0,-8.074111938E-1,-1.563361406E0,8.065033555E-1,1.935577274E0
1.075435008E0,9.328994751E-1,-2.108785629E0,-7.236354351E-1,2.416800882E0
1.080233185E0,1.705752373E0,-2.241199493E0,-1.939175844E0,3.419498396E0
1.085031362E0,1.805873871E0,-2.214089870E0,-2.678734303E0,3.916502503E0
1.089829591E0,2.048261642E0,-2.367732525E0,-2.942571640E0,4.296540576E0
1.094627769E0,2.244171143E0,-2.642216682E0,-3.360773087E0,4.828292540E0
1.099425946E0,2.072540283E0,-2.674021244E0,-3.791116714E0,5.081178877E0
1.104224175E0,7.357215881E-2,-8.238217831E-1,-4.225597382E0,4.305783137E0
1.109022352E0,-2.677677155E0,2.910468578E-1,-4.958516598E0,5.642831742E0
1.113820529E0,-3.446815491E0,-7.596173286E-1,-5.585206985E0,6.606973027E0
1.118618706E0,-2.134029865E0,-2.726360559E0,-6.171724319E0,7.076532091E0
1.123416935E0,-2.162035465E0,-3.758101702E0,-6.704186916E0,7.983974447E0
1.128215112E0,-1.859354973E0,-3.665763140E0,-5.964277267E0,7.243453847E0
1.133013289E0,-1.601459026E0,-2.625103712E0,-4.860272884E0,5.751355755E0
1.137811466E0,-1.987723351E0,-1.373464584E0,-4.295682907E0,4.928523179E0
1.142609644E0,-2.404126644E0,-6.967356205E-1,-4.193186760E0,4.883449667E0
1.147407873E0,-2.748532295E0,-1.997082233E-1,-4.356189251E0,5.154677288E0
1.152206050E0,-2.888262272E0,-8.975028992E-2,-4.174789429E0,5.077300547E0
1.157004227E0,-2.917593479E0,-4.439640045E-2,-3.695934057E0,4.708954375E0
1.161802404E0,-2.870828152E0,1.251592636E-1,-2.655416965E0,3.912615286E0
1.166600633E0,-3.227751732E0,3.045246601E-1,-1.584854364E0,3.608722747E0
1.171398810E0,-3.457165718E0,1.278349161E0,4.772460461E-2,3.686251350E0
1.176196987E0,-3.675329685E0,1.287752867E0,5.674299002E-1,3.935521875E0
1.180995164E0,-3.962698460E0,1.117999315E0,1.004341483E0,4.238113185E0
1.185793394E0,-4.160135269E0,1.108136415E0,1.562825441E-1,4.308029249E0
1.190591571E0,-4.268999577E0,1.479453802E0,8.140909672E-2,4.518823783E0
1.195389748E0,-4.269636154E0,1.787639618E0,8.120330572E-1,4.699451668E0
1.200187925E0,-4.040638447E0,1.994604230E0,1.829563379E0,4.863384341E0
1.204986102E0,-3.528409481E0,2.375513554E0,2.767346382E0,5.074538807E0
1.209784331E0,-3.120783329E0,2.566764355E0,2.932096004E0,4.992469811E0
1.214582508E0,-2.464797497E0,2.893252134E0,3.473010540E0,5.148585905E0
1.219380685E0,-1.718101025E0,3.136667728E0,3.859506130E0,5.261781366E0
1.224178914E0,-6.362471581E-1,3.653289318E0,4.507140636E0,5.836578621E0
1.228977091E0,3.842353821E-2,4.082968712E0,4.226747513E0,5.876861782E0
1.233775269E0,1.232957840E0,4.853194237E0,3.573967934E0,6.151985543E0
1.238573446E0,1.833062172E0,5.648505211E0,2.852212429E0,6.587931677E0
1.243371675E0,2.199787140E0,6.268102169E0,1.088900208E0,6.731557912E0
1.248169852E0,1.505059242E0,6.049608231E0,-2.109668970E0,6.581311893E0
1.252968029E0,3.106040955E-1,5.263201237E0,-2.601744652E0,5.879356886E0
1.257766206E0,-5.375828743E-1,4.779186726E0,-1.481522083E0,5.032348238E0
1.262564383E0,-2.528300762E0,3.940713882E0,-5.944457650E-1,4.719628843E0
1.267362612E0,-3.750492096E0,3.647498608E0,-2.541918159E-1,5.237847891E0
1.272160789E0,-4.906640530E0,3.476997852E0,-3.384997249E-1,6.023223175E0
1.276958966E0,-5.550765991E0,3.065996408E0,-1.194334388E0,6.452733661E0
1.281757196E0,-5.485912323E0,2.733995438E0,-1.847312808E0,6.401759889E0
1.286555373E0,-5.253420830E0,1.967859745E0,-3.496527195E0,6.610340749E0
1.291353550E0,-4.174364090E0,1.613132954E0,-4.536233425E0,6.372199555E0
1.296151727E0,-2.695730925E0,6.811919212E-1,-4.407442093E0,5.211193093E0
1.300949904E0,-2.458348274E0,-6.599397659E-1,-2.851278305E0,3.822143993E0
1.305748133E0,-1.107007504E0,-1.749314785E0,-1.062527895E-1,2.072886269E0
1.310546310E0,-2.588739395E-1,-2.167126656E0,2.028291702E0,2.979500107E0
1.315344487E0,5.152378082E-1,-2.918075085E0,4.616852760E0,5.485978637E0
1.320142664E0,1.715316296E0,-4.127424717E0,6.871993065E0,8.197696839E0
1.324940894E0,2.619208813E0,-4.640685558E0,6.892662525E0,8.712348360E0
1.329739071E0,3.392429829E0,-4.273924351E0,6.108803749E0,8.191000717E0
1.334537248E0,3.725590706E0,-3.819950581E0,5.299308300E0,7.520287029E0
1.339335477E0,4.113064766E0,-3.062076569E0,3.764685869E0,6.361326463E0
1.344133654E0,4.608510971E0,-2.494864464E0,2.681523085E0,5.886704351E0
1.348931831E0,5.172787189E0,-2.102664948E0,2.028534651E0,5.940865258E0
1.353730008E0,5.798738956E0,-1.682535648E0,1.530369520E0,6.228830593E0
1.358528185E0,6.314797878E0,-1.268248081E0,1.297662735E0,6.570316127E0
1.363326414E0,6.671854496E0,-9.742565155E-1,1.645747066E0,6.940554847E0
1.368124591E0,6.778660774E0,-5.066432953E-1,1.352588058E0,6.930831391E0
1.372922769E0,6.674471855E0,-4.555130005E-1,9.742039442E-1,6.760557667E0
1.377720946E0,1.186323833E1,-9.040731430E0,3.202704191E0,1.525544371E1
1.382519175E0,4.479982853E0,-3.653360367E0,5.048238754E0,7.674764026E0
1.387317352E0,7.056550026E0,-9.648186684E0,5.832321644E0,1.330031505E1
1.392115529E0,1.070239830E1,-1.483625031E1,6.007349968E0,1.925471127E1
1.396913706E0,1.158839607E1,-1.813272476E1,3.754546404E0,2.184452447E1
1.401711935E0,3.741663933E0,-1.358731747E1,7.583570480E-2,1.409329614E1
1.406510112E0,1.030413437E1,-1.710759926E1,-1.368337154E0,2.001792906E1
1.411308289E0,4.558551788E0,-2.087192154E1,1.660428047E-1,2.136457520E1
1.416106466E0,9.156392097E0,-3.097047424E1,4.460147381E0,3.260218866E1
1.420904696E0,1.252505875E1,-3.716628265E1,6.513067245E0,3.975713405E1
1.425702873E0,1.497441196E1,-4.025286865E1,7.744656563E0,4.364064795E1
1.430501050E0,1.196505451E1,-3.592621994E1,5.506391525E0,3.826455483E1
1.435299227E0,8.190679550E0,-2.891019440E1,2.201433182E0,3.012860567E1
1.440097456E0,4.943223476E0,-2.176569366E1,4.131745100E-1,2.232378983E1
1.444895633E0,1.524025917E0,-1.610660172E1,-1.965516806E0,1.629750073E1
1.449693810E0,-1.335493088E0,-1.142473507E1,-3.665017605E0,1.207230165E1
1.454491987E0,-3.620618582E0,-7.790675163E0,-4.475620270E0,9.686829988E0
1.459290216E0,-5.332569122E0,-4.758282661E0,-5.137873650E0,8.802005054E0
1.464088394E0,-5.996518135E0,-1.932392120E0,-4.953579903E0,8.014382253E0
1.468886571E0,-6.457510948E0,-8.370780945E-2,-4.373159885E0,7.799421903E0
1.473684748E0,-7.018198967E0,1.454238892E0,-4.257645130E0,8.336514232E0
1.478482977E0,-7.427639008E0,2.618755341E0,-3.645521164E0,8.678567008E0
1.483281154E0,-7.488716125E0,3.530426025E0,-3.147182226E0,8.857174103E0
1.488079331E0,-7.368292809E0,4.472599506E0,-2.674315691E0,9.024846241E0
1.492877508E0,-6.730923653E0,5.466214180E0,-2.242339134E0,8.956166338E0
1.497675737E0,-6.875151634E0,6.265604019E0,-2.296693802E0,9.581247630E0
1.502473914E0,-6.787188530E0,6.758963585E0,-2.581560373E0,9.920381588E0
1.507272091E0,-6.410900593E0,7.094792366E0,-2.430031061E0,9.866142918E0
1.512070269E0,-6.008279324E0,7.416036606E0,-2.101015091E0,9.772987454E0
1.516868498E0,-5.537699699E0,7.836519718E0,-2.017210484E0,9.805421836E0
1.521666675E0,-5.157627583E0,8.257736206E0,-1.601829410E0,9.866974561E0
1.526464852E0,-4.921395302E0,8.554011345E0,-1.742397547E0,1.002133679E1
1.531263029E0,-4.890522003E0,8.830732346E0,-1.633511424E0,1.022582020E1
1.536061258E0,-4.845579624E0,9.027953148E0,-1.435773849E0,1.034625664E1
1.540859435E0,-4.751214504E0,9.176733971E0,-1.349336743E0,1.042147760E1
1.545657612E0,-4.677103519E0,9.305674553E0,-1.244289994E0,1.048900061E1
1.550455789E0,-4.583630562E0,9.342762947E0,-9.930331111E-1,1.045385113E1
1.555254019E0,-4.612981796E0,9.263746262E0,-7.257531881E-1,1.037416568E1
1.560052196E0,-4.799897671E0,9.158832550E0,-4.578737020E-1,1.035050142E1
1.564850373E0,-4.918803215E0,9.070393562E0,-1.786154360E-1,1.031981434E1
1.569648550E0,-4.845716953E0,9.194199562E0,6.949566305E-3,1.039299412E1
1.574446779E0,-4.850235939E0,9.324838638E0,9.882947803E-2,1.051128782E1
1.579244956E0,-4.965865612E0,9.347736359E0,2.365466356E-1,1.058753751E1
1.584043133E0,-4.928200245E0,9.344110489E0,3.679350913E-1,1.057047467E1
1.588841310E0,-5.090795994E0,9.478745461E0,5.270711780E-1,1.077221534E1
1.593639539E0,-5.093013763E0,9.624810219E0,6.064976454E-1,1.090612673E1
1.598437716E0,-4.928592682E0,9.915794373E0,5.342892408E-1,1.108600329E1
1.603235894E0,-4.922661304E0,1.001730442E1,7.926616669E-1,1.118960655E1
1.608034071E0,-4.785985947E0,1.000399399E1,1.018107295E0,1.113652099E1
1.612832300E0,-4.720249176E0,1.038739681E1,1.102868438E0,1.146276946E1
1.617630477E0,-3.858115673E0,1.100460815E1,9.631415009E-1,1.170102981E1
1.622428654E0,-3.572987556E0,1.138287926E1,1.062774181E0,1.197771553E1
1.627226831E0,-3.578475237E0,1.184765148E1,1.133016944E0,1.242803516E1
1.632025060E0,-3.088171005E0,1.174760246E1,1.526216626E0,1.224223431E1
1.636823237E0,-2.897685528E0,1.203643417E1,1.417590618E0,1.246121552E1
1.641621414E0,-3.103352308E0,1.212156868E1,1.394448519E0,1.258998449E1
1.646419591E0,-2.907302141E0,1.177693462E1,1.581172585E0,1.223309861E1
1.651217821E0,-3.026768446E0,1.189600277E1,1.597044230E0,1.237847969E1
1.656015998E0,-3.169990301E0,1.151111031E1,1.842706800E0,1.208097957E1
1.660814175E0,-3.267734766E0,1.149460506E1,1.820651889E0,1.208796134E1
1.665612352E0,-3.487136126E0,1.139694023E1,1.924661160E0,1.207289052E1
1.670410581E0,-3.441914082E0,1.117522907E1,1.879820585E0,1.184340503E1
1.675208758E0,-3.491110086E0,1.098481941E1,1.767557621E0,1.166097625E1
1.680006935E0,-3.466050863E0,1.081577682E1,1.413536429E0,1.144520083E1
1.684805112E0,-3.350688219E0,1.068462372E1,8.233208060E-1,1.122791845E1
1.689603341E0,-3.259691715E0,1.047681522E1,5.056662560E-1,1.098384931E1
1.694401519E0,-3.001869440E0,1.022129440E1,3.122038841E-1,1.065755838E1
1.699199696E0,-2.674938202E0,9.880209923E0,2.240551114E-1,1.023836135E1
1.703997873E0,-2.308419704E0,9.611807823E0,2.275482714E-1,9.887741369E0
1.708796102E0,-1.988310099E0,9.476333618E0,2.607191503E-1,9.686188640E0
1.713594279E0,-1.776848674E0,9.373849869E0,3.620292842E-1,9.547634145E0
1.718392456E0,-1.510054111E0,9.178205490E0,4.935142696E-1,9.314680659E0
1.723190633E0,-1.227174282E0,9.188240051E0,7.161462307E-1,9.297450047E0
1.727988862E0,-1.031876564E0,9.036142349E0,8.974406719E-1,9.139039203E0
1.732787039E0,-8.896081448E-1,8.913293839E0,1.220049977E0,9.040283826E0
1.737585216E0,-8.043447733E-1,8.824343681E0,1.440545678E0,8.977259257E0
1.742383394E0,-4.819781780E-1,8.485078812E0,1.829178214E0,8.693374393E0
1.747181623E0,-5.007627010E-1,8.143913269E0,2.157262564E0,8.439660443E0
1.751979800E0,-6.622124910E-1,7.535525799E0,2.417040348E0,7.941332287E0
1.756777977E0,-6.353973150E-1,7.130725384E0,2.388482332E0,7.546908115E0
1.761576154E0,-4.155848026E-1,6.484959602E0,2.349346638E0,6.909908928E0
1.766374383E0,-9.172466993E-1,5.018728256E0,2.569307089E0,5.712294962E0
1.771172560E0,-8.499141932E-1,3.283548832E0,2.329095364E0,4.114454068E0
1.775970737E0,-5.305625200E-1,7.689280510E-1,1.183607340E0,1.507870442E0
1.780768914E0,1.991851926E0,-6.574284554E0,1.182154655E0,6.970378836E0
1.785567144E0,-8.853307366E-1,-1.189574814E1,-4.372672439E-1,1.193665937E1
1.790365321E0,1.159925461E0,-2.236794281E1,-1.823948383E0,2.247214009E1
1.795163498E0,4.095802307E0,-3.507201385E1,-2.961599827E0,3.543434529E1
1.799961675E0,4.464666367E0,-4.550568008E1,-5.272092819E0,4.602711297E1
1.804759904E0,3.898855686E0,-5.273204422E1,-7.574666023E0,5.341577603E1
1.809558081E0,4.250602245E0,-5.576036835E1,-9.252104759E0,5.668234064E1
1.814356258E0,3.407715321E0,-5.350527191E1,-1.167038155E1,5.486915756E1
1.819154435E0,3.349818707E0,-4.658083344E1,-1.036772537E1,4.783811303E1
1.823952664E0,3.917294502E0,-3.920113373E1,-8.274758339E0,4.025600213E1
1.828750841E0,3.279141426E0,-3.264461517E1,-6.184816360E0,3.338675818E1
1.833549019E0,1.941292644E0,-2.766486168E1,-4.131278038E0,2.803891309E1
1.838347196E0,-7.119319439E-1,-2.209195328E1,-3.772672653E0,2.242307529E1
1.843145425E0,-1.188729405E0,-1.881728745E1,-3.041682959E0,1.909856590E1
1.847943602E0,-1.934264779E0,-1.589956093E1,-3.648589611E0,1.642710029E1
1.852741779E0,-2.862185001E0,-1.419075489E1,-4.067555904E0,1.503710871E1
1.857539956E0,-3.844532013E0,-1.325428009E1,-4.372049332E0,1.447657357E1
1.862338185E0,-4.825697422E0,-1.291928673E1,-4.655022621E0,1.455556803E1
1.867136362E0,-5.746187210E0,-1.262585068E1,-4.684473991E0,1.464155283E1
1.871934539E0,-6.445878983E0,-1.228543282E1,-4.495088100E0,1.458379348E1
1.876732716E0,-6.829786777E0,-1.202451515E1,-4.059756756E0,1.441237583E1
1.881530894E0,-6.844845772E0,-1.169962883E1,-3.626514435E0,1.403156568E1
1.886329123E0,-6.551219940E0,-1.106512642E1,-3.211466074E0,1.325401900E1
1.891127300E0,-5.992416859E0,-1.006215286E1,-2.864325762E0,1.205654769E1
1.895925477E0,-5.003839016E0,-8.870630264E0,-2.548884153E0,1.049872833E1
1.900723706E0,-4.268950462E0,-7.655682564E0,-2.165201426E0,9.028926336E0
1.905521883E0,-3.379573345E0,-6.429406166E0,-1.875741959E0,7.501812284E0
1.910320060E0,-2.473487139E0,-5.087047577E0,-1.934636831E0,5.978211383E0
1.915118237E0,-1.683546066E0,-3.884442329E0,-1.892145276E0,4.637179457E0
1.919916466E0,-1.003350973E0,-2.737749100E0,-1.841979742E0,3.448894414E0
1.924714644E0,-4.778625965E-1,-1.658675194E0,-1.720615387E0,2.437226573E0
1.929512821E0,5.748546124E-2,-6.399345398E-1,-1.702310443E0,1.819527861E0
1.934310998E0,3.256593347E-1,3.042802811E-1,-1.741256595E0,1.797391171E0
1.939109227E0,4.008382559E-1,1.100152016E0,-1.579732180E0,1.966356917E0
1.943907404E0,4.274951220E-1,1.790923119E0,-1.511740685E0,2.382334484E0
1.948705581E0,3.094060123E-1,2.477130890E0,-1.205797791E0,2.772337974E0
1.953503758E0,5.391237140E-2,3.051428318E0,-6.533862948E-1,3.121063116E0
1.958301987E0,-1.885861754E-1,3.600109577E0,-2.556449175E-2,3.605136233E0
1.963100164E0,-5.017796755E-1,4.130497456E0,6.550759077E-1,4.212115445E0
1.967898341E0,-8.440581560E-1,4.578367233E0,1.455867052E0,4.877850917E0
1.972696519E0,-9.551563263E-1,5.018000126E0,2.041297674E0,5.500867665E0
1.977494748E0,-1.113061905E0,5.501989841E0,2.537471294E0,6.160321387E0
1.982292925E0,-1.318463206E0,5.951494217E0,2.836361885E0,6.723360572E0
1.987091102E0,-1.480184317E0,6.447775841E0,2.723344803E0,7.154115307E0
1.991889279E0,-1.442093611E0,7.133893013E0,2.503190517E0,7.696624343E0
1.996687508E0,-1.090790510E0,7.904134750E0,2.074614048E0,8.244343123E0
2.001485685E0,-7.678968906E-1,8.533711433E0,1.611956239E0,8.718503276E0
2.006283862E0,-4.769233763E-1,9.249742508E0,1.465196609E0,9.377206059E0
2.011082039E0,-1.610555649E-1,9.913594246E0,1.069251895E0,9.972391357E0
2.015880269E0,2.253202498E-1,1.072835350E1,6.663013697E-1,1.075138575E1
2.020678446E0,5.902422667E-1,1.141926575E1,4.314053655E-1,1.144264509E1
2.025476623E0,1.394402623E0,1.224938202E1,8.690497279E-1,1.235908435E1
2.030274800E0,1.620116234E0,1.271236038E1,1.081343651E0,1.286072265E1
2.035073029E0,1.729936481E0,1.320298100E1,1.509767652E0,1.340114867E1
2.039871206E0,2.107386351E0,1.393366241E1,1.816450477E0,1.420871274E1
2.044669383E0,2.523033142E0,1.487774086E1,3.565271139E0,1.550561278E1
2.049467560E0,2.342291832E0,1.509177876E1,4.204099655E0,1.584053569E1
2.054265789E0,2.242040157E0,1.528162384E1,5.027381420E0,1.624282411E1
2.059063966E0,2.277822256E0,1.542813683E1,5.518099308E0,1.654283229E1
2.063862144E0,2.265334845E0,1.547880745E1,5.726908684E0,1.665901273E1
2.068660321E0,2.288458347E0,1.541456413E1,5.129241467E0,1.640594243E1
2.073458550E0,2.729194880E0,1.566755486E1,3.223272085E0,1.622683773E1
2.078256727E0,3.099778891E0,1.588129997E1,9.036551118E-1,1.620619976E1
2.083054904E0,3.605609179E0,1.613467979E1,-1.051251173E0,1.656603268E1
2.087853081E0,3.892802000E0,1.612450027E1,-2.968994856E0,1.685136039E1
2.092651310E0,3.798223972E0,1.567006493E1,-3.531163454E0,1.650595515E1
2.097449487E0,3.593402386E0,1.477010059E1,-3.271361113E0,1.554896189E1
2.102247664E0,3.461109161E0,1.352120018E1,-2.814353466E0,1.423807278E1
2.107045841E0,3.052790165E0,1.205309105E1,-2.549864292E0,1.269245207E1
2.111844071E0,2.368701458E0,1.081027985E1,-2.455709457E0,1.133593428E1
2.116642248E0,1.838893294E0,9.885348320E0,-2.545279264E0,1.037208207E1
2.121440425E0,1.411414623E0,9.186921120E0,-2.709680557E0,9.681631041E0
2.126238602E0,1.177153945E0,8.607134819E0,-2.852601767E0,9.143620620E0
2.131036831E0,1.012001991E0,8.257998466E0,-2.923555374E0,8.818495491E0
2.135835008E0,7.444373965E-1,8.072200775E0,-2.881963730E0,8.603506688E0
2.140633185E0,6.256516576E-1,7.896634579E0,-2.780480623E0,8.395198042E0
2.145431362E0,6.174677014E-1,7.709863186E0,-2.704764366E0,8.193839575E0
2.150229591E0,5.716148615E-1,7.612232685E0,-2.623655081E0,8.071951188E0
2.155027769E0,4.951535463E-1,7.625045776E0,-2.520773888E0,8.046166859E0
2.159825946E0,3.429308534E-1,7.578551769E0,-2.405902863E0,7.958669303E0
2.164624123E0,2.391526997E-1,7.616096497E0,-2.263028622E0,7.948799809E0
2.169422352E0,1.670370549E-1,7.658657074E0,-2.052306175E0,7.930629874E0
2.174220529E0,1.123876423E-1,7.699018002E0,-1.850830197E0,7.919159147E0
2.179018706E0,2.513501793E-2,7.744312286E0,-1.690000534E0,7.926607494E0
2.183816883E0,-1.731440425E-3,7.761089325E0,-1.555624008E0,7.915458077E0
2.188615112E0,-6.390893459E-2,7.742231369E0,-1.412001133E0,7.870195558E0
2.193413289E0,-1.253681779E-1,7.745089531E0,-1.335822344E0,7.860442122E0
2.198211466E0,-1.695205867E-1,7.740948200E0,-1.207752228E0,7.836432971E0
2.203009644E0,-2.348213196E-1,7.658171654E0,-9.994716048E-1,7.726686070E0
2.207807873E0,-2.495868951E-1,7.573301315E0,-7.879064083E-1,7.618266400E0
2.212606050E0,-2.544635832E-1,7.481533527E0,-6.522473097E-1,7.514221330E0
2.217404227E0,-2.662737668E-1,7.268249512E0,-4.422202706E-1,7.286556900E0
2.222202404E0,-2.067733407E-1,6.943266392E0,-1.866115928E-1,6.948850789E0
2.227000633E0,-5.571146309E-2,6.416146278E0,1.247261167E-1,6.417600286E0
2.231798810E0,2.184923589E-1,5.503572464E0,3.164301515E-1,5.516989833E0
2.236596987E0,4.728697836E-1,4.113354206E0,4.169076085E-1,4.161382055E0
2.241395164E0,7.463002205E-1,1.974370003E0,4.067347050E-1,2.149542753E0
2.246193394E0,1.043889523E0,-1.637712479E0,1.987456381E-1,1.952256983E0
2.250991571E0,1.717496753E0,-7.436267853E0,1.685267091E-1,7.633889960E0
2.255789748E0,2.403025389E0,-1.444769955E1,3.138235211E-1,1.464954055E1
2.260587925E0,3.145105362E0,-2.189186096E1,-2.550348639E-2,2.211664338E1
2.265386154E0,3.722789526E0,-2.985963821E1,-1.061098933E0,3.010951821E1
2.270184331E0,3.460195541E0,-3.629277039E1,1.222109795E-1,3.645755163E1
2.274982508E0,3.409555435E0,-3.993704987E1,1.814828038E0,4.012339244E1
2.279780737E0,2.994420528E0,-3.922303009E1,2.881937742E0,3.944259384E1
2.284578914E0,2.283209801E0,-3.548018646E1,3.163533688E0,3.569404185E1
2.289377091E0,1.296729326E0,-3.128772354E1,2.777856112E0,3.143755137E1
2.294175269E0,5.678242445E-1,-2.758059502E1,2.095626593E0,2.766592302E1
2.298973446E0,-4.999565482E-1,-2.465446854E1,2.121327400E0,2.475061222E1
2.303771675E0,-1.835123420E0,-2.286706543E1,2.666450500E0,2.309502798E1
2.308569852E0,-2.625658512E0,-2.158723450E1,2.569065332E0,2.189755403E1
2.313368029E0,-2.838785648E0,-2.032120132E1,1.515179157E0,2.057439416E1
2.318166258E0,-3.134415627E0,-1.920005035E1,9.009979367E-1,1.947506848E1
2.322964435E0,-3.372989178E0,-1.796830559E1,4.947218597E-1,1.828884391E1
2.327762612E0,-3.531782150E0,-1.708788681E1,9.766614437E-2,1.744932375E1
2.332560789E0,-3.976739168E0,-1.663624954E1,7.200783491E-1,1.712009831E1
2.337359019E0,-3.654683113E0,-1.591796494E1,4.078640044E-1,1.633721731E1
2.342157196E0,-1.789090157E0,-1.457342434E1,-8.300085068E-1,1.470627263E1
2.346955373E0,2.178508759E0,-1.470023823E1,-1.302183747E0,1.491772727E1
2.351753550E0,1.755492687E0,-1.392703819E1,-1.717641354E0,1.414193902E1
2.356551779E0,2.108621597E0,-1.399470997E1,-2.269845486E0,1.433354076E1
2.361349956E0,1.684841037E0,-1.401891708E1,-2.553008080E0,1.434874823E1
2.366148133E0,1.121450305E0,-1.387837791E1,-2.559419155E0,1.415689411E1
2.370946310E0,7.256567478E-1,-1.325131798E1,-2.298556566E0,1.346875526E1
2.375744539E0,4.988598824E-1,-1.200511456E1,-2.077652454E0,1.219378023E1
2.380542716E0,3.139448166E-1,-1.049445820E1,-1.909154415E0,1.067132067E1
2.385340894E0,2.930569649E-1,-8.946645737E0,-1.753246784E0,9.121525454E0
2.390139071E0,3.596113920E-1,-7.464383125E0,-1.436446190E0,7.609843195E0
2.394937300E0,4.699952602E-1,-5.978322983E0,-1.076448202E0,6.092617004E0
2.399735477E0,7.021307945E-1,-4.629454613E0,-6.231135130E-1,4.723675276E0
2.404533654E0,7.499444485E-1,-3.429450035E0,-1.707495749E-1,3.514640755E0
2.409331831E0,7.259331942E-1,-2.318309784E0,3.562209904E-1,2.455286674E0
2.414130060E0,5.132814646E-1,-1.169287682E0,7.626890540E-1,1.487409203E0
2.418928237E0,3.225945234E-1,-1.711244583E-1,1.183770299E0,1.238815130E0
2.423726414E0,1.584745646E-1,7.862577438E-1,1.560820580E0,1.754843671E0
2.428524644E0,-1.009869576E-2,1.695696831E0,1.840606689E0,2.502663124E0
2.433322821E0,-1.662324667E-1,2.564351082E0,2.065574646E0,3.296987765E0
2.438120998E0,-2.742588520E-1,3.396883488E0,2.345388412E0,4.137013676E0
2.442919175E0,-4.343189001E-1,4.135897160E0,2.501317739E0,4.852923722E0
2.447717352E0,-6.267135143E-1,4.884130478E0,2.543581009E0,5.542319434E0
2.452515581E0,-8.437511921E-1,5.586489201E0,2.296423435E0,6.098716115E0
2.457313758E0,-1.011090159E0,6.106813908E0,1.983993530E0,6.500131517E0
2.462111935E0,-1.281319380E0,6.880036354E0,1.553126335E0,7.168603839E0
2.466910112E0,-1.434522152E0,7.408839226E0,1.155885696E0,7.634449831E0
2.471708341E0,-1.570841312E0,7.915815353E0,8.293452263E-1,8.112674568E0
2.476506519E0,-1.632880688E0,8.336553574E0,3.979568481E-1,8.504280950E0
2.481304696E0,-1.749424338E0,8.700010300E0,-5.071163177E-2,8.874302023E0
2.486102925E0,-1.841631413E0,8.961096764E0,-4.552164674E-1,9.159698876E0
2.490901102E0,-2.019454479E0,9.273295403E0,-1.182901859E0,9.564071352E0
2.495699279E0,-2.203716278E0,9.596508980E0,-2.075191259E0,1.006259255E1
2.500497456E0,-2.272671461E0,9.957505226E0,-2.733482361E0,1.057302567E1
2.505295685E0,-2.298625708E0,1.013459110E1,-3.283081293E0,1.089826774E1
2.510093862E0,-2.379900455E0,1.045101070E1,-3.660703182E0,1.132644246E1
2.514892039E0,-2.422934055E0,1.077307034E1,-4.031550884E0,1.175512894E1
2.519690216E0,-2.480152369E0,1.094578075E1,-4.242887020E0,1.199847333E1
2.524488446E0,-2.553469419E0,1.113678837E1,-4.386238098E0,1.223876407E1
2.529286623E0,-2.633187294E0,1.137001419E1,-4.404942513E0,1.247455076E1
2.534084800E0,-2.616710424E0,1.154494095E1,-4.262062073E0,1.258165363E1
2.538882977E0,-2.635599136E0,1.168532944E1,-4.035776615E0,1.264044302E1
2.543681206E0,-2.694691181E0,1.182920265E1,-3.758559227E0,1.270110875E1
2.548479383E0,-2.688806295E0,1.201455307E1,-3.477024078E0,1.279331314E1
2.553277560E0,-2.711217642E0,1.219808769E1,-3.134967327E0,1.288301458E1
2.558075737E0,-2.745062351E0,1.243455029E1,-2.960382700E0,1.307353333E1
2.562873966E0,-2.809431791E0,1.266166782E1,-2.626132011E0,1.323281181E1
2.567672144E0,-2.859101295E0,1.283867073E1,-2.278863192E0,1.334912521E1
2.572470321E0,-2.905858278E0,1.303481197E1,-2.036277771E0,1.350913627E1
2.577268498E0,-2.968848228E0,1.325251102E1,-1.792761326E0,1.369879927E1
2.582066727E0,-3.056993961E0,1.354673481E1,-1.730084300E0,1.399472857E1
2.586864904E0,-3.057898283E0,1.379548836E1,-1.544891238E0,1.421453235E1
2.591663081E0,-3.062847853E0,1.403702831E1,-1.464159846E0,1.444170921E1
2.596461258E0,-3.093412399E0,1.423319817E1,-1.334591866E0,1.462649192E1
2.601259487E0,-3.082520247E0,1.437224579E1,-1.330272079E0,1.475916677E1
2.606057664E0,-3.030344963E0,1.457119942E1,-1.343914986E0,1.494352537E1
2.610855841E0,-3.001667261E0,1.458617020E1,-1.356891632E0,1.495351204E1
2.615654019E0,-2.941343784E0,1.460141373E1,-1.426631212E0,1.496288952E1
2.620452248E0,-2.875117779E0,1.454996681E1,-1.510986805E0,1.490808229E1
2.625250425E0,-2.728745222E0,1.440089417E1,-1.562417984E0,1.474018159E1
2.630048602E0,-2.554707050E0,1.409698200E1,-1.648374915E0,1.442111541E1
2.634846779E0,-2.429442883E0,1.368141842E1,-1.633082867E0,1.399108153E1
2.639645008E0,-2.354960442E0,1.303502560E1,-1.686380744E0,1.335296263E1
2.644443185E0,-2.333808661E0,1.226817894E1,-1.549528003E0,1.258395464E1
2.649241362E0,-2.378292084E0,1.144807720E1,-1.384324789E0,1.177417088E1
2.654039539E0,-2.484224558E0,1.055817986E1,-1.254210949E0,1.091877185E1
2.658837769E0,-2.439849138E0,9.651114464E0,-1.187087059E0,1.002527056E1
2.663635946E0,-2.467523575E0,8.863166809E0,-1.285040617E0,9.289549390E0
2.668434123E0,-2.437999249E0,8.115282059E0,-1.375961423E0,8.584574134E0
2.673232352E0,-2.193938732E0,7.373696327E0,-1.510972500E0,7.840140470E0
2.678030529E0,-1.943246961E0,6.705008507E0,-1.841936111E0,7.219839089E0
2.682828706E0,-1.876342893E0,5.987118721E0,-2.310153484E0,6.686034875E0
2.687626883E0,-1.738991261E0,5.205538273E0,-2.616240263E0,6.080002667E0
2.692425060E0,-1.616843462E0,4.357762814E0,-2.967421055E0,5.514514234E0
2.697223289E0,-1.210689545E0,3.133050442E0,-3.155591011E0,4.608636336E0
2.702021466E0,-1.088889360E0,1.933227539E0,-3.475851059E0,4.123662127E0
2.706819644E0,-7.590663433E-1,2.802677155E-1,-3.529889345E0,3.621443151E0
2.711617873E0,-4.823487997E-1,-1.772377014E0,-3.570140839E0,4.014957815E0
2.716416050E0,-5.614061356E-1,-4.120710373E0,-3.297846794E0,5.307657139E0
2.721214227E0,-9.490916133E-1,-7.396369934E0,-2.435709000E0,7.844726982E0
2.726012404E0,-2.646903992E-1,-1.177234077E1,-1.138507605E0,1.183022687E1
2.730810633E0,5.684970617E-1,-1.627551842E1,3.149838448E-1,1.628848991E1
2.735608810E0,8.827387094E-1,-2.034050751E1,2.078393459E0,2.046546341E1
2.740406987E0,1.582842350E0,-2.482194138E1,3.939089060E0,2.518234672E1
2.745205164E0,2.166344643E0,-2.865906143E1,5.798893929E0,2.931999355E1
2.750003394E0,2.712009907E0,-3.154940796E1,7.326594353E0,3.250229415E1
2.754801571E0,3.718744755E0,-3.373373032E1,7.943806648E0,3.485538248E1
2.759599748E0,4.421304703E0,-3.394335556E1,7.384846687E0,3.501764245E1
2.764397977E0,4.780459881E0,-3.241572189E1,6.080430031E0,3.332571758E1
2.769196154E0,4.776220798E0,-2.848120880E1,5.177280426E0,2.933932127E1
2.773994331E0,4.002942085E0,-2.378178024E1,4.254539490E0,2.448872645E1
2.778792508E0,3.619244576E0,-1.917306709E1,4.059707165E0,1.992954228E1
2.783590685E0,3.600241184E0,-1.606317902E1,4.440670013E0,1.705013217E1
2.788388914E0,3.850544691E0,-1.443279552E1,3.702382326E0,1.538960415E1
2.793187091E0,3.690631866E0,-1.372754288E1,3.457391262E0,1.462941391E1
2.797985269E0,3.935756683E0,-1.335605145E1,3.514896154E0,1.436066802E1
2.802783498E0,4.679538727E0,-1.352515221E1,3.568435669E0,1.474996807E1
2.807581675E0,3.982949972E0,-1.441135311E1,3.890470505E0,1.544949027E1
2.812379852E0,2.778289795E0,-1.534447384E1,3.551188469E0,1.599320828E1
2.817178029E0,1.919925928E0,-1.606629181E1,2.998413324E0,1.645607276E1
2.821976206E0,1.469281912E0,-1.604988289E1,2.266281605E0,1.627555106E1
2.826774435E0,6.879477501E-1,-1.605889320E1,1.639711857E0,1.615704113E1
2.831572612E0,1.290385723E-1,-1.602611351E1,1.192635536E0,1.607094723E1
2.836370789E0,-4.099992514E-1,-1.564795113E1,1.039365768E0,1.568779000E1
2.841169019E0,-9.783384800E-1,-1.503253365E1,1.044234991E0,1.510048478E1
2.845967196E0,-1.475759268E0,-1.419945240E1,9.608759880E-1,1.430823527E1
2.850765373E0,-1.859073639E0,-1.327579212E1,7.817409039E-1,1.342810225E1
2.855563550E0,-1.920417786E0,-1.250304508E1,4.923610687E-1,1.265924801E1
2.860361779E0,-2.147309542E0,-1.151566505E1,4.480416775E-1,1.172272243E1
2.865159956E0,-2.009915590E0,-1.058672810E1,4.349873066E-1,1.078460877E1
2.869958133E0,-1.882588029E0,-9.396630287E0,5.926520824E-1,9.601668341E0
2.874756310E0,-1.609498143E0,-8.490695000E0,4.297037125E-1,8.652573671E0
2.879554539E0,-1.207821131E0,-7.483966827E0,4.097411633E-1,7.591869281E0
2.884352716E0,-1.068475842E0,-6.273960114E0,5.601167679E-1,6.388892465E0
2.889150894E0,-2.125601768E0,-4.564307213E0,-1.022458076E-1,5.036023969E0
2.893949071E0,-1.519856453E0,-3.959073067E0,4.392576218E-2,4.241008448E0
2.898747300E0,-7.531523705E-1,-3.188439369E0,4.482944012E-1,3.306713168E0
2.903545477E0,-3.550509214E-1,-2.245744705E0,5.010542870E-1,2.328193685E0
2.908343654E0,-1.769486666E-1,-1.198162079E0,3.531482220E-1,1.261592987E0
2.913141883E0,-9.143757820E-2,-1.604166031E-1,-6.196236610E-2,1.947656337E-1
2.917940060E0,1.215112209E-2,8.604917526E-1,-4.546653032E-1,9.733006956E-1
2.922738237E0,2.502508163E-1,1.697298050E0,-5.861731768E-1,1.813020997E0
2.927536414E0,5.853759050E-1,2.421944618E0,-5.303826332E-1,2.547505922E0
2.932334591E0,7.799216509E-1,3.132469654E0,-5.719145536E-1,3.278373098E0
2.937132821E0,8.552627563E-1,3.917280197E0,-7.464281321E-1,4.078444983E0
2.941930998E0,8.118085861E-1,4.711874008E0,-9.411982298E-1,4.873052838E0
2.946729175E0,7.388316393E-1,5.444702148E0,-1.146543264E0,5.612950662E0
2.951527404E0,6.083354950E-1,6.149409294E0,-1.300336480E0,6.314759038E0
2.956325581E0,5.547232628E-1,6.766410828E0,-1.404987216E0,6.932966354E0
2.961123758E0,4.488402605E-1,7.315037727E0,-1.457875371E0,7.472391527E0
2.965921935E0,3.191128969E-1,7.802543640E0,-1.480547309E0,7.948178447E0
2.970720164E0,2.205650806E-1,8.362798691E0,-1.389532566E0,8.480321436E0
2.975518341E0,6.718826294E-2,8.804581642E0,-1.433450341E0,8.920759611E0
2.980316519E0,-1.692509651E-2,9.180627823E0,-1.428074360E0,9.291049998E0
2.985114696E0,-7.031679153E-2,9.553196907E0,-1.354078770E0,9.648940093E0
2.989912925E0,-2.885823846E-1,9.929494858E0,-1.464827776E0,1.004110892E1
2.994711102E0,-4.942051172E-1,1.025933647E1,-1.466458201E0,1.037539027E1
2.999509279E0,-6.296818852E-1,1.054979706E1,-1.443536758E0,1.066670125E1
3.004307456E0,-8.123561144E-1,1.077943611E1,-1.321905375E0,1.089052796E1
3.009105685E0,-9.632229209E-1,1.097930813E1,-1.352984428E0,1.110421417E1
3.013903862E0,-1.089514971E0,1.121643257E1,-1.376049042E0,1.135292533E1
3.018702039E0,-1.303462744E0,1.145259953E1,-1.445727348E0,1.161684891E1
3.023500216E0,-1.442450762E0,1.178583908E1,-1.554412603E0,1.197509355E1
3.028298446E0,-1.530311346E0,1.214928627E1,-1.718054295E0,1.236522221E1
3.033096623E0,-1.734280348E0,1.244258118E1,-1.750111580E0,1.268418090E1
3.037894800E0,-1.891788006E0,1.288840294E1,-1.919136524E0,1.316711347E1
3.042693029E0,-2.148090839E0,1.343395710E1,-2.237136602E0,1.378732308E1
3.047491206E0,-2.295258999E0,1.401242065E1,-2.466441870E0,1.441178275E1
3.052289383E0,-2.486157894E0,1.462621307E1,-2.721689701E0,1.508358992E1
3.057087560E0,-2.651326656E0,1.511536217E1,-2.849426746E0,1.560842527E1
3.061885789E0,-2.780994415E0,1.555172348E1,-3.072271347E0,1.609437431E1
3.066683966E0,-2.862950325E0,1.598790741E1,-3.208819389E0,1.655615263E1
3.071482144E0,-2.975677490E0,1.633536148E1,-3.410611629E0,1.695083959E1
3.076280321E0,-3.072988272E0,1.656567764E1,-3.579617739E0,1.722436053E1
3.081078550E0,-3.130797386E0,1.673402023E1,-3.715953827E0,1.742520124E1
3.085876727E0,-3.244056702E0,1.672571182E1,-3.698669910E0,1.743426221E1
3.090674904E0,-3.318259716E0,1.669628525E1,-3.849180222E0,1.745259227E1
3.095473081E0,-3.228148937E0,1.628036499E1,-3.830693245E0,1.703365611E1
3.100271310E0,-3.056702852E0,1.489812469E1,-3.583929062E0,1.562504718E1
3.105069487E0,-2.806963444E0,1.331804657E1,-3.060853481E0,1.395056387E1
3.109867664E0,-2.543338537E0,1.201341248E1,-2.521101952E0,1.253581291E1
3.114665841E0,-2.272511244E0,1.102645493E1,-2.129574537E0,1.145784025E1
3.119464071E0,-2.088520288E0,1.025617886E1,-1.933840871E0,1.064381803E1
3.124262248E0,-1.931868553E0,9.661381721E0,-1.865022540E0,1.002759801E1
3.129060425E0,-1.793052197E0,9.184205055E0,-1.809110522E0,9.530872969E0
3.133858602E0,-1.674368143E0,8.786049843E0,-1.814635992E0,9.126394924E0
3.138656831E0,-1.549405575E0,8.485787392E0,-1.776894450E0,8.807190198E0
3.143455008E0,-1.417728662E0,8.244998932E0,-1.808681726E0,8.559281017E0
3.148253185E0,-1.324145317E0,8.089960098E0,-1.890843987E0,8.412853630E0
3.153051362E0,-1.277744293E0,7.951274395E0,-2.042606831E0,8.308287287E0
3.157849591E0,-1.220875382E0,7.790721893E0,-2.132462502E0,8.169044047E0
3.162647769E0,-1.108240366E0,7.620318890E0,-2.198499203E0,8.008174288E0
3.167445946E0,-9.543311596E-1,7.452104568E0,-2.192569494E0,7.826363871E0
3.172244175E0,-8.311766386E-1,7.290929317E0,-2.173985958E0,7.653412302E0
3.177042352E0,-7.512683272E-1,7.077008247E0,-2.020622730E0,7.398065021E0
3.181840529E0,-6.596995592E-1,6.896421432E0,-1.828169107E0,7.165056480E0
3.186638706E0,-5.992605686E-1,6.660723686E0,-1.551381946E0,6.865212247E0
3.191436935E0,-5.652600527E-1,6.465538979E0,-1.156887770E0,6.592503509E0
3.196235112E0,-5.219081640E-1,6.224770069E0,-7.093428373E-1,6.286757336E0
3.201033289E0,-4.452942610E-1,5.938550949E0,-2.276730537E-1,5.959572919E0
3.205831466E0,-3.426718712E-1,5.590281963E0,2.572762966E-1,5.606680616E0
3.210629696E0,-2.001094818E-1,5.106184483E0,8.372271061E-1,5.178234545E0
3.215427873E0,-1.154130697E-1,4.436524391E0,1.469692230E0,4.675046963E0
3.220226050E0,3.092563152E-2,3.503044605E0,1.959706545E0,4.014066223E0
3.225024227E0,3.094370365E-1,2.227728367E0,2.558001757E0,3.406155889E0
3.229822456E0,5.616885424E-1,6.807327271E-1,2.893108606E0,3.024726181E0
3.234620633E0,1.004136205E0,-1.467099190E0,3.181517363E0,3.644546924E0
3.239418810E0,1.484828472E0,-4.905385971E0,3.493266106E0,6.202453966E0
3.244217039E0,2.050977945E0,-9.833361626E0,3.817772388E0,1.074601775E1
3.249015216E0,2.695394754E0,-1.651314163E1,4.561362267E0,1.734229008E1
3.253813394E0,3.393412113E0,-2.442368889E1,5.859833717E0,2.534500890E1
3.258611571E0,4.537388802E0,-3.256698227E1,8.162330627E0,3.387949044E1
3.263409800E0,6.149575710E0,-4.030295563E1,9.721887589E0,4.191253526E1
3.268207977E0,8.500184059E0,-4.554749298E1,9.747347832E0,4.734805208E1
3.273006154E0,9.994239807E0,-4.643318176E1,8.329666138E0,4.822145307E1
3.277804331E0,9.280962944E0,-4.226567459E1,6.184814453E0,4.371241759E1
3.282602560E0,6.941234589E0,-3.341687775E1,4.013060570E0,3.436528934E1
3.287400737E0,5.192065716E0,-2.500347137E1,2.850325108E0,2.569543696E1
3.292198914E0,4.505875587E0,-1.929073906E1,2.425793171E0,1.995795583E1
3.296997091E0,4.248876572E0,-1.613064384E1,2.835888863E0,1.692019174E1
3.301795321E0,3.976577520E0,-1.500129032E1,3.136360884E0,1.583315002E1
3.306593498E0,3.682652712E0,-1.463564205E1,3.154854536E0,1.541807564E1
3.311391675E0,3.422032118E0,-1.458583164E1,3.457871199E0,1.537574914E1
3.316189904E0,2.953916311E0,-1.511829758E1,3.411553621E0,1.577742822E1
3.320988081E0,2.724780798E0,-1.556802082E1,4.156168938E0,1.634201465E1
3.325786258E0,2.573578596E0,-1.593544292E1,4.358963013E0,1.672011383E1
3.330584435E0,2.122344732E0,-1.595846462E1,4.334247589E0,1.667221168E1
3.335382664E0,1.377562046E0,-1.561897755E1,4.048390388E0,1.619381368E1
3.340180841E0,5.247495174E-1,-1.533796215E1,3.498889685E0,1.574073296E1
3.344979019E0,-1.348092556E-1,-1.494573402E1,3.109081268E0,1.526628722E1
3.349777196E0,-3.724210262E-1,-1.437839508E1,2.660416842E0,1.462719249E1
3.354575425E0,-4.168109894E-1,-1.356262398E1,2.372282982E0,1.377484037E1
3.359373602E0,-4.391009808E-1,-1.253983498E1,2.203444481E0,1.273952269E1
3.364171779E0,-3.036075830E-1,-1.124857903E1,1.866167784E0,1.140637058E1
3.368969956E0,-1.022815704E-1,-9.842593193E0,1.873653650E0,1.001986428E1
3.373768185E0,-1.422858238E-2,-8.508626938E0,1.715532064E0,8.679860891E0
3.378566362E0,1.686159372E-1,-7.057948112E0,1.561107159E0,7.230499184E0
3.383364539E0,3.862026930E-1,-5.657974243E0,1.544221163E0,5.877622313E0
3.388162716E0,6.428411007E-1,-4.459157944E0,1.488049746E0,4.744641851E0
3.392960946E0,6.871355772E-1,-3.136018753E0,1.443822861E0,3.520141101E0
3.397759123E0,7.754873037E-1,-1.877723694E0,1.252619028E0,2.386688345E0
3.402557300E0,5.643558502E-1,-6.626253128E-1,9.453518391E-1,1.285013592E0
3.407355529E0,7.034932375E-1,1.245899200E-1,6.537489891E-1,9.684075197E-1
3.412153706E0,8.088394403E-1,1.019558907E0,6.047451496E-1,1.435074319E0
3.416951883E0,8.105140924E-1,1.850124836E0,3.443930149E-1,2.049024537E0
3.421750060E0,7.252303362E-1,2.817024231E0,1.164183617E-1,2.911208992E0
3.426548289E0,6.298861504E-1,3.614263535E0,-1.821410656E-1,3.673259156E0
3.431346466E0,5.415993929E-1,4.366427898E0,-4.627764225E-1,4.424159187E0
3.436144644E0,4.296256304E-1,5.097566128E0,-7.923954725E-1,5.176644588E0
3.440942821E0,1.704266071E-1,5.865265846E0,-1.063110471E0,5.963270290E0
3.445741050E0,1.822633743E-1,6.389949322E0,-1.301119447E0,6.523617408E0
3.450539227E0,1.347107887E-1,6.961058617E0,-1.456246614E0,7.113025957E0
3.455337404E0,1.506924629E-3,7.564228535E0,-1.571496010E0,7.725746262E0
3.460135581E0,-1.548125744E-1,8.099160194E0,-1.725591183E0,8.282392632E0
3.464933810E0,-3.221513033E-1,8.625873566E0,-1.858137608E0,8.829617863E0
3.469731987E0,-4.553002119E-1,9.087080956E0,-1.904346466E0,9.295637366E0
3.474530164E0,-5.925167799E-1,9.595148087E0,-1.895557165E0,9.798524374E0
3.479328341E0,-7.670279741E-1,9.999511719E0,-1.922643423E0,1.021151919E1
3.484126571E0,-8.976110220E-1,1.041733646E1,-1.756361008E0,1.060242465E1
3.488924748E0,-1.106080294E0,1.075535965E1,-1.667288303E0,1.093988232E1
3.493722925E0,-1.322532535E0,1.110211086E1,-1.562405467E0,1.128924571E1
3.498521154E0,-1.594187856E0,1.147669315E1,-1.413423300E0,1.167277542E1
3.503319331E0,-1.805369496E0,1.179551125E1,-1.407064795E0,1.201554310E1
3.508117508E0,-1.991686583E0,1.213757896E1,-1.447437525E0,1.238477751E1
3.512915685E0,-2.217268229E0,1.244565392E1,-1.488811970E0,1.272898821E1
3.517713914E0,-2.345639706E0,1.281795883E1,-1.616560221E0,1.313070300E1
3.522512091E0,-2.565910816E0,1.313035488E1,-1.875058770E0,1.350947679E1
3.527310269E0,-2.689313889E0,1.338321686E1,-2.083705187E0,1.380886418E1
3.532108446E0,-2.861865044E0,1.377972794E1,-2.154106617E0,1.423767358E1
3.536906675E0,-2.892440081E0,1.415459251E1,-2.326206446E0,1.463317926E1
3.541704852E0,-2.964278698E0,1.440073586E1,-2.568625689E0,1.492534687E1
3.546503029E0,-3.061322689E0,1.475942135E1,-2.566396952E0,1.529047444E1
3.551301258E0,-3.052363873E0,1.503195572E1,-2.686047554E0,1.557213760E1
3.556099435E0,-3.038133621E0,1.525432968E1,-2.831554413E0,1.580957085E1
3.560897612E0,-2.951764107E0,1.539295578E1,-2.798086405E0,1.592122126E1
3.565695789E0,-2.907572746E0,1.537625122E1,-3.135795355E0,1.595983375E1
3.570494019E0,-2.771882057E0,1.541910553E1,-3.047404528E0,1.595991290E1
3.575292196E0,-2.551165819E0,1.531823921E1,-3.373104095E0,1.589134138E1
3.580090373E0,-2.309444189E0,1.487304592E1,-3.553853035E0,1.546515111E1
3.584888550E0,-1.977176547E0,1.451375389E1,-3.541377068E0,1.506982517E1
3.589686779E0,-1.559214354E0,1.382180786E1,-3.642953873E0,1.437861728E1
3.594484956E0,-1.368201375E0,1.259944153E1,-3.502247810E0,1.314852241E1
3.599283133E0,-1.396539807E0,1.151911926E1,-3.154407978E0,1.202458821E1
3.604081310E0,-1.443449020E0,1.063348484E1,-2.873270512E0,1.110901563E1
3.608879539E0,-1.421047688E0,9.939959526E0,-2.610276222E0,1.037476332E1
3.613677716E0,-1.368305564E0,9.359316826E0,-2.374956846E0,9.752409527E0
3.618475894E0,-1.295225859E0,8.910341263E0,-2.129504204E0,9.252382374E0
3.623274071E0,-1.252257824E0,8.583078384E0,-1.910507917E0,8.881859305E0
3.628072300E0,-1.234498620E0,8.365105629E0,-1.759871960E0,8.636905021E0
3.632870477E0,-1.205312490E0,8.146351814E0,-1.814197659E0,8.432504920E0
3.637668654E0,-1.192748904E0,7.953086376E0,-1.786910892E0,8.238160194E0
3.642466883E0,-1.148852229E0,7.852049828E0,-1.743189573E0,8.124854327E0
3.647265060E0,-1.244550943E0,7.821738243E0,-2.225686312E0,8.226917755E0
3.652063237E0,-1.259615421E0,7.714003563E0,-2.205708981E0,8.121430544E0
3.656861414E0,-1.287733912E0,7.662750244E0,-2.030046940E0,8.031008063E0
3.661659644E0,-1.256881595E0,7.534421444E0,-2.096704721E0,7.921074960E0
3.666457821E0,-1.234550238E0,7.458391666E0,-1.938024640E0,7.804335977E0
3.671255998E0,-1.182715416E0,7.384613991E0,-1.703855634E0,7.670362675E0
3.676054175E0,-1.160928011E0,7.210692883E0,-1.517358661E0,7.459505546E0
3.680852404E0,-1.157813430E0,7.077805519E0,-1.098307014E0,7.255490418E0
3.685650581E0,-1.036925316E0,6.840157509E0,-6.955900192E-1,6.953187351E0
3.690448758E0,-9.518401027E-1,6.760756493E0,-2.635021210E-1,6.832515006E0
3.695246935E0,-8.598225713E-1,6.643370628E0,2.408401966E-1,6.703109141E0
3.700045164E0,-7.970753908E-1,6.375733376E0,8.701076508E-1,6.484010532E0
3.704843341E0,-7.951755524E-1,5.819329739E0,1.557161331E0,6.076319131E0
3.709641519E0,-6.755641699E-1,5.285411835E0,2.185933352E0,5.759363665E0
3.714439748E0,-5.623812675E-1,4.298382759E0,2.672587633E0,5.092650753E0
3.719237925E0,-3.174629211E-1,3.145898342E0,3.369758129E0,4.620901312E0
3.724036102E0,-2.066516876E-2,9.151563644E-1,4.083591461E0,4.184932191E0
3.728834331E0,4.146032333E-1,-2.526503563E0,5.003136158E0,5.620185718E0
3.733632508E0,1.074783802E0,-8.007207870E0,5.886477470E0,9.996056978E0
3.738430685E0,2.073788166E0,-1.544880581E1,7.181897640E0,1.716233819E1
3.743228862E0,3.087661266E0,-2.509606743E1,8.542146683E0,2.668922109E1
3.748027039E0,4.804418087E0,-3.498161697E1,9.048286438E0,3.645089089E1
3.752825269E0,6.620553970E0,-4.260435486E1,9.127294540E0,4.407119573E1
3.757623446E0,8.290427208E0,-4.720014572E1,7.419332504E0,4.849362261E1
3.762421623E0,9.139608383E0,-4.729280472E1,5.665355682E0,4.849987706E1
3.767219852E0,8.437876701E0,-4.170138550E1,3.858597279E0,4.272109653E1
3.772018029E0,6.161520004E0,-3.249724579E1,2.826476812E0,3.319675110E1
3.776816206E0,5.113020897E0,-2.476532745E1,2.154054165E0,2.537921149E1
3.781614383E0,4.420002937E0,-1.960014534E1,2.233968019E0,2.021615039E1
3.786412612E0,3.824426174E0,-1.660141373E1,2.507664442E0,1.721980123E1
3.791210789E0,3.507831097E0,-1.471642685E1,3.022171974E0,1.542762528E1
3.796008966E0,3.272313118E0,-1.370044708E1,3.130079269E0,1.442940330E1
3.800807196E0,2.619918585E0,-1.307457638E1,3.589550257E0,1.380917781E1
3.805605373E0,2.406169891E0,-1.304563904E1,3.853329659E0,1.381399656E1
3.810403550E0,1.950885296E0,-1.362402058E1,3.125630856E0,1.411344956E1
3.815201727E0,1.725735188E0,-1.435200977E1,3.434849024E0,1.485787785E1
3.819999904E0,1.075204849E0,-1.495022106E1,4.196825027E0,1.556529844E1
3.824798133E0,3.830804825E-1,-1.480758858E1,4.826621056E0,1.557907895E1
3.829596310E0,-6.005693674E-1,-1.471141338E1,4.544459820E0,1.540903898E1
3.834394487E0,-1.285912752E0,-1.454260254E1,4.352124214E0,1.523423268E1
3.839192716E0,-1.533563852E0,-1.427064896E1,4.117543697E0,1.493175830E1
3.843990894E0,-1.630051374E0,-1.380502701E1,3.467020035E0,1.432676049E1
3.848789071E0,-1.648089290E0,-1.316312790E1,3.267822981E0,1.366245957E1
3.853587300E0,-1.460170507E0,-1.221178818E1,3.255981684E0,1.272247166E1
3.858385477E0,-1.303147793E0,-1.103293133E1,3.076617002E0,1.152776388E1
3.863183654E0,-1.137784243E0,-9.803648949E0,2.679240465E0,1.022665220E1
3.867981831E0,-8.945524693E-1,-8.418853760E0,2.422367334E0,8.805974463E0
3.872780060E0,-5.952686071E-1,-7.211043358E0,2.159743547E0,7.551025309E0
3.877578237E0,-2.801941633E-1,-6.041149139E0,1.731687546E0,6.290686246E0
3.882376414E0,2.637803555E-2,-4.928206444E0,1.525809765E0,5.159070652E0
3.887174591E0,2.118004560E-1,-3.998915672E0,1.116221666E0,4.157178947E0
3.891972821E0,4.145538807E-1,-3.068930626E0,9.934902191E-1,3.252262739E0
3.896770998E0,4.336913824E-1,-1.990164757E0,5.667238235E-1,2.114242149E0
3.901569175E0,3.869793415E-1,-9.684286118E-1,3.088810444E-1,1.087664694E0
3.906367352E0,4.394445419E-1,-8.241653442E-2,-4.289126396E-2,4.491588261E-1
3.911165581E0,5.137319565E-1,7.231130600E-1,-1.388974190E-1,8.978337895E-1
3.915963758E0,5.518645048E-1,1.484272957E0,-4.638245106E-1,1.650076913E0
3.920761935E0,5.822585821E-1,2.370849133E0,-5.893390179E-1,2.511428108E0
3.925560164E0,5.358068943E-1,3.203389645E0,-8.075847626E-1,3.346787623E0
3.930358341E0,4.632159472E-1,3.950999737E0,-1.015574455E0,4.105649694E0
3.935156519E0,3.858386278E-1,4.762006760E0,-1.155733347E0,4.915414468E0
3.939954696E0,3.039933443E-1,5.471417904E0,-1.355021954E0,5.644901268E0
3.944752925E0,1.698981524E-1,6.194117546E0,-1.474624038E0,6.369495554E0
3.949551102E0,4.582417011E-2,6.846501350E0,-1.540768743E0,7.017880657E0
3.954349279E0,-7.963132858E-2,7.474185944E0,-1.691986799E0,7.663720767E0
3.959147508E0,-2.395744324E-1,8.039068222E0,-1.770235419E0,8.235153139E0
3.963945685E0,-3.548668027E-1,8.553190231E0,-1.828222752E0,8.753593091E0
3.968743862E0,-4.875527024E-1,9.066817284E0,-1.925728559E0,9.281880940E0
3.973542039E0,-6.061602831E-1,9.560930252E0,-2.007539511E0,9.788208848E0
3.978340216E0,-7.701810598E-1,9.918452263E0,-2.085723400E0,1.016460114E1
3.983138446E0,-8.958452940E-1,1.021123981E1,-2.148387909E0,1.047318137E1
3.987936623E0,-1.016953945E0,1.051336956E1,-2.212421417E0,1.079166083E1
3.992734800E0,-1.239238620E0,1.066448116E1,-2.230548382E0,1.096550122E1
3.997533029E0,-1.398175359E0,1.083896637E1,-2.045778275E0,1.111860131E1
4.002331206E0,-1.598940372E0,1.110114670E1,-1.823945761E0,1.136304741E1
4.007129383E0,-1.767138958E0,1.136000538E1,-1.668381214E0,1.161705635E1
4.011927612E0,-1.852520108E0,1.157502174E1,-1.552410245E0,1.182467491E1
4.016725789E0,-1.981587172E0,1.175824451E1,-1.523778915E0,1.202101926E1
4.021523966E0,-2.094760656E0,1.199579144E1,-1.376579404E0,1.225487679E1
4.026322144E0,-2.162992477E0,1.233784103E1,-1.459871292E0,1.261079228E1
4.031120373E0,-2.238457203E0,1.265999603E1,-1.407970071E0,1.293323509E1
4.035918550E0,-2.270981550E0,1.296968269E1,-1.578622341E0,1.326129989E1
4.040716727E0,-2.280055285E0,1.331716347E1,-1.615030646E0,1.360712383E1
4.045514904E0,-2.318123817E0,1.339441872E1,-1.932031155E0,1.373014549E1
4.050313133E0,-2.153588772E0,1.371789360E1,-1.994149923E0,1.402837066E1
4.055111310E0,-2.173404217E0,1.387650871E1,-2.326570034E0,1.423706810E1
4.059909487E0,-2.035402298E0,1.415941429E1,-2.425666809E0,1.450916038E1
4.064707664E0,-1.883305550E0,1.424622631E1,-2.549693346E0,1.459461339E1
4.069505894E0,-1.867221117E0,1.419462585E1,-2.765440464E0,1.458154926E1
4.074304071E0,-1.702560782E0,1.409061813E1,-2.880062819E0,1.448236840E1
4.079102248E0,-1.437981009E0,1.401985645E1,-2.923792601E0,1.439349601E1
4.083900477E0,-1.109203458E0,1.361884880E1,-3.067457438E0,1.400402335E1
4.088698654E0,-8.440595269E-1,1.268017578E1,-3.117925882E0,1.308513493E1
4.093496831E0,-8.471966982E-1,1.167566776E1,-3.024162292E0,1.209067895E1
4.098295008E0,-8.820859790E-1,1.078710556E1,-2.738027334E0,1.116407254E1
4.103093237E0,-9.375031590E-1,1.005964088E1,-2.534591198E0,1.041630642E1
4.107891414E0,-1.023462057E0,9.507352829E0,-2.420880318E0,9.863969480E0
4.112689591E0,-1.073171139E0,9.110784531E0,-2.339875698E0,9.467476398E0
4.117487769E0,-1.041216731E0,8.785997391E0,-2.294452190E0,9.140152804E0
4.122285998E0,-1.037698984E0,8.613986015E0,-2.206466913E0,8.952433775E0
4.127084175E0,-1.007798195E0,8.472436905E0,-2.136744738E0,8.795653607E0
4.131882352E0,-9.968798161E-1,8.373133659E0,-2.047698021E0,8.677338522E0
4.136680581E0,-9.713244438E-1,8.229974747E0,-1.961028099E0,8.515960704E0
4.141478758E0,-9.598524570E-1,8.150546074E0,-1.843283534E0,8.411326425E0
4.146276935E0,-9.172625542E-1,8.146686554E0,-1.758945584E0,8.384733864E0
4.151075112E0,-8.892301917E-1,8.144243240E0,-1.619156837E0,8.351113528E0
4.155873289E0,-8.544600606E-1,8.148019791E0,-1.531136751E0,8.334549073E0
4.160671519E0,-8.489581943E-1,8.153402328E0,-1.460374355E0,8.326547472E0
4.165469696E0,-8.394929171E-1,8.112664223E0,-1.394275904E0,8.274302052E0
4.170267873E0,-8.577201366E-1,8.097574234E0,-1.303602219E0,8.246561165E0
4.175066102E0,-8.941783309E-1,8.089086533E0,-1.173429132E0,8.222518577E0
4.179864279E0,-8.987379074E-1,8.015612602E0,-1.139428496E0,8.145923675E0
4.184662456E0,-9.575769305E-1,7.972963333E0,-1.143457532E0,8.111263343E0
4.189460633E0,-9.730839729E-1,7.913258553E0,-9.272314310E-1,8.026600243E0
4.194258862E0,-9.264998436E-1,7.791170120E0,-8.514252901E-1,7.892126382E0
4.199057039E0,-9.212278128E-1,7.618687630E0,-5.571514368E-1,7.694379741E0
4.203855216E0,-8.977570534E-1,7.367234230E0,-3.000080585E-1,7.427793263E0
4.208653446E0,-8.495134711E-1,6.986589432E0,3.214645386E-1,7.045384622E0
4.213451623E0,-8.174192905E-1,6.433652878E0,9.142241478E-1,6.549493831E0
4.218249800E0,-7.854307890E-1,5.478974342E0,1.762416124E0,5.808801250E0
4.223047977E0,-6.828454733E-1,3.809723377E0,3.064006090E0,4.936436313E0
4.227846206E0,-3.884268999E-1,8.170213699E-1,4.920550346E0,5.003020596E0
4.232644383E0,2.408885956E-1,-3.765783310E0,6.660344601E0,7.655020670E0
4.237442560E0,1.505678415E0,-1.001883507E1,8.496137619E0,1.322227205E1
4.242240737E0,2.993403912E0,-1.693975067E1,1.018403912E1,1.999075468E1
4.247038966E0,4.605662823E0,-2.373082542E1,1.085274315E1,2.649804218E1
4.251837144E0,5.444711685E0,-2.986976624E1,9.976706505E0,3.195907528E1
4.256635321E0,5.890581131E0,-3.469126129E1,7.135420799E0,3.590399401E1
4.261433550E0,7.022303581E0,-3.773603821E1,4.964270592E0,3.870355681E1
4.266231727E0,7.892426491E0,-3.853420639E1,3.565627575E0,3.949543212E1
4.271029904E0,7.976797104E0,-3.562953186E1,2.616992712E0,3.660521115E1
4.275828081E0,7.926657677E0,-3.036247826E1,1.978001595E0,3.144239937E1
4.280626310E0,7.630280018E0,-2.502462769E1,2.276074409E0,2.626087734E1
4.285424487E0,7.099806786E0,-2.098709869E1,2.540059328E0,2.230061590E1
4.290222664E0,6.392053604E0,-1.869749069E1,2.485903025E0,1.991567778E1
4.295020894E0,5.139372826E0,-1.646160889E1,2.856816053E0,1.748024937E1
4.299819071E0,3.908766508E0,-1.484791851E1,2.704121113E0,1.559010618E1
4.304617248E0,4.071189880E0,-1.467257309E1,3.401966810E0,1.560231926E1
4.309415425E0,3.777060747E0,-1.418807888E1,4.021044254E0,1.522289615E1
4.314213654E0,3.417182446E0,-1.399003601E1,4.533959389E0,1.509817973E1
4.319011831E0,2.762073040E0,-1.393155384E1,4.673189163E0,1.495178708E1
4.323810008E0,2.486179352E0,-1.420235348E1,4.344938278E0,1.505876558E1
4.328608185E0,2.395784378E0,-1.455733299E1,4.185537338E0,1.533539857E1
4.333406414E0,2.392385244E0,-1.501477432E1,4.190075874E0,1.577097622E1
4.338204591E0,2.375240564E0,-1.535421181E1,4.176060677E0,1.608828986E1
4.343002769E0,2.319015503E0,-1.526032829E1,4.188045979E0,1.599359815E1
4.347800946E0,2.254390955E0,-1.488440228E1,3.767138958E0,1.551834545E1
4.352599175E0,2.088932037E0,-1.430333519E1,3.137674332E0,1.479168803E1
4.357397352E0,1.703879356E0,-1.349585915E1,2.583917379E0,1.384622866E1
4.362195529E0,1.431374788E0,-1.241475487E1,2.244000196E0,1.269687005E1
4.366993758E0,1.208314180E0,-1.104195595E1,1.973032951E0,1.128174071E1
4.371791935E0,9.106709957E-1,-9.691758156E0,1.595960617E0,9.864410175E0
4.376590112E0,8.416998386E-1,-8.314637184E0,1.347728968E0,8.465106230E0
4.381388289E0,6.030037403E-1,-7.092603683E0,1.379014969E0,7.250539484E0
4.386186519E0,4.510524273E-1,-6.035212517E0,1.475552559E0,6.229325306E0
4.390984696E0,3.413436413E-1,-4.951136589E0,1.561852694E0,5.202850453E0
4.395782873E0,2.418992519E-1,-4.010193825E0,1.459064245E0,4.274229548E0
4.400581050E0,2.238700390E-1,-3.009096146E0,1.327853680E0,3.296660856E0
4.405379279E0,1.744177341E-1,-1.940913200E0,1.055668592E0,2.216303629E0
4.410177456E0,9.090185165E-2,-8.703622818E-1,7.499907017E-1,1.152510174E0
4.414975633E0,2.414727211E-2,1.834335327E-1,2.118551731E-1,2.812713388E-1
4.419773862E0,-3.489947319E-2,1.163130760E0,-2.531697750E-1,1.190876179E0
4.424572039E0,-8.610296249E-2,2.073712349E0,-6.043713093E-1,2.161703334E0
4.429370216E0,-1.220254898E-1,2.958399773E0,-1.004314423E0,3.126606290E0
4.434168394E0,-1.497666836E-1,3.798124790E0,-1.316782594E0,4.022697898E0
4.438966623E0,-2.009785175E-1,4.554787159E0,-1.447941780E0,4.783619323E0
4.443764800E0,-3.506798744E-1,5.367010593E0,-1.550488114E0,5.597480905E0
4.448562977E0,-5.190598965E-1,6.229714394E0,-1.504445553E0,6.429783902E0
4.453361206E0,-7.535279989E-1,7.020650864E0,-1.383415103E0,7.195219270E0
4.458159383E0,-1.034109712E0,7.605901718E0,-1.229725361E0,7.773760242E0
4.462957560E0,-1.412811518E0,8.401319504E0,-1.118981004E0,8.592457406E0
4.467755737E0,-1.739037991E0,8.954929352E0,-1.105940700E0,9.189021583E0
4.472553966E0,-1.758321762E0,9.320113182E0,-1.547778130E0,9.609985551E0
4.477352144E0,-1.754157305E0,9.519122124E0,-1.898020267E0,9.863733309E0
4.482150321E0,-1.922049046E0,9.908238411E0,-1.762859821E0,1.024573744E1
4.486948498E0,-2.067667961E0,1.019094467E1,-1.704710484E0,1.053739256E1
4.491746727E0,-2.060767651E0,1.000953007E1,-2.047360897E0,1.042253050E1
4.496544904E0,-2.000594616E0,9.702160835E0,-2.447792292E0,1.020421436E1
4.501343081E0,-1.992486954E0,9.677613258E0,-2.502323627E0,1.019253777E1
4.506141310E0,-2.097541332E0,9.777681351E0,-2.351555824E0,1.027290353E1
4.510939487E0,-2.164036751E0,9.887475967E0,-2.173745155E0,1.035231395E1
4.515737664E0,-2.300818682E0,9.971124649E0,-1.939014792E0,1.041522308E1
4.520535841E0,-2.470507145E0,1.007157516E1,-1.704196692E0,1.050924917E1
4.525334071E0,-2.535160065E0,1.018872070E1,-1.547714829E0,1.061284539E1
4.530132248E0,-2.660644770E0,1.028926849E1,-1.393783092E0,1.071870832E1
4.534930425E0,-2.751008749E0,1.037087250E1,-1.352515221E0,1.081445065E1
4.539728654E0,-2.925419092E0,1.048847008E1,-1.280940890E0,1.096389032E1
4.544526831E0,-2.995156288E0,1.053943634E1,-1.194921613E0,1.102172932E1
4.549325008E0,-3.069922209E0,1.065523434E1,-1.183484077E0,1.115164005E1
4.554123185E0,-3.144804955E0,1.069488239E1,-1.227140188E0,1.121499802E1
4.558921362E0,-3.205424309E0,1.076598358E1,-1.170622230E0,1.129387019E1
4.563719591E0,-3.270671129E0,1.080648613E1,-1.202624559E0,1.135445895E1
4.568517769E0,-3.282977104E0,1.084254837E1,-1.209154487E0,1.139301753E1
4.573315946E0,-3.294846058E0,1.090049171E1,-1.257190108E0,1.145675596E1
4.578114175E0,-3.320570230E0,1.094214725E1,-1.296142817E0,1.150811711E1
4.582912352E0,-3.331227779E0,1.091010952E1,-1.333699465E0,1.148504778E1
4.587710529E0,-3.360361814E0,1.104567623E1,-8.351092339E-1,1.157568151E1
4.592508706E0,-3.352954626E0,1.094232559E1,-1.407200575E0,1.153069848E1
4.597306935E0,-3.359117031E0,1.083203697E1,-1.158964992E0,1.139999527E1
4.602105112E0,-3.359954119E0,1.071475315E1,-1.372362614E0,1.131276297E1
4.606903289E0,-3.367037058E0,1.068372726E1,-1.406702399E0,1.128972003E1
4.611701519E0,-3.334885597E0,1.055485439E1,-1.441503167E0,1.116263162E1
4.616499696E0,-3.311395884E0,1.048834133E1,-1.539004683E0,1.110581748E1
4.621297873E0,-3.267735720E0,1.034315491E1,-1.598817587E0,1.096426778E1
4.626096050E0,-3.234949589E0,1.019815254E1,-1.681306362E0,1.083023569E1
4.630894279E0,-3.215470552E0,1.014171791E1,-1.717306972E0,1.077695858E1
4.635692456E0,-3.144604445E0,1.005904770E1,-1.843312979E0,1.069910185E1
4.640490633E0,-3.108392477E0,9.966812134E0,-1.949844360E0,1.062079757E1
4.645288810E0,-3.063614845E0,9.893695831E0,-2.065976858E0,1.056121269E1
4.650087039E0,-3.069923878E0,9.796540260E0,-2.216392517E0,1.050281055E1
4.654885216E0,-2.978871107E0,9.816386223E0,-2.375139952E0,1.052978639E1
4.659683394E0,-2.926754475E0,9.797700882E0,-2.475667477E0,1.052092029E1
4.664481623E0,-2.856245756E0,9.781141281E0,-2.604091644E0,1.051713639E1
4.669279800E0,-2.796142101E0,9.709310532E0,-2.674397469E0,1.045186698E1
4.674077977E0,-2.732202291E0,9.689766884E0,-2.684317112E0,1.041931236E1
4.678876154E0,-2.676712036E0,9.607731819E0,-2.707439423E0,1.033457915E1
4.683674383E0,-2.627516031E0,9.479991913E0,-2.580899239E0,1.017030619E1
4.688472560E0,-2.515754938E0,9.282658577E0,-2.588701725E0,9.959826795E0
4.693270737E0,-2.404283285E0,8.977560997E0,-2.471600056E0,9.616963471E0
4.698068914E0,-2.353468418E0,8.600588799E0,-2.348663807E0,9.220909009E0
4.702867144E0,-2.337324381E0,8.316660881E0,-2.174198151E0,8.908258588E0
4.707665321E0,-2.341632366E0,8.099391937E0,-2.060233355E0,8.679167781E0
4.712463498E0,-2.313832521E0,7.922338963E0,-1.863535166E0,8.461089699E0
4.717261675E0,-2.251475334E0,7.708776474E0,-1.676012993E0,8.203864666E0
4.722059904E0,-2.161640644E0,7.446488380E0,-1.422640085E0,7.883323175E0
4.726858081E0,-2.044318438E0,7.056235313E0,-1.004880190E0,7.414814824E0
4.731656258E0,-1.864075303E0,6.499289989E0,-3.220760822E-1,6.768994025E0
4.736454487E0,-1.185344219E0,5.483029366E0,1.112994671E0,5.719039174E0
4.741252664E0,-3.518280983E-1,3.988154888E0,1.843574524E0,4.407712496E0
4.746050841E0,7.136058807E-1,1.892175674E0,2.308676004E0,3.069128057E0
4.750849019E0,2.219230413E0,-1.157120705E0,2.900475740E0,3.831014418E0
4.755647248E0,4.229925632E0,-5.397034645E0,3.382381916E0,7.645963722E0
4.760445425E0,6.437569618E0,-1.016145897E1,3.659137726E0,1.257325892E1
4.765243602E0,8.654003143E0,-1.596638012E1,3.139950037E0,1.843031065E1
4.770041831E0,1.072671413E1,-2.431634140E1,4.078753948E0,2.688834485E1
4.774840008E0,1.243223190E1,-3.146693039E1,6.209501266E0,3.439892446E1
4.779638185E0,1.301409054E1,-3.690283585E1,8.660660744E0,4.007733637E1
4.784436362E0,1.315749931E1,-4.120961380E1,1.107737827E1,4.465490306E1
4.789234591E0,1.361355591E1,-4.115137482E1,1.197000599E1,4.496716132E1
4.794032769E0,1.137384129E1,-3.693600082E1,1.205673504E1,4.048453139E1
4.798830946E0,9.178327560E0,-3.051317978E1,1.003783035E1,3.340739252E1
4.803629175E0,9.513730049E0,-2.362536621E1,3.490553617E0,2.570706036E1
4.808427352E0,1.000715733E1,-1.813850403E1,3.182368279E-1,2.071834455E1
4.813225529E0,9.366836548E0,-1.468498230E1,-1.776847839E-1,1.741889503E1
4.818023706E0,9.078946114E0,-1.276508427E1,-8.892920017E-1,1.568966154E1
4.822821935E0,8.886984825E0,-1.162413120E1,1.333045959E-2,1.463212572E1
4.827620112E0,7.491310596E0,-1.094166660E1,1.666038752E0,1.336471053E1
4.832418289E0,6.040664196E0,-1.120712185E1,3.998277903E0,1.334449063E1
4.837216466E0,5.497212887E0,-1.241479778E1,5.519919872E0,1.465660496E1
4.842014696E0,5.606777668E0,-1.375232983E1,6.071093559E0,1.604433571E1
4.846812873E0,5.803170681E0,-1.482809067E1,5.556908607E0,1.686500211E1
4.851611050E0,5.868509293E0,-1.539621449E1,4.604242325E0,1.710794754E1
4.856409279E0,5.725460052E0,-1.558105659E1,3.801139593E0,1.702935347E1
4.861207456E0,5.485895157E0,-1.533913231E1,3.114317179E0,1.658562622E1
4.866005633E0,5.278062344E0,-1.472979450E1,2.728347540E0,1.588296787E1
4.870803810E0,4.817288399E0,-1.379888439E1,2.767723560E0,1.487534106E1
4.875602039E0,4.162772655E0,-1.270972157E1,2.978839874E0,1.370179497E1
4.880400216E0,3.552359581E0,-1.147504044E1,3.345144749E0,1.246939473E1
4.885198394E0,2.928936005E0,-1.020555592E1,3.686097622E0,1.123918829E1
4.889996623E0,2.494997501E0,-8.915106773E0,4.226058006E0,1.017662555E1
4.894794800E0,1.472760677E0,-7.606216431E0,4.046828747E0,8.740730822E0
4.899592977E0,1.431488514E0,-6.520486832E0,2.726598024E0,7.211119516E0
4.904391154E0,1.128503323E0,-5.581398964E0,2.456883430E0,6.201758649E0
4.909189383E0,1.042912722E0,-4.824995995E0,2.228983402E0,5.416329043E0
4.913987560E0,1.003614187E0,-4.083703041E0,2.118709803E0,4.708800611E0
4.918785737E0,9.528789520E-1,-3.318957329E0,1.845286608E0,3.915167776E0
4.923583914E0,9.870119095E-1,-2.475984573E0,1.761929274E0,3.195166174E0
4.928382144E0,8.799688816E-1,-1.533827782E0,1.689389706E0,2.445610450E0
4.933180321E0,1.627049446E-1,-4.255533218E-1,1.332052946E0,1.407811628E0
4.937978498E0,-1.594309807E-1,4.066190720E-1,9.523856640E-1,1.047757491E0
4.942776727E0,-2.425861359E-1,1.055983543E0,6.480131149E-1,1.262485752E0
4.947574904E0,-3.766574860E-1,1.730631828E0,2.256224155E-1,1.785458726E0
4.952373081E0,-5.551311970E-1,2.382527828E0,-8.527040482E-3,2.446361014E0
4.957171258E0,-6.091873646E-1,2.973152161E0,-1.573300362E-1,3.038995847E0
4.961969487E0,-9.334321022E-1,3.767721176E0,-3.335583210E-1,3.895931147E0
4.966767664E0,-1.130644321E0,4.393198967E0,-5.971140862E-1,4.575488933E0
4.971565841E0,-1.334914446E0,4.964300156E0,-8.051085472E-1,5.203313597E0
4.976364019E0,-1.374660492E0,5.664975643E0,-9.862068892E-1,5.912211476E0
4.981162248E0,-1.610888004E0,6.346824169E0,-1.202961564E0,6.657646260E0
4.985960425E0,-1.768447161E0,6.911906719E0,-1.335936069E0,7.258552544E0
4.990758602E0,-1.907123923E0,7.434536934E0,-1.487866282E0,7.818133227E0
4.995556831E0,-2.058182478E0,7.900455475E0,-1.577235460E0,8.315105743E0
5.000355008E0,-2.139915943E0,8.257273674E0,-1.649709821E0,8.688115519E0
5.005153185E0,-2.233265400E0,8.607924461E0,-1.765475273E0,9.066462420E0
5.009951362E0,-2.340394974E0,8.897433281E0,-1.865067005E0,9.387238282E0
5.014749539E0,-2.489925623E0,9.130635262E0,-1.869783401E0,9.646985014E0
5.019547769E0,-2.612615108E0,9.283683777E0,-1.762966394E0,9.804111009E0
5.024345946E0,-2.703464031E0,9.390109062E0,-1.917997003E0,9.957990684E0
5.029144123E0,-2.807465553E0,9.490795135E0,-2.009430408E0,1.009925075E1
5.033942352E0,-2.957755327E0,9.600225449E0,-2.037273645E0,1.025003069E1
5.038740529E0,-3.051359415E0,9.663530350E0,-2.018166304E0,1.033284125E1
5.043538706E0,-3.181390524E0,9.704772949E0,-2.081056595E0,1.042279522E1
5.048336935E0,-3.296974182E0,9.752943039E0,-2.125311613E0,1.051222556E1
5.053135112E0,-3.431454659E0,9.767467499E0,-2.143728733E0,1.057231646E1
5.057933289E0,-3.467431545E0,9.743688583E0,-2.222464085E0,1.057836922E1
5.062731466E0,-3.483675480E0,9.707942009E0,-2.311538935E0,1.056992645E1
5.067529696E0,-3.508863449E0,9.684157372E0,-2.293824196E0,1.055256633E1
5.072327873E0,-3.540534258E0,9.686724663E0,-2.346153975E0,1.057697764E1
5.077126050E0,-3.557258368E0,9.672631264E0,-2.269851685E0,1.055301423E1
5.081924227E0,-3.641438961E0,9.639506340E0,-1.642995358E0,1.043453851E1
5.086722456E0,-3.661719322E0,9.764383316E0,-1.806173563E0,1.058364932E1
5.091520633E0,-3.735187531E0,9.860609055E0,-1.656963825E0,1.067374189E1
5.096318810E0,-3.809190750E0,9.997558594E0,-1.532600999E0,1.080786648E1
5.101117039E0,-3.835927010E0,9.979265213E0,-1.526062250E0,1.079948778E1
5.105915216E0,-3.906376600E0,1.011402607E1,-1.515806317E0,1.094764679E1
5.110713394E0,-3.910917044E0,1.037305069E1,-1.161691189E0,1.114652319E1
5.115511571E0,-3.925989628E0,1.039063835E1,-1.202352405E0,1.117248456E1
5.120309800E0,-3.968176842E0,1.026034832E1,-1.283534765E0,1.107558742E1
5.125107977E0,-4.038908005E0,1.042923355E1,-1.549900889E0,1.129087610E1
5.129906154E0,-3.855947495E0,1.052164173E1,-1.820124149E0,1.135280264E1
5.134704331E0,-3.990619421E0,1.043499565E1,-2.211178541E0,1.138874392E1
5.139502560E0,-3.992763042E0,1.060921288E1,-2.582701206E0,1.162617306E1
5.144300737E0,-3.824183702E0,1.057073021E1,-2.698502064E0,1.156056363E1
5.149098914E0,-3.840323448E0,1.071435547E1,-3.469855070E0,1.189896598E1
5.153897144E0,-3.760660172E0,1.084855270E1,-3.798124790E0,1.209377578E1
5.158695321E0,-3.666607857E0,1.086599159E1,-3.950742722E0,1.212939217E1
5.163493498E0,-3.613212824E0,1.065444088E1,-3.959151745E0,1.192674725E1
5.168291675E0,-3.528445005E0,1.073733902E1,-4.262207985E0,1.207918831E1
5.173089904E0,-3.453359365E0,1.079633045E1,-4.149770737E0,1.207091709E1
5.177888081E0,-3.407159328E0,1.070470428E1,-4.014490128E0,1.192960852E1
5.182686258E0,-3.315434933E0,1.058204365E1,-3.807019949E0,1.172455361E1
5.187484435E0,-3.147311449E0,1.035423660E1,-3.549009323E0,1.138908478E1
5.192282664E0,-3.046392441E0,1.002621937E1,-3.166087627E0,1.094667496E1
5.197080841E0,-2.958273411E0,9.595512390E0,-2.849429607E0,1.043764766E1
5.201879019E0,-2.861757755E0,9.138551712E0,-2.520186424E0,9.902228257E0
5.206677248E0,-2.783622742E0,8.755576134E0,-2.226032972E0,9.453247685E0
5.211475425E0,-2.731276989E0,8.386684418E0,-1.954748750E0,9.034234455E0
5.216273602E0,-2.726558208E0,8.172569275E0,-1.797638655E0,8.800938186E0
5.221071779E0,-2.681422234E0,8.005057335E0,-1.619266987E0,8.596103402E0
5.225870008E0,-2.534230947E0,7.756890297E0,-1.375527859E0,8.275490950E0
5.230668185E0,-2.321530819E0,7.358346939E0,-9.335778952E-1,7.772151742E0
5.235466362E0,-2.175233841E0,7.000189781E0,-7.825461626E-1,7.372019922E0
5.240264591E0,-1.950297594E0,6.574371815E0,-4.107248783E-1,6.869841366E0
5.245062769E0,-1.640296459E0,6.133302212E0,-4.655098915E-1,6.365898833E0
5.249860946E0,-1.346022129E0,5.633822441E0,-4.727187157E-1,5.811642957E0
5.254659123E0,-1.072201371E0,5.037655830E0,-3.867201805E-1,5.164992211E0
5.259457352E0,-9.004909992E-1,4.380840778E0,-2.946527004E-1,4.482127863E0
5.264255529E0,-4.546818733E-1,3.458424091E0,-6.426095963E-3,3.488190662E0
5.269053706E0,3.276834488E-1,2.357449055E0,5.127832890E-1,2.434725691E0
5.273851935E0,1.398953915E0,7.819910049E-1,1.370182276E0,2.108549610E0
5.278650112E0,2.629809380E0,-1.216007233E0,2.721206665E0,3.974863102E0
5.283448289E0,5.237105370E0,-5.718660355E0,3.946314335E0,8.700789949E0
5.288246466E0,7.877686024E0,-1.064429379E1,5.392537117E0,1.429819512E1
5.293044644E0,9.635807037E0,-1.697216034E1,6.970593452E0,2.072419303E1
5.297842873E0,1.055553532E1,-2.144246483E1,1.083142471E1,2.623963386E1
5.302641050E0,1.091626358E1,-2.661710739E1,1.417585754E1,3.207164095E1
5.307439227E0,1.121801186E1,-3.008272934E1,1.574824524E1,3.576061552E1
5.312237456E0,1.119478989E1,-3.085669518E1,1.463635540E1,3.593997575E1
5.317035633E0,9.918138504E0,-2.971184540E1,1.336258125E1,3.405468846E1
5.321833810E0,7.467293262E0,-2.762438202E1,1.090150452E1,3.062204682E1
5.326632039E0,5.861880302E0,-2.465015221E1,7.665698051E0,2.647176932E1
5.331430216E0,4.492132187E0,-2.220536804E1,5.190637112E0,2.324221020E1
5.336228394E0,3.086098433E0,-2.063879013E1,2.605895519E0,2.103031985E1
5.341026571E0,3.054170132E0,-1.936397552E1,1.105063200E0,1.963447651E1
5.345824800E0,3.091311216E0,-1.905538940E1,5.315828323E-2,1.930458226E1
5.350622977E0,3.518309116E0,-1.882995605E1,-1.658501625E-1,1.915654589E1
5.355421154E0,3.587454319E0,-1.845030212E1,1.229801178E-1,1.879623901E1
5.360219331E0,3.876790762E0,-1.791252327E1,9.002237320E-1,1.834934329E1
5.365017560E0,3.664452553E0,-1.603609657E1,7.140345573E-1,1.646494613E1
5.369815737E0,3.960237503E0,-1.482264996E1,1.617934465E0,1.542764223E1
5.374613914E0,4.428993225E0,-1.506282616E1,2.132495880E0,1.584462847E1
5.379412144E0,4.638301849E0,-1.439032555E1,2.083633900E0,1.526226863E1
5.384210321E0,4.854378700E0,-1.440720558E1,2.388134718E0,1.538946889E1
5.389008498E0,4.588319302E0,-1.399602413E1,2.702605247E0,1.497482690E1
5.393806675E0,4.120937347E0,-1.310121727E1,2.597435474E0,1.397750656E1
5.398604904E0,3.695453882E0,-1.201149654E1,2.249063015E0,1.276678163E1
5.403403081E0,3.304147720E0,-1.076202202E1,1.916553259E0,1.141979363E1
5.408201258E0,3.002922773E0,-9.737416267E0,1.807725430E0,1.034904305E1
5.412999435E0,2.768261671E0,-8.734235764E0,1.878827572E0,9.353081850E0
5.417797664E0,2.526543856E0,-7.747612953E0,1.930827618E0,8.374785109E0
5.422595841E0,2.389757633E0,-6.806382179E0,1.942262411E0,7.470620000E0
5.427394019E0,2.418950081E0,-6.001701355E0,2.087618589E0,6.799256579E0
5.432192248E0,1.880685091E0,-5.115766525E0,2.111113548E0,5.845070057E0
5.436990425E0,1.309249163E0,-4.315838814E0,2.003069162E0,4.934864143E0
5.441788602E0,7.939686775E-1,-3.584870338E0,1.784963608E0,4.082618851E0
5.446586779E0,4.448263645E-1,-2.901339531E0,1.635948896E0,3.360352714E0
5.451385008E0,1.432921886E-1,-2.275198936E0,1.725815535E0,2.859283496E0
5.456183185E0,-2.118132114E-1,-1.596949577E0,1.644800663E0,2.302277570E0
5.460981362E0,-7.771372795E-1,-9.980297089E-1,1.191306829E0,1.737589599E0
5.465779539E0,-9.125316143E-1,-3.712177277E-1,9.720253944E-1,1.383961674E0
5.470577769E0,-9.256932735E-1,3.259258270E-1,8.404004574E-1,1.292055962E0
5.475375946E0,-9.565358162E-1,9.710712433E-1,6.003735065E-1,1.489425552E0
5.480174123E0,-9.387009144E-1,1.590350628E0,2.828547955E-1,1.868256236E0
5.484972352E0,-1.044308424E0,2.367743015E0,4.991674423E-2,2.588296496E0
5.489770529E0,-8.799202442E-1,2.929986477E0,6.172668934E-2,3.059884079E0
5.494568706E0,-7.978885174E-1,3.449244022E0,-8.116233349E-2,3.541256519E0
5.499366883E0,-7.505774498E-1,3.911179543E0,-2.161827087E-1,3.988411574E0
5.504165112E0,-7.237958908E-1,4.411435604E0,-2.884724140E-1,4.479716611E0
5.508963289E0,-7.268295288E-1,4.880809307E0,-4.174894094E-1,4.952259895E0
5.513761466E0,-7.902510166E-1,5.340967178E0,-5.150473118E-1,5.423624324E0
5.518559644E0,-9.800853729E-1,5.825663567E0,-6.409100294E-1,5.942195638E0
5.523357873E0,-1.199622154E0,6.299297333E0,-7.474308014E-1,6.455919222E0
5.528156050E0,-1.374080896E0,6.668852329E0,-8.181509972E-1,6.857919565E0
5.532954227E0,-1.550631285E0,7.066078186E0,-9.513156414E-1,7.296500515E0
5.537752456E0,-1.726411581E0,7.426558018E0,-1.072787642E0,7.699684037E0
5.542550633E0,-1.886734009E0,7.745668411E0,-1.132406473E0,8.052172923E0
5.547348810E0,-2.026693821E0,8.104779243E0,-1.206635714E0,8.441025067E0
5.552146987E0,-2.162677050E0,8.401180267E0,-1.307407379E0,8.773044851E0
5.556945216E0,-2.301923275E0,8.618239403E0,-1.384283304E0,9.027133622E0
5.561743394E0,-2.379855394E0,8.799076080E0,-1.473147869E0,9.233505088E0
5.566541571E0,-2.432479858E0,8.874410629E0,-1.583488107E0,9.336999350E0
5.571339800E0,-2.450412512E0,8.971033096E0,-1.657639265E0,9.446254508E0
5.576137977E0,-2.515057325E0,9.122364998E0,-1.757604718E0,9.624563930E0
5.580936154E0,-2.561881065E0,9.239886284E0,-1.837944150E0,9.763030873E0
5.585734331E0,-2.602864981E0,9.333223343E0,-1.891301394E0,9.872233032E0
5.590532560E0,-2.564224958E0,9.380847931E0,-1.960488558E0,9.920638736E0
5.595330737E0,-2.546391964E0,9.473638535E0,-2.016760826E0,1.001505184E1
5.600128914E0,-2.532709360E0,9.496806145E0,-2.038524628E0,1.003790448E1
5.604927091E0,-2.527931690E0,9.553249359E0,-2.078113556E0,1.009819627E1
5.609725321E0,-2.510586023E0,9.556908607E0,-2.097052813E0,1.010124620E1
5.614523498E0,-2.478399754E0,9.541304588E0,-2.109541893E0,1.008112720E1
5.619321675E0,-2.455386639E0,9.528021812E0,-2.210752487E0,1.008461947E1
5.624119904E0,-2.393683195E0,9.540948868E0,-2.211850405E0,1.008224711E1
5.628918081E0,-2.365100384E0,9.548895836E0,-2.196922302E0,1.007976087E1
5.633716258E0,-2.329036951E0,9.554375648E0,-2.256117344E0,1.008962698E1
5.638514435E0,-2.335607529E0,9.507207870E0,-2.312929392E0,1.005940885E1
5.643312664E0,-2.315640450E0,9.515068054E0,-2.340524912E0,1.006860306E1
5.648110841E0,-2.307495117E0,9.470351219E0,-2.329252481E0,1.002185128E1
5.652909019E0,-2.277687550E0,9.502177238E0,-2.348474979E0,1.004960534E1
5.657707196E0,-2.226305485E0,9.479036331E0,-2.311943769E0,1.000767954E1
5.662505425E0,-2.220403671E0,9.465551376E0,-2.295974255E0,9.989912567E0
5.667303602E0,-2.205304384E0,9.483224869E0,-2.283467054E0,1.000045715E1
5.672101779E0,-2.262717009E0,9.863941193E0,-1.080309868E0,1.017763693E1
5.676899956E0,-2.172721863E0,9.527315140E0,-2.173536777E0,1.001073005E1
5.681698185E0,-2.131440163E0,9.499664307E0,-2.290282249E0,1.000160247E1
5.686496362E0,-2.110251427E0,9.510549545E0,-2.275346756E0,1.000404501E1
5.691294539E0,-2.092257500E0,9.521698952E0,-2.270036936E0,1.000966333E1
5.696092769E0,-2.068017006E0,9.521129608E0,-2.214691639E0,9.991669651E0
5.700890946E0,-2.025513172E0,9.499263763E0,-2.221951723E0,9.963723456E0
5.705689123E0,-1.971851587E0,9.439389229E0,-2.279926062E0,9.909002500E0
5.710487300E0,-1.914129615E0,9.432343483E0,-2.319473505E0,9.900149146E0
5.715285529E0,-1.864277959E0,9.372834206E0,-2.319463491E0,9.833893646E0
5.720083706E0,-1.810111165E0,9.351705551E0,-2.380676985E0,9.818274902E0
5.724881883E0,-1.713217735E0,9.306725502E0,-2.412588358E0,9.765799361E0
5.729680112E0,-1.659443378E0,9.249744415E0,-2.459028482E0,9.713822376E0
5.734478289E0,-1.507654548E0,9.154285431E0,-2.332144260E0,9.566235458E0
5.739276466E0,-1.497277498E0,9.061168671E0,-2.351505280E0,9.480305621E0
5.744074644E0,-1.389065862E0,8.953636169E0,-2.364166021E0,9.364100896E0
5.748872873E0,-1.331363678E0,8.865124702E0,-2.382230759E0,9.275666479E0
5.753671050E0,-1.221257687E0,8.778822899E0,-2.315213680E0,9.160754129E0
5.758469227E0,-1.042442560E0,8.641832352E0,-2.118986845E0,8.958686184E0
5.763267404E0,-6.640917063E-1,8.393939018E0,-1.575846076E0,8.566359839E0
5.768065633E0,5.031991005E-2,8.025156975E0,-1.449069619E0,8.155089167E0
5.772863810E0,5.829730034E-1,7.570963860E0,-1.437616110E0,7.728265741E0
5.777661987E0,1.269830227E0,7.043108940E0,-1.371007681E0,7.286804129E0
5.782460216E0,2.045943022E0,6.517925262E0,-1.750494719E0,7.052195710E0
5.787258394E0,2.886381149E0,5.677145958E0,-1.329596996E0,6.506074895E0
5.792056571E0,4.065811634E0,4.917765617E0,-7.152155638E-1,6.420808065E0
5.796854748E0,4.924395084E0,3.880722046E0,5.199127197E-1,6.291262177E0
5.801652977E0,5.360298634E0,2.414560318E0,1.467923164E0,6.059513296E0
5.806451154E0,5.433066368E0,1.759452820E-1,1.756592512E0,5.712686247E0
5.811249331E0,5.120052338E0,-2.957869530E0,2.168430328E0,6.298096394E0
5.816047560E0,4.133267403E0,-5.427399635E0,2.982373238E0,7.445476234E0
5.820845737E0,2.905250788E0,-6.799723625E0,3.884451866E0,8.352585816E0
5.825643914E0,1.711473465E0,-8.366327286E0,5.828042030E0,1.033879333E1
5.830442091E0,8.420984745E-1,-1.082509518E1,8.207022667E0,1.361054872E1
5.835240321E0,1.205137730E0,-1.512904453E1,9.714923859E0,1.801999143E1
5.840038498E0,1.360329151E0,-2.038064194E1,1.234843159E1,2.386849019E1
5.844836675E0,1.973357439E0,-2.565317917E1,1.493918419E1,2.975162122E1
5.849634852E0,2.583832264E0,-3.086044693E1,1.653366661E1,3.510563353E1
5.854433081E0,3.200015545E0,-3.516648483E1,1.626238823E1,3.887656140E1
5.859231258E0,4.033133507E0,-3.858039474E1,1.441205311E1,4.138140040E1
5.864029435E0,4.791068077E0,-3.987096786E1,1.168138313E1,4.182228023E1
5.868827664E0,5.346355438E0,-3.951913452E1,8.408540726E0,4.075596971E1
5.873625841E0,5.606144905E0,-3.691156387E1,4.907695770E0,3.765604714E1
5.878424019E0,4.396956444E0,-3.100813103E1,2.253112793E0,3.139926644E1
5.883222196E0,2.522798777E0,-2.508464622E1,-3.644675016E-1,2.521382213E1
5.888020425E0,1.500611305E0,-2.034484100E1,-2.235056162E0,2.052217985E1
5.892818602E0,2.939071655E-1,-1.662388420E1,-4.863807201E0,1.732329437E1
5.897616779E0,-1.035880685E0,-1.412549114E1,-6.969566822E0,1.578535430E1
5.902414956E0,-2.064122677E0,-1.254463291E1,-7.152890205E0,1.458740058E1
5.907213185E0,-2.696107864E0,-1.141005516E1,-6.753951073E0,1.353049192E1
5.912011362E0,-3.417905807E0,-1.045913124E1,-5.912227631E0,1.249119458E1
5.916809539E0,-3.738159657E0,-9.704895973E0,-4.804073334E0,1.145591393E1
5.921607769E0,-3.698125362E0,-9.199518204E0,-3.528750181E0,1.052422654E1
5.926405946E0,-3.381112576E0,-8.809542656E0,-2.189529419E0,9.686795297E0
5.931204123E0,-2.966636658E0,-8.796549797E0,-1.011455417E0,9.338268761E0
5.936002300E0,-2.188630104E0,-8.676903725E0,-4.524123669E-2,8.948788004E0
5.940800529E0,-1.486432672E0,-8.383521080E0,4.547382593E-1,8.526411594E0
5.945598706E0,-1.038798690E0,-7.863019943E0,7.555311918E-1,7.967246245E0
5.950396883E0,-5.606720448E-1,-7.087548256E0,9.375106096E-1,7.171235568E0
5.955195060E0,-4.482014179E-1,-6.062585831E0,1.002321839E0,6.161207717E0
5.959993289E0,-5.017673969E-1,-5.118479729E0,1.099959970E0,5.259326686E0
5.964791466E0,-6.094946861E-1,-4.250320435E0,1.186334729E0,4.454671442E0
5.969589644E0,-6.709327698E-1,-3.383749962E0,1.228926659E0,3.661990622E0
5.974387873E0,-7.960746288E-1,-2.532917976E0,1.247880340E0,2.933703058E0
5.979186050E0,-9.441136122E-1,-1.728739738E0,1.272339106E0,2.344938890E0
5.983984227E0,-1.083715320E0,-1.018848419E0,1.319048643E0,1.988059435E0
5.988782404E0,-1.186403036E0,-1.760826111E-1,1.333240151E0,1.793345073E0
5.993580633E0,-1.127029896E0,5.654182434E-1,8.916741610E-1,1.544337070E0
5.998378810E0,-1.235193253E0,1.224902153E0,9.525457621E-1,1.983287948E0
6.003176987E0,-1.278539419E0,1.900488853E0,6.091294289E-1,2.370139150E0
6.007975164E0,-1.226004124E0,2.642279625E0,5.210080147E-1,2.959083824E0
6.012773394E0,-1.177962780E0,3.383180141E0,4.433287382E-1,3.609715301E0
6.017571571E0,-1.215604424E0,3.984556675E0,3.423863649E-1,4.179906032E0
6.022369748E0,-1.231628656E0,4.651858330E0,5.923870802E-1,4.848465481E0
6.027167977E0,-1.170547962E0,5.296644211E0,2.508883476E-1,5.430245611E0
6.031966154E0,-1.178414822E0,5.823296070E0,2.267024517E-1,5.945656618E0
6.036764331E0,-1.255951166E0,6.310548782E0,1.580077410E-1,6.436257120E0
6.041562508E0,-1.259912252E0,6.739224434E0,1.065727472E-1,6.856812861E0
6.046360737E0,-1.202018499E0,7.064043999E0,7.941091061E-2,7.166022061E0
6.051158914E0,-1.244493723E0,7.399962425E0,-1.172292233E-2,7.503888722E0
6.055957091E0,-1.359972835E0,7.655998230E0,-2.001142502E-2,7.775875222E0
6.060755321E0,-1.482318521E0,8.016103745E0,-8.416879177E-2,8.152439624E0
6.065553498E0,-1.366225481E0,8.208018303E0,-2.855325937E-1,8.325843224E0
6.070351675E0,-1.268313885E0,8.530967712E0,-3.901716471E-1,8.633554548E0
6.075149852E0,-1.355211020E0,8.803183556E0,-4.680525064E-1,8.919176575E0
6.079948081E0,-1.425763726E0,8.921950340E0,-5.193393230E-1,9.050067039E0
6.084746258E0,-1.491828322E0,9.124008179E0,-5.538197756E-1,9.261738138E0
6.089544435E0,-1.541866899E0,9.229940414E0,-5.306699276E-1,9.372873847E0
6.094342612E0,-1.588257909E0,9.342509270E0,-5.767050982E-1,9.494084022E0
6.099140841E0,-1.614625216E0,9.397119522E0,-6.462545395E-1,9.556699997E0
6.103939019E0,-1.659241796E0,9.501383781E0,-8.180055618E-1,9.679799078E0
6.108737196E0,-1.655398607E0,9.590630531E0,-7.167335153E-1,9.758803486E0
6.113535373E0,-1.593600988E0,9.688749313E0,-8.757266402E-1,9.857906700E0
6.118333602E0,-1.528923631E0,9.771813393E0,-9.838906527E-1,9.939516350E0
6.123131779E0,-1.511654377E0,9.844604492E0,-1.124800444E0,1.002329849E1
6.127929956E0,-1.460670710E0,9.897552490E0,-1.169213057E0,1.007284287E1
6.132728185E0,-1.412056446E0,9.933082581E0,-1.317684174E0,1.011910690E1
6.137526362E0,-1.329972386E0,9.910580635E0,-1.460112810E0,1.010546211E1
6.142324539E0,-7.918826342E-1,9.911400795E0,-1.423947334E0,1.004442979E1
6.147122716E0,-9.629184008E-1,9.897379875E0,-1.586075425E0,1.006980514E1
6.151920946E0,-1.008873701E0,9.878110886E0,-1.611265779E0,1.005937763E1
6.156719123E0,-9.658685923E-1,9.901459694E0,-1.743233442E0,1.010003312E1
6.161517300E0,-1.017845035E0,9.874485970E0,-2.190949917E0,1.016571410E1
6.166315477E0,-9.158172607E-1,9.897800446E0,-2.370452642E0,1.021881699E1
6.171113706E0,-8.725711107E-1,9.911642075E0,-2.430267572E0,1.024247184E1
6.175911883E0,-8.765373230E-1,9.885184288E0,-2.656284809E0,1.027331665E1
6.180710060E0,-7.778291702E-1,9.942810059E0,-2.672748804E0,1.032511870E1
6.185508289E0,-6.325990558E-1,1.013006496E1,-3.042687178E0,1.059605318E1
6.190306466E0,-5.416129231E-1,1.024639511E1,-3.324547529E0,1.078585062E1
6.195104644E0,-4.543070495E-1,1.028741074E1,-3.503144264E0,1.087700484E1
6.199902821E0,-3.730087578E-1,1.035851574E1,-3.511182547E0,1.094378302E1
6.204701050E0,-3.335462809E-1,1.050985622E1,-3.396715641E0,1.105015874E1
6.209499227E0,-2.997598946E-1,1.061485672E1,-3.584490061E0,1.120774769E1
6.214297404E0,-2.858043909E-1,1.073071384E1,-3.056884766E0,1.116129241E1
6.219095581E0,-3.891539574E-1,1.075926208E1,-2.988850117E0,1.117346797E1
6.223893810E0,-3.723085821E-1,1.076964664E1,-2.955567360E0,1.117404497E1
6.228691987E0,-4.456394315E-1,1.076884174E1,-2.783232212E0,1.113161842E1
6.233490164E0,-5.514991283E-1,1.101952553E1,-2.690245390E0,1.135656261E1
6.238288394E0,-5.963853598E-1,1.096670055E1,-2.457584143E0,1.125450649E1
6.243086571E0,-6.803859472E-1,1.129892540E1,-2.343820810E0,1.155950415E1
6.247884748E0,-7.321484685E-1,1.098539162E1,-1.919825554E0,1.117589372E1
6.252682925E0,-8.372911215E-1,1.136497974E1,-1.815805197E0,1.153953940E1
6.257481154E0,-8.314202428E-1,1.132791519E1,-1.627300501E0,1.147436400E1
6.262279331E0,-9.827901125E-1,1.113754463E1,-1.478713274E0,1.127818114E1
6.267077508E0,-1.004882812E0,1.091114235E1,-1.255054951E0,1.102896096E1
6.271875685E0,-1.018210411E0,1.066548347E1,-8.291461468E-1,1.074601198E1
6.276673914E0,-9.757999182E-1,1.024999428E1,-6.022310853E-1,1.031393477E1
6.281472091E0,-1.163267612E0,1.007811832E1,-4.215369821E-1,1.015378520E1
6.286270269E0,-1.265633345E0,9.540061951E0,3.108692169E-1,9.628668104E0
6.291068446E0,-1.209249735E0,9.071261406E0,6.396076679E-1,9.173830519E0
6.295866675E0,-1.347988844E0,8.559158325E0,1.291606784E0,8.760394583E0
6.300664852E0,-1.532679319E0,8.309729576E0,1.629417419E0,8.605562890E0
6.305463029E0,-1.520352840E0,8.508981705E0,1.509721756E0,8.774594133E0
6.310261258E0,-1.526889920E0,8.298171043E0,2.461999655E0,8.789338871E0
6.315059435E0,-1.455196261E0,8.342226028E0,1.929364204E0,8.685204517E0
6.319857612E0,-1.877366424E0,7.968981266E0,3.446095705E0,8.882834160E0
6.324655789E0,-1.893378019E0,7.312645912E0,4.466490746E0,8.775489168E0
6.329454019E0,-1.564573765E0,6.627159119E0,5.651319027E0,8.848985015E0
6.334252196E0,-1.222198486E0,5.671465874E0,6.336710453E0,8.591460508E0
6.339050373E0,5.103499889E-1,3.781625271E0,7.101421833E0,8.061720589E0
6.343848550E0,2.362998247E0,-3.068846703E0,9.098205566E0,9.888322675E0
6.348646779E0,6.280640602E0,-1.280014992E1,8.394769669E0,1.654576810E1
6.353444956E0,9.441725731E0,-2.702941513E1,7.276095867E0,2.954110760E1
6.358243133E0,1.584969044E1,-4.598929214E1,6.299476624E0,4.905008751E1
6.363041362E0,2.377521515E1,-6.228279877E1,6.677178860E0,6.699994474E1
6.367839539E0,2.812598801E1,-6.832073212E1,4.718896389E0,7.403419225E1
6.372637716E0,2.977700233E1,-6.890814209E1,-1.951780558E0,7.509201929E1
6.377435894E0,2.392941093E1,-6.168142700E1,-6.451191425E0,6.647430342E1
6.382234123E0,1.599027061E1,-4.538640213E1,-7.947098732E0,4.877264224E1
6.387032300E0,9.307269096E0,-3.181966782E1,-7.562062740E0,3.400443075E1
6.391830477E0,3.757630825E0,-2.065328026E1,-8.035289764E0,2.247762569E1
6.396628654E0,3.571069241E-1,-1.500516224E1,-8.116987228E0,1.706364266E1
6.401426883E0,-2.783728123E0,-1.108483410E1,-7.647709370E0,1.375173254E1
6.406225060E0,-5.224970341E0,-9.161028862E0,-6.832768440E0,1.256628384E1
6.411023237E0,-6.923166275E0,-8.377150536E0,-6.179742813E0,1.250184401E1
6.415821466E0,-7.238449097E0,-8.718904495E0,-5.128386021E0,1.243843978E1
6.420619644E0,-6.279633522E0,-1.079398346E1,-3.805697918E0,1.305477739E1
6.425417821E0,-4.252300262E0,-1.315186691E1,-2.685147762E0,1.408061360E1
6.430215998E0,-2.112978697E0,-1.421589375E1,-2.336104870E0,1.456069023E1
6.435014227E0,-1.914045811E-1,-1.414226532E1,-2.553455591E0,1.437221067E1
6.439812404E0,1.313286304E0,-1.334100342E1,-2.836035252E0,1.370219651E1
6.444610581E0,2.017078638E0,-1.206081390E1,-2.989967823E0,1.258855615E1
6.449408810E0,2.221968174E0,-1.064805984E1,-2.996697426E0,1.128266442E1
6.454206987E0,2.123270750E0,-9.504034996E0,-2.896581650E0,1.015997762E1
6.459005164E0,2.075331211E0,-8.721586227E0,-2.615058422E0,9.338714928E0
6.463803341E0,1.903680563E0,-8.113957405E0,-2.202282429E0,8.620345257E0
6.468601571E0,1.830737829E0,-7.604608536E0,-1.670591354E0,7.998284032E0
6.473399748E0,1.761312962E0,-7.176657677E0,-1.177936077E0,7.482925374E0
6.478197925E0,1.494586945E0,-6.555374146E0,-7.178335786E-1,6.761804890E0
6.482996102E0,1.279342890E0,-5.882167816E0,-2.912976146E-1,6.026729689E0
6.487794331E0,1.244266987E0,-5.257706642E0,2.347581834E-1,5.408030221E0
6.492592508E0,9.038381577E-1,-4.412026405E0,5.558484197E-1,4.537826339E0
6.497390685E0,8.175635338E-1,-3.689626694E0,9.698735476E-1,3.901590697E0
6.502188862E0,5.165703297E-1,-2.832311630E0,1.286819816E0,3.153528074E0
6.506987091E0,2.828726768E-1,-2.026723862E0,1.520429730E0,2.549378969E0
6.511785269E0,5.382561684E-2,-1.287234306E0,1.909310818E0,2.303331751E0
6.516583446E0,-1.256561279E-1,-5.349884033E-1,2.170764208E0,2.239245252E0
6.521381623E0,-4.493665695E-1,2.921705246E-1,2.342701435E0,2.403236140E0
6.526179852E0,-6.904306412E-1,9.408254623E-1,2.458148718E0,2.721092086E0
6.530978029E0,-8.182940483E-1,1.480485916E0,2.545539618E0,3.056340237E0
6.535776206E0,-9.243777990E-1,2.023597240E0,2.587873220E0,3.412698040E0
6.540574435E0,-1.045207024E0,2.503169537E0,2.606611013E0,3.762012284E0
6.545372612E0,-1.059048176E0,3.017323017E0,2.534904003E0,4.080632247E0
6.550170789E0,-1.136148214E0,3.386780739E0,2.492221355E0,4.355718520E0
6.554968966E0,-1.183545947E0,3.819628716E0,2.450172901E0,4.689743253E0
6.559767196E0,-1.170216680E0,4.155779839E0,2.363223553E0,4.921863337E0
6.564565373E0,-1.056332707E0,4.273385525E0,2.353425503E0,4.991620401E0
6.569363550E0,-1.162203908E0,4.712926865E0,2.282116413E0,5.363809549E0
6.574161727E0,-1.184201717E0,5.117940426E0,2.345591545E0,5.753038120E0
6.578959956E0,-1.230687499E0,5.368888378E0,2.285715818E0,5.963560257E0
6.583758133E0,-1.272403002E0,5.927332878E0,2.363674164E0,6.506860994E0
6.588556310E0,-1.199441075E0,6.212184906E0,2.402746677E0,6.767798150E0
6.593354539E0,-1.336777091E0,6.677915573E0,2.479723454E0,7.247796755E0
6.598152716E0,-1.378152609E0,7.152278423E0,2.599501371E0,7.733808805E0
6.602950894E0,-1.428631186E0,7.625804901E0,2.745191097E0,8.229821482E0
6.607749071E0,-1.509546995E0,8.038789749E0,2.897865772E0,8.677470760E0
6.612547300E0,-1.596781015E0,8.434431076E0,3.114619255E0,9.131822945E0
6.617345477E0,-1.623684406E0,8.843789101E0,3.342874527E0,9.592901897E0
6.622143654E0,-1.638211489E0,9.219078064E0,3.575343609E0,1.002288477E1
6.626941883E0,-1.616263509E0,9.531740189E0,3.721133947E0,1.035920927E1
6.631740060E0,-1.584379911E0,9.865546227E0,3.925722599E0,1.073548136E1
6.636538237E0,-1.600478649E0,1.014871597E1,4.074214935E0,1.105247462E1
6.641336414E0,-1.566895604E0,1.036458206E1,4.192680359E0,1.128974277E1
6.646134591E0,-1.572333336E0,1.056107235E1,4.302222729E0,1.151162898E1
6.650932821E0,-1.607248187E0,1.072151756E1,4.309394836E0,1.166640774E1
6.655730998E0,-1.521349430E0,1.078626442E1,4.227983952E0,1.168477011E1
6.660529175E0,-1.599154949E0,1.082237816E1,4.108029366E0,1.168576360E1
6.665327404E0,-1.694733620E0,1.085140896E1,3.899085999E0,1.165453002E1
6.670125581E0,-1.736494064E0,1.088528538E1,3.581945419E0,1.159030553E1
6.674923758E0,-1.726987004E0,1.089052391E1,3.225663185E0,1.148872918E1
6.679721935E0,-1.725918055E0,1.092446136E1,2.734676838E0,1.139302886E1
6.684520164E0,-1.649339080E0,1.093921566E1,2.336291313E0,1.130685702E1
6.689318341E0,-1.678574324E0,1.097541618E1,1.960986853E0,1.127487657E1
6.694116519E0,-1.803788185E0,1.096836662E1,1.702411890E0,1.124530677E1
6.698914696E0,-1.764135599E0,1.096824360E1,1.393030643E0,1.119620813E1
6.703712925E0,-1.700616598E0,1.105382442E1,1.044638753E0,1.123255988E1
6.708511102E0,-1.689112544E0,1.118907738E1,6.290869117E-1,1.133332714E1
6.713309279E0,-1.793812752E0,1.130210972E1,2.808539271E-1,1.144702263E1
6.718107508E0,-1.830499887E0,1.146446037E1,-3.993374109E-2,1.160974488E1
6.722905685E0,-1.841934443E0,1.162812042E1,-5.444418788E-1,1.178568301E1
6.727703862E0,-1.902097464E0,1.186228180E1,-8.082275987E-1,1.204096907E1
6.732502039E0,-2.111146688E0,1.207115746E1,-1.058815122E0,1.230003545E1
6.737300269E0,-2.082253218E0,1.217577267E1,-1.256132364E0,1.241624287E1
6.742098446E0,-1.957190633E0,1.211401272E1,-1.234592319E0,1.233304981E1
6.746896623E0,-1.843393087E0,1.217776966E1,-1.080242753E0,1.236378164E1
6.751694800E0,-1.835893154E0,1.203494453E1,-9.958275557E-1,1.221482976E1
6.756493029E0,-1.909823418E0,1.181998825E1,-9.936443567E-1,1.201444451E1
6.761291206E0,-1.916085243E0,1.144731712E1,-9.526440501E-1,1.164559928E1
6.766089383E0,-1.933067918E0,1.102494240E1,-9.725195765E-1,1.123529709E1
6.770887560E0,-1.950874209E0,1.056742764E1,-9.603440166E-1,1.078882281E1
6.775685789E0,-1.921347022E0,1.011076260E1,-9.556543827E-1,1.033597455E1
6.780483966E0,-1.923881888E0,9.607009888E0,-8.979321718E-1,9.838813073E0
6.785282144E0,-1.908882976E0,8.950860977E0,-7.770999670E-1,9.185076527E0
6.790080373E0,-2.020136833E0,8.216411591E0,-5.589228868E-1,8.479549932E0
6.794878550E0,-2.109514475E0,7.484878063E0,-2.286923677E-1,7.779829763E0
6.799676727E0,-2.139282465E0,6.815820694E0,1.686880291E-1,7.145655803E0
6.804474904E0,-2.040281534E0,6.268845081E0,7.963424921E-1,6.640431368E0
6.809273133E0,-1.838121533E0,5.755548477E0,1.382826328E0,6.198164059E0
6.814071310E0,-1.711504459E0,5.319083214E0,1.673544407E0,5.832893333E0
6.818869487E0,-1.590782166E0,4.517313480E0,1.689755082E0,5.078580630E0
6.823667664E0,-1.372958422E0,3.955389500E0,1.562965870E0,4.469114368E0
6.828465894E0,-9.566853046E-1,3.650089741E0,1.421333790E0,4.032194394E0
6.833264071E0,-7.193622589E-1,2.922673225E0,9.306991100E-1,3.150508161E0
6.838062248E0,-2.041766644E-1,2.354609966E0,-5.088943243E-2,2.363993642E0
6.842860425E0,2.495152950E-1,1.649486542E0,-3.727775812E-1,1.709393711E0
6.847658654E0,7.092041969E-1,1.080242157E0,-1.069504142E0,1.677418499E0
6.852456831E0,1.414129496E0,3.073854446E-1,-2.091644764E0,2.543467291E0
6.857255008E0,2.070518255E0,-7.880287170E-1,-2.744450569E0,3.527044660E0
6.862053237E0,2.652364016E0,-2.019218445E0,-3.244522095E0,4.651795527E0
6.866851414E0,3.326413870E0,-3.945324898E0,-3.625861883E0,6.306940001E0
6.871649591E0,4.766630173E0,-7.278157234E0,-3.896016121E0,9.532642737E0
6.876447769E0,6.807217598E0,-1.148634434E1,-3.774869919E0,1.387530038E1
6.881245998E0,8.779451370E0,-1.665122986E1,-3.033065319E0,1.906676972E1
6.886044175E0,9.945085526E0,-2.154170227E1,-1.697367191E0,2.378719652E1
6.890842352E0,1.021922302E1,-2.681094360E1,2.467920184E-1,2.869355542E1
6.895640529E0,1.066203022E1,-3.206198120E1,2.106941938E0,3.385393229E1
6.900438758E0,1.031280231E1,-3.583428574E1,4.012835026E0,3.750403673E1
6.905236935E0,9.776531219E0,-3.841792297E1,4.027651787E0,3.984644711E1
6.910035112E0,8.739167213E0,-3.834319305E1,2.549860001E0,3.940907615E1
6.914833289E0,6.484006405E0,-3.406240082E1,5.217665434E-2,3.467408558E1
6.919631519E0,4.200708866E0,-2.568460464E1,-2.098651409E0,2.611032762E1
6.924429696E0,2.951856136E0,-1.872885895E1,-3.256754875E0,1.923772503E1
6.929227873E0,2.149202347E0,-1.479067802E1,-3.833764553E0,1.542987290E1
6.934026102E0,1.858208418E0,-1.299698067E1,-4.408432484E0,1.384950259E1
6.938824279E0,1.771646500E0,-1.241104221E1,-4.653706074E0,1.337272150E1
6.943622456E0,1.766620874E0,-1.248435211E1,-4.679086685E0,1.344893487E1
6.948420633E0,1.882402420E0,-1.281489372E1,-4.729491711E0,1.378887348E1
6.953218862E0,2.050253868E0,-1.318046856E1,-4.737888336E0,1.415541869E1
6.958017039E0,2.098963022E0,-1.344989586E1,-4.695986748E0,1.439991791E1
6.962815216E0,2.297542810E0,-1.339648438E1,-4.629627228E0,1.435889776E1
6.967613394E0,2.613089561E0,-1.309746456E1,-4.524315357E0,1.410110792E1
6.972411623E0,2.774622202E0,-1.271575356E1,-4.255921364E0,1.369312906E1
6.977209800E0,2.903531313E0,-1.216310978E1,-3.853044987E0,1.308501774E1
6.982007977E0,3.046901703E0,-1.140160847E1,-3.403646469E0,1.228271529E1
6.986806206E0,3.096830845E0,-1.044825172E1,-2.870708942E0,1.126930766E1
6.991604383E0,3.101629496E0,-9.264888763E0,-2.245360374E0,1.002496447E1
6.996402560E0,2.901740074E0,-8.257911682E0,-1.707186699E0,8.917829738E0
7.001200737E0,2.802894354E0,-7.092599869E0,-1.471596479E0,7.767031985E0
7.005998966E0,2.761729717E0,-5.969928741E0,-1.201431513E0,6.686601371E0
7.010797144E0,2.587219715E0,-4.930408478E0,-8.488692641E-1,5.632336339E0
7.015595321E0,2.367727280E0,-4.186626434E0,-6.417803168E-1,4.852407170E0
7.020393498E0,1.988533020E0,-3.503961563E0,-3.225845098E-1,4.041790565E0
7.025191727E0,1.309182644E0,-2.937192917E0,5.352455378E-2,3.216197491E0
7.029989904E0,8.947360516E-1,-2.108387947E0,2.713082433E-1,2.306395565E0
7.034788081E0,4.633548260E-1,-1.330837250E0,4.007323086E-1,1.465063774E0
7.039586310E0,1.349809170E-1,-4.824924469E-1,4.898655117E-1,7.007046659E-1
7.044384487E0,-9.028148651E-2,3.720855713E-1,5.293680429E-1,6.533214707E-1
7.049182664E0,-3.299925327E-1,1.115696907E0,7.296035290E-1,1.373315685E0
7.053980841E0,-4.312427044E-1,1.815362453E0,8.444013596E-1,2.048053897E0
7.058779071E0,-5.590906143E-1,2.566742897E0,8.880971670E-1,2.772989000E0
7.063577248E0,-6.297743320E-1,3.338716984E0,9.493116140E-1,3.527724387E0
7.068375425E0,-8.031737804E-1,3.911452293E0,1.147821903E0,4.154761399E0
7.073173602E0,-1.000464439E0,4.481104851E0,1.323459864E0,4.778365389E0
7.077971831E0,-1.167013645E0,5.009298801E0,1.464759350E0,5.347944959E0
7.082770008E0,-1.298261523E0,5.620277405E0,1.567335129E0,5.977419217E0
7.087568185E0,-1.511020899E0,6.251836777E0,1.782493114E0,6.674273664E0
7.092366362E0,-1.697580814E0,6.803564548E0,1.881071210E0,7.260075763E0
7.097164591E0,-1.779053450E0,7.392670631E0,1.880067587E0,7.832704793E0
7.101962769E0,-1.829712868E0,7.906796455E0,1.922645330E0,8.340374358E0
7.106760946E0,-1.937773585E0,8.405864716E0,1.951227307E0,8.844253280E0
7.111559175E0,-2.036242962E0,8.837341309E0,1.965570450E0,9.279458713E0
7.116357352E0,-2.285632372E0,9.170185089E0,2.117890120E0,9.685136471E0
7.121155529E0,-2.315107107E0,9.598198891E0,2.108753204E0,1.009613703E1
7.125953706E0,-2.334594011E0,1.011908150E1,2.033624649E0,1.058214386E1
7.130751935E0,-2.437347412E0,1.044829750E1,2.122244835E0,1.093670454E1
7.135550112E0,-2.590059519E0,1.074853420E1,2.130392551E0,1.125957229E1
7.140348289E0,-2.792543173E0,1.090993500E1,2.156069517E0,1.146619443E1
7.145146466E0,-2.836492777E0,1.116936207E1,2.184801817E0,1.172918153E1
7.149944696E0,-2.795740128E0,1.155549431E1,2.070892811E0,1.206789993E1
7.154742873E0,-2.870914936E0,1.173365974E1,2.060625076E0,1.225426861E1
7.159541050E0,-2.882765293E0,1.200041962E1,1.898031354E0,1.248691034E1
7.164339227E0,-2.984401464E0,1.214052582E1,1.891920090E0,1.264430231E1
7.169137456E0,-3.042008638E0,1.220903969E1,1.903786421E0,1.272552040E1
7.173935633E0,-3.146645784E0,1.229200172E1,1.742786646E0,1.280749747E1
7.178733810E0,-3.279599190E0,1.225300694E1,1.691592693E0,1.279661813E1
7.183531987E0,-3.407663584E0,1.214228725E1,1.547307134E0,1.270596200E1
7.188330216E0,-3.600262165E0,1.195272255E1,1.589830041E0,1.258399871E1
7.193128394E0,-3.730823755E0,1.172498512E1,1.551360965E0,1.240165484E1
7.197926571E0,-3.911834002E0,1.157858086E1,1.601868272E0,1.232606839E1
7.202724800E0,-4.052361488E0,1.140111446E1,1.736241102E0,1.222381192E1
7.207522977E0,-4.092992306E0,1.136699390E1,1.789576411E0,1.221326001E1
7.212321154E0,-4.181589603E0,1.126109505E1,1.835871220E0,1.215188777E1
7.217119331E0,-4.159887314E0,1.118880463E1,1.908623099E0,1.208870769E1
7.221917560E0,-4.087376595E0,1.114063549E1,1.924337149E0,1.202179188E1
7.226715737E0,-3.973993063E0,1.102087975E1,1.808805346E0,1.185428986E1
7.231513914E0,-3.860470295E0,1.088935757E1,1.719846249E0,1.168071959E1
7.236312091E0,-3.710762978E0,1.065772152E1,1.566604257E0,1.139346474E1
7.241110321E0,-3.565705538E0,1.035951328E1,1.375178576E0,1.104196031E1
7.245908498E0,-3.502068758E0,9.994730949E0,1.295717478E0,1.066948997E1
7.250706675E0,-3.426750898E0,9.670937538E0,1.165273070E0,1.032606004E1
7.255504904E0,-3.467301130E0,9.136886597E0,9.641070366E-1,9.820100620E0
7.260303081E0,-3.531024933E0,8.820415497E0,1.319964051E0,9.592193269E0
7.265101258E0,-3.217723370E0,9.041790009E0,1.242878556E0,9.677419974E0
7.269899435E0,-2.901905537E0,9.174536705E0,8.774938583E-1,9.662462159E0
7.274697664E0,-2.692986250E0,9.049232483E0,5.810046196E-1,9.459299648E0
7.279495841E0,-2.744289398E0,8.568057060E0,2.721762657E-1,9.000933619E0
7.284294019E0,-2.862823009E0,7.996437073E0,1.970739067E-1,8.495740084E0
7.289092196E0,-2.852532148E0,7.664271832E0,3.838216960E-1,8.186899380E0
7.293890425E0,-2.496446609E0,7.753528595E0,3.242856264E-1,8.151969855E0
7.298688602E0,-2.159320831E0,7.764646530E0,1.829458773E-1,8.061381481E0
7.303486779E0,-1.950808764E0,7.351317406E0,2.284376323E-2,7.605790180E0
7.308284956E0,-1.935584068E0,6.611996174E0,-7.167308033E-2,6.889856030E0
7.313083185E0,-1.956668139E0,5.685426712E0,-1.911349893E-1,6.015742655E0
7.317881362E0,-2.001143694E0,4.729151249E0,-2.300216705E-1,5.140268241E0
7.322679539E0,-1.905678272E0,3.685398102E0,-2.548690140E-1,4.156768825E0
7.327477769E0,-1.834858060E0,2.601514816E0,-6.495082378E-2,3.184148559E0
7.332275946E0,-1.512417316E0,1.582429409E0,1.055045426E-1,2.191488120E0
7.337074123E0,-1.085233212E0,3.601989746E-1,4.463610947E-1,1.227482241E0
7.341872300E0,-5.450046062E-1,-1.153628349E0,8.618302941E-1,1.539688230E0
7.346670529E0,1.784007549E-1,-2.916120529E0,1.185702205E0,3.153010544E0
7.351468706E0,1.207451344E0,-5.147382736E0,1.570424438E0,5.515407573E0
7.356266883E0,2.180174828E0,-7.706233025E0,1.605593204E0,8.168054802E0
7.361065060E0,3.478619099E0,-1.029155254E1,1.377990127E0,1.095060279E1
7.365863289E0,4.798981667E0,-1.295862579E1,6.868414283E-1,1.383574930E1
7.370661466E0,5.782491684E0,-1.452175045E1,-4.378353655E-1,1.563682020E1
7.375459644E0,6.707631588E0,-1.583718204E1,-2.605469704E0,1.739531917E1
7.380257821E0,7.664352417E0,-1.640705109E1,-5.262110233E0,1.885798047E1
7.385056050E0,8.558312416E0,-1.691921234E1,-7.559441566E0,2.041199683E1
7.389854227E0,9.024744034E0,-1.769239807E1,-8.881342888E0,2.175649802E1
7.394652404E0,9.415736198E0,-1.865053368E1,-8.475128174E0,2.254609261E1
7.399450633E0,9.426697731E0,-1.935878372E1,-6.493575096E0,2.248981225E1
7.404248810E0,9.174213409E0,-1.934954453E1,-4.223488808E0,2.182679369E1
7.409046987E0,8.412118912E0,-1.821028900E1,-1.563659310E0,2.012022367E1
7.413845164E0,7.242696762E0,-1.695901108E1,7.025223374E-1,1.845422041E1
7.418643394E0,6.466603279E0,-1.661226273E1,2.126685143E0,1.795291120E1
7.423441571E0,6.032608032E0,-1.684759521E1,3.020754099E0,1.814824453E1
7.428239748E0,5.718575001E0,-1.695677948E1,3.198021412E0,1.817860862E1
7.433037925E0,5.545570374E0,-1.691052246E1,2.920305014E0,1.803461400E1
7.437836154E0,5.460127354E0,-1.677769089E1,2.345693827E0,1.779905002E1
7.442634331E0,5.470085144E0,-1.659156036E1,1.720737219E0,1.755456190E1
7.447432508E0,5.353540897E0,-1.639273834E1,1.230931878E0,1.728865130E1
7.452230737E0,5.232106686E0,-1.613128281E1,7.558311224E-1,1.697540886E1
7.457028914E0,5.246412277E0,-1.577879620E1,1.033902615E-1,1.662846778E1
7.461827091E0,5.288594723E0,-1.536416245E1,-5.908063650E-1,1.625963634E1
7.466625269E0,5.442171097E0,-1.486359787E1,-1.220488429E0,1.587555857E1
7.471423498E0,5.663856506E0,-1.442304897E1,-1.896983147E0,1.561096273E1
7.476221675E0,5.690362453E0,-1.396845722E1,-2.464754581E0,1.528309645E1
7.481019852E0,5.514632225E0,-1.340190220E1,-2.782601118E0,1.475686349E1
7.485818029E0,5.268660069E0,-1.270667458E1,-2.994358540E0,1.407780312E1
7.490616258E0,4.948096275E0,-1.198079014E1,-3.067038536E0,1.332027456E1
7.495414435E0,4.493068695E0,-1.119329834E1,-2.953668118E0,1.241779970E1
7.500212612E0,4.042061329E0,-1.044477654E1,-2.767243624E0,1.153643159E1
7.505010789E0,3.582767725E0,-9.419853210E0,-2.451084375E0,1.037196576E1
7.509809019E0,3.191595316E0,-8.333994865E0,-2.115861893E0,9.171620502E0
7.514607196E0,2.813450336E0,-7.189675331E0,-1.726507187E0,7.911242711E0
7.519405373E0,2.606134892E0,-5.762269974E0,-1.236255407E0,6.443913543E0
7.524203550E0,2.299196005E0,-4.869510651E0,-1.004284143E0,5.477866636E0
7.529001779E0,1.931149960E0,-3.972947121E0,-8.873705864E-1,4.505671487E0
7.533799956E0,1.384174109E0,-3.658370018E0,-8.450493813E-1,4.001714334E0
7.538598133E0,7.386255264E-1,-3.344671249E0,-6.250455379E-1,3.481820696E0
7.543396362E0,1.811063290E-1,-2.620718956E0,-3.334307671E-1,2.648045208E0
7.548194539E0,-1.367700100E-1,-1.465082169E0,-7.309800386E-2,1.473266817E0
7.552992716E0,-4.719622135E-1,-3.342266083E-1,2.435979247E-2,5.788343080E-1
7.557790894E0,-7.425377369E-1,7.171497345E-1,1.574112773E-1,1.044243431E0
7.562589123E0,-1.060921192E0,1.457315445E0,2.424259484E-1,1.818816215E0
7.567387300E0,-1.319648266E0,2.156662941E0,3.366902173E-1,2.550691453E0
7.572185477E0,-1.746294260E0,2.640610695E0,3.087547421E-1,3.180832906E0
7.576983654E0,-1.953596592E0,3.659805298E0,3.018982410E-1,4.159550097E0
7.581781883E0,-2.097025156E0,4.764317513E0,3.520736098E-1,5.217297355E0
7.586580060E0,-2.368616104E0,5.523535728E0,5.296980739E-1,6.033271852E0
7.591378237E0,-2.404942036E0,6.310653687E0,5.582165718E-1,6.776407742E0
7.596176414E0,-2.445061684E0,6.814985275E0,5.628523231E-1,7.262172793E0
7.600974644E0,-2.470620155E0,7.096362591E0,5.414063931E-1,7.533621098E0
7.605772821E0,-2.683338165E0,7.862173080E0,4.432803690E-1,8.319288836E0
7.610570998E0,-2.693410397E0,8.497606277E0,5.106250644E-1,8.928858268E0
7.615369175E0,-2.657021046E0,8.589186668E0,5.476950407E-1,9.007433503E0
7.620167404E0,-2.787421227E0,9.052755356E0,5.044561028E-1,9.485598167E0
7.624965581E0,-2.855090857E0,9.481512070E0,5.946004391E-1,9.919887328E0
7.629763758E0,-2.674749136E0,9.588356972E0,7.881268263E-1,9.985590431E0
7.634561987E0,-2.777677536E0,9.842039108E0,7.326748967E-1,1.025270885E1
7.639360164E0,-2.792979479E0,1.024485493E1,6.954909563E-1,1.064149870E1
7.644158341E0,-2.763891935E0,1.059346294E1,7.721048594E-1,1.097527684E1
7.648956519E0,-2.764343023E0,1.086410236E1,8.859727979E-1,1.124523278E1
7.653754748E0,-2.784457922E0,1.096613312E1,1.089823604E0,1.136648569E1
7.658552925E0,-2.761855125E0,1.105040264E1,1.101363420E0,1.144343671E1
7.663351102E0,-2.735000610E0,1.139170837E1,1.064159036E0,1.176365940E1
7.668149331E0,-2.682560205E0,1.165509510E1,1.083432078E0,1.200879661E1
7.672947508E0,-2.683149338E0,1.165191650E1,1.070953727E0,1.200472367E1
7.677745685E0,-2.748189449E0,1.165983486E1,1.182374239E0,1.203753725E1
7.682543862E0,-2.853072643E0,1.153088379E1,1.550606966E0,1.197938590E1
7.687342039E0,-3.068642855E0,1.112687111E1,1.826160908E0,1.168583302E1
7.692140269E0,-3.296120167E0,1.077341747E1,2.297340870E0,1.149820452E1
7.696938446E0,-3.549389124E0,1.042523003E1,2.769723892E0,1.135583351E1
7.701736623E0,-3.756683111E0,1.035000706E1,3.106756449E0,1.144059656E1
7.706534852E0,-3.848439217E0,1.036589527E1,3.344314575E0,1.155191366E1
7.711333029E0,-3.963158607E0,1.040115166E1,3.685942173E0,1.172504804E1
7.716131206E0,-4.155698299E0,1.047488594E1,3.947715044E0,1.194058281E1
7.720929383E0,-4.380081654E0,1.052267742E1,4.282660961E0,1.217592051E1
7.725727612E0,-4.674205780E0,1.076925373E1,4.433195591E0,1.254903378E1
7.730525789E0,-4.815624714E0,1.081291485E1,4.614601135E0,1.270448395E1
7.735323966E0,-5.067542076E0,1.101957703E1,4.625402927E0,1.298096348E1
7.740122144E0,-5.214483261E0,1.107367992E1,4.788210392E0,1.314321808E1
7.744920373E0,-5.400124073E0,1.116421127E1,4.746262550E0,1.327885392E1
7.749718550E0,-5.495181084E0,1.114543819E1,4.764691830E0,1.330864741E1
7.754516727E0,-5.604848862E0,1.113231659E1,4.627410889E0,1.329495148E1
7.759314904E0,-5.698365211E0,1.114393997E1,4.376697540E0,1.325949643E1
7.764113133E0,-5.715867043E0,1.107755661E1,4.062882423E0,1.311069831E1
7.768911310E0,-5.653497219E0,1.120794010E1,3.589219332E0,1.305612682E1
7.773709487E0,-5.518997192E0,1.108542061E1,3.182717800E0,1.278575663E1
7.778507716E0,-5.324374676E0,1.093013859E1,2.743293285E0,1.246364928E1
7.783305894E0,-5.125401497E0,1.094983196E1,2.234824181E0,1.229483630E1
7.788104071E0,-4.877478600E0,1.083570004E1,1.820195079E0,1.202145178E1
7.792902248E0,-4.757730961E0,1.075747013E1,1.382492781E0,1.184358281E1
7.797700477E0,-4.548752308E0,1.061936378E1,9.437741041E-1,1.159106312E1
7.802498654E0,-4.348750114E0,1.050022984E1,5.282459855E-1,1.137741174E1
7.807296831E0,-4.066865444E0,1.030443096E1,1.156067848E-2,1.107794320E1
7.812095008E0,-3.805913925E0,1.008458996E1,-4.265782237E-1,1.078730293E1
7.816893237E0,-3.510433435E0,9.793007851E0,-8.095836639E-1,1.043463327E1
7.821691414E0,-3.186957598E0,9.475311279E0,-1.144048572E0,1.006216029E1
7.826489591E0,-2.861571074E0,9.289284706E0,-1.429689169E0,9.824632842E0
7.831287769E0,-2.828250647E0,9.241839409E0,-1.495388269E0,9.779917354E0
7.836085998E0,-2.747363329E0,9.153516769E0,-1.431719303E0,9.663575667E0
7.840884175E0,-2.655188799E0,9.050530434E0,-1.345723152E0,9.527491773E0
7.845682352E0,-2.606594563E0,8.963981628E0,-1.439423442E0,9.445593771E0
7.850480581E0,-2.584637880E0,8.889123917E0,-1.570525765E0,9.389538229E0
7.855278758E0,-2.524841785E0,8.782926559E0,-1.529956579E0,9.265818481E0
7.860076935E0,-2.422489643E0,8.655036926E0,-1.325519562E0,9.084884280E0
7.864875112E0,-2.344754696E0,8.517398834E0,-1.297929645E0,8.929086115E0
7.869673341E0,-2.310882092E0,8.393900871E0,-1.542384386E0,8.841758732E0
7.874471519E0,-2.218373775E0,8.215191841E0,-1.601653099E0,8.658859731E0
7.879269696E0,-2.048931360E0,7.954865456E0,-1.656573534E0,8.379871121E0
7.884067873E0,-1.782889962E0,7.423733234E0,-1.769460440E0,7.837187123E0
7.888866102E0,-1.330458522E0,6.312842369E0,-1.946283102E0,6.738702885E0
7.893664279E0,-2.940557003E-1,4.132750988E0,-1.989307761E0,4.596024897E0
7.898462456E0,1.539191961E0,7.265892029E-1,-2.420941114E0,2.959391769E0
7.903260633E0,3.994721174E0,-4.446592331E0,-3.359257221E0,6.856718581E0
7.908058862E0,7.384051323E0,-1.160580254E1,-4.374936581E0,1.443464362E1
7.912857039E0,1.128739357E1,-1.951523399E1,-4.640984535E0,2.301713164E1
7.917655216E0,1.445815754E1,-2.634156418E1,-4.119234085E0,3.032959631E1
7.922453446E0,1.657943344E1,-3.118406677E1,-3.330335379E0,3.547414224E1
7.927251623E0,1.749425888E1,-3.334057617E1,-2.679183245E0,3.774680299E1
7.932049800E0,1.734218216E1,-3.335040665E1,-1.953410149E0,3.764062588E1
7.936847977E0,1.666282654E1,-3.192245483E1,-1.550021410E0,3.604296710E1
7.941646206E0,1.538026333E1,-2.946786880E1,-1.449164152E0,3.327172777E1
7.946444383E0,1.358941746E1,-2.646905136E1,-1.469168425E0,2.978995473E1
7.951242560E0,1.157373238E1,-2.346722794E1,-1.266025186E0,2.619665795E1
