"Time (s)","Linear Acceleration x (m/s^2)","Linear Acceleration y (m/s^2)","Linear Acceleration z (m/s^2)","Absolute acceleration (m/s^2)"
5.824760000E-3,0.000000000E0,0.000000000E0,0.000000000E0,0.000000000E0
1.071887400E-2,2.646446228E-5,-1.382646561E-1,-4.221248627E-1,4.441919805E-1
1.561319700E-2,-1.421720982E-1,-3.927898407E-2,-1.803059578E-1,2.329506010E-1
2.050741600E-2,-2.225437164E-1,-2.095985413E-1,-1.110124588E-2,3.059092870E-1
2.540158300E-2,-3.286616802E-1,-2.617869377E-1,5.370054245E-1,6.818546229E-1
3.029580100E-2,-7.086081505E-1,-1.680798531E-1,5.139679909E-1,8.913694204E-1
3.519002000E-2,-1.062707424E0,-2.070107460E-1,4.155058861E-1,1.159674808E0
4.008423900E-2,-1.466314793E0,5.645895004E-2,-7.851123810E-2,1.469500153E0
4.497840600E-2,-1.785150528E0,4.320988655E-1,-5.111298561E-1,1.906495625E0
4.987262400E-2,-1.924171925E0,7.560462952E-1,-7.626523972E-1,2.203561271E0
5.476684300E-2,-2.000512600E0,9.375309944E-1,-1.028800011E0,2.437097554E0
5.966106200E-2,-2.059407234E0,9.322805405E-1,-1.251733303E0,2.584016529E0
6.455522800E-2,-1.970374107E0,7.795410156E-1,-1.679232121E0,2.703678759E0
6.944944700E-2,-1.776833534E0,6.978259087E-1,-1.755998611E0,2.593767440E0
7.434366600E-2,-1.509236336E0,7.436676025E-1,-1.516294241E0,2.264946809E0
7.923783300E-2,-1.299700260E0,3.534259796E-1,-1.823836803E0,2.267269586E0
8.413205100E-2,-1.625768661E0,3.796882629E-1,-1.671157122E0,2.362213590E0
8.902627000E-2,-2.450047970E0,9.640259743E-1,-1.955223083E-1,2.640134486E0
9.392043700E-2,-2.556047440E0,1.324123383E0,2.419137955E-1,2.888806593E0
9.881465600E-2,-2.074215412E0,1.374160290E0,1.837406158E-1,2.494884104E0
1.037088740E-1,-1.729564190E0,1.338855743E0,1.080221653E0,2.439427353E0
1.086030930E-1,-1.506500721E0,1.128853321E0,1.406070709E0,2.349657227E0
1.134972600E-1,-1.297666550E0,9.229445457E-1,1.696235180E0,2.326580945E0
1.183914780E-1,-1.057799816E0,4.919676781E-1,1.456346035E0,1.865989395E0
1.232856970E-1,-9.219393730E-1,1.528973579E-1,1.109846115E0,1.450899104E0
1.281798640E-1,-7.433390617E-1,-3.426012993E-1,4.453415871E-1,9.318034879E-1
1.330740830E-1,-3.603277206E-1,-1.069365501E0,-4.736018181E-1,1.223796276E0
1.379683010E-1,1.342101097E-1,-1.811236382E0,-1.303766012E0,2.235709149E0
1.428624680E-1,6.592864990E-1,-2.511738300E0,-1.989131927E0,3.271105899E0
1.477566870E-1,1.121825695E0,-2.938333511E0,-2.410470247E0,3.962658644E0
1.526509060E-1,1.897018909E0,-3.897555828E0,-3.674949408E0,5.682858024E0
1.575451240E-1,1.922607422E0,-4.313365459E0,-3.850323200E0,6.093154325E0
1.624392910E-1,1.814640522E0,-4.109262943E0,-3.569585085E0,5.737673731E0
1.673335100E-1,1.966506958E0,-3.825215101E0,-2.941411972E0,5.210693291E0
1.722277280E-1,2.363060951E0,-4.017431259E0,-2.425029278E0,5.254005898E0
1.771219470E-1,2.531404495E0,-3.646148205E0,-1.947380781E0,4.847132901E0
1.820161140E-1,2.480279922E0,-3.274843693E0,-8.478426933E-1,4.194666487E0
1.869103330E-1,2.652204037E0,-3.144605398E0,5.320954323E-2,4.114068621E0
1.918045510E-1,2.920900583E0,-3.266661644E0,4.011566639E-1,4.400416478E0
1.966987180E-1,2.966080666E0,-3.710412502E0,2.522563934E-1,4.756934805E0
2.015929370E-1,2.892934084E0,-4.350064278E0,1.420865059E-1,5.226118580E0
2.064871560E-1,2.789927006E0,-5.207889080E0,6.828570366E-2,5.908507790E0
2.113813740E-1,2.806476593E0,-6.053786278E0,-1.410021782E-1,6.674168171E0
2.162755410E-1,2.833149910E0,-6.593262672E0,-3.520061970E-1,7.184828421E0
2.211697600E-1,2.918306351E0,-6.807770729E0,-2.573623657E-1,7.411375692E0
2.260639780E-1,3.076199532E0,-7.188782692E0,2.998747826E-1,7.825057510E0
2.309581450E-1,3.065958261E0,-7.046586037E0,5.379753113E-1,7.703498703E0
2.358523640E-1,3.009203672E0,-6.551776886E0,7.662115097E-1,7.250390830E0
2.407465830E-1,2.900421143E0,-6.066438675E0,1.275764585E0,6.844099377E0
2.456407490E-1,2.938616514E0,-5.746219158E0,1.661379814E0,6.664434298E0
2.504405930E-1,3.024831057E0,-5.534440041E0,1.911392450E0,6.590375603E0
2.552388740E-1,3.199678421E0,-5.413097858E0,2.034105301E0,6.608869404E0
2.600371560E-1,3.572181940E0,-5.131221771E0,3.288204432E0,7.064149564E0
2.648353850E-1,3.820071459E0,-4.890254974E0,4.359104156E0,7.583490536E0
2.696336660E-1,3.540504694E0,-5.257530212E0,3.957550764E0,7.472550132E0
2.744319470E-1,3.065998554E0,-5.251074791E0,4.405850410E0,7.509037983E0
2.792301760E-1,2.397970200E0,-6.000429153E0,3.804069519E0,7.498423568E0
2.840284580E-1,2.028953552E0,-6.850287437E0,2.911685467E0,7.714985596E0
2.888267390E-1,1.683286667E0,-7.310299397E0,2.331375837E0,7.855523188E0
2.936250200E-1,1.243069172E0,-7.373706818E0,2.650734901E0,7.933673091E0
2.984232490E-1,8.805570602E-1,-6.892104626E0,3.686892509E0,7.865727130E0
3.032215310E-1,3.194584846E-1,-7.248694897E0,4.349442482E0,8.459508339E0
3.080198120E-1,9.762763977E-3,-5.877554417E0,5.401670456E0,7.982717892E0
3.128180410E-1,-3.789992332E-1,-5.436954498E0,5.537334442E0,7.769568029E0
3.176163220E-1,-1.249471188E0,-8.651269913E0,4.915212154E0,1.002820821E1
3.224146030E-1,-1.792472839E0,-9.052556038E0,6.397818565E0,1.122915011E1
3.272128850E-1,-2.092483521E0,-9.013216019E0,6.986781120E0,1.159446681E1
3.320111140E-1,-2.475939274E0,-9.229014397E0,6.697906494E0,1.166905881E1
3.368093950E-1,-2.996216297E0,-9.118057251E0,6.447208881E0,1.156212707E1
3.416076760E-1,-3.646376133E0,-8.655284882E0,6.159986496E0,1.123189427E1
3.464059060E-1,-4.366925240E0,-7.939043522E0,5.548173904E0,1.062453207E1
3.512041870E-1,-5.271104336E0,-7.133741379E0,4.163492680E0,9.798442645E0
3.560024680E-1,-6.524478912E0,-6.743164062E0,3.177436113E0,9.906320553E0
3.608006970E-1,-7.850378513E0,-6.378013611E0,2.976662636E0,1.054362466E1
3.655989780E-1,-9.085443497E0,-5.716154099E0,3.338129282E0,1.124112131E1
3.703972600E-1,-1.021154022E1,-5.057699203E0,4.009987831E0,1.208039227E1
3.751955410E-1,-1.131387138E1,-4.363256454E0,4.864517212E0,1.306542078E1
3.799937700E-1,-1.244138145E1,-3.044618607E0,4.919005871E0,1.372057920E1
3.847920510E-1,-1.361679363E1,-1.679800987E0,1.153088331E0,1.376838454E1
3.895902810E-1,-1.385698891E1,-1.827947617E0,-3.053798676E0,1.430675436E1
3.943885620E-1,-1.654674721E1,-6.487746239E-1,6.235001087E0,1.769437736E1
3.991867910E-1,-1.634810638E1,-7.447381020E-1,8.293166161E0,1.834643895E1
4.039850720E-1,-1.725225639E1,-8.094205856E-1,5.547912121E0,1.814042010E1
4.087833010E-1,-1.814448166E1,-5.829429626E-1,3.167899609E0,1.842817476E1
4.135815830E-1,-1.830405807E1,-3.784942627E-1,1.114693522E0,1.834187399E1
4.183798640E-1,-1.810204697E1,-7.806558609E-1,4.998838902E-2,1.811894111E1
4.231780930E-1,-1.820074081E1,-4.962496758E-1,-9.869831800E-1,1.823423609E1
4.279763740E-1,-1.734669113E1,5.338883400E-1,-1.988679290E0,1.746847375E1
4.327746030E-1,-1.754711342E1,2.136291027E0,-5.028109550E0,1.837788928E1
4.375728850E-1,-1.898922539E1,2.920185566E0,-4.780429840E0,1.979824927E1
4.423711140E-1,-1.842285538E1,3.777961731E0,-5.283199310E0,1.953424660E1
4.471693950E-1,-1.745876122E1,4.481708527E0,-4.531960487E0,1.858582041E1
4.519676760E-1,-1.751415825E1,6.116220951E0,-7.450972557E0,1.999177056E1
4.567659060E-1,-1.958132362E1,8.471603394E0,-1.187322712E1,2.441658906E1
4.615641870E-1,-1.844611740E1,9.177328110E0,-1.260233784E1,2.415163592E1
4.663624680E-1,-1.835340118E1,1.028933907E1,-1.204414940E1,2.424416153E1
4.711606970E-1,-1.898290062E1,1.102546024E1,-1.195703983E1,2.499764171E1
4.759589780E-1,-1.903261566E1,1.144996643E1,-1.037006569E1,2.451286300E1
4.807572600E-1,-1.813683510E1,1.086002350E1,-6.934013367E0,2.224781875E1
4.855554890E-1,-1.758228302E1,1.102376270E1,-5.322473049E0,2.142402249E1
4.903537700E-1,-1.775293350E1,1.042015743E1,-5.152044296E0,2.122003509E1
4.951519990E-1,-1.756138039E1,1.101654434E1,-7.603381634E0,2.208116262E1
4.999502810E-1,-1.747718620E1,9.682979584E0,-9.220979691E0,2.200542201E1
5.047485620E-1,-1.741131210E1,8.352790833E0,-9.923011780E0,2.171149619E1
5.095468430E-1,-1.681356812E1,8.591349602E0,-1.089505100E1,2.179930038E1
5.143450720E-1,-1.553071880E1,8.857273102E0,-1.109504032E1,2.104173075E1
5.191433530E-1,-1.402848625E1,8.813617706E0,-1.046600246E1,1.959631320E1
5.239416350E-1,-1.209825325E1,9.284475327E0,-9.038523674E0,1.772749627E1
5.287398640E-1,-9.950231552E0,9.620972633E0,-6.629378319E0,1.534662436E1
5.335381450E-1,-8.282156944E0,9.615676880E0,-6.031969547E0,1.405133524E1
5.383364260E-1,-7.092383385E0,9.206658363E0,-6.757749081E0,1.344364656E1
5.431346560E-1,-6.379446030E0,7.664595604E0,-7.099036694E0,1.224090190E1
5.479329370E-1,-6.502344131E0,5.607356071E0,-6.939371109E0,1.103982757E1
5.527312180E-1,-6.095797539E0,4.205228329E0,-6.723831177E0,1.000262959E1
5.575294470E-1,-5.790948868E0,3.221910000E0,-5.994408131E0,8.935811193E0
5.623277280E-1,-5.605501175E0,2.866806507E0,-4.874098301E0,7.962226901E0
5.671260100E-1,-4.961151123E0,2.535504818E0,-3.308630228E0,6.479879562E0
5.719242910E-1,-4.098689079E0,2.123025894E0,-1.670999050E0,4.909045624E0
5.767225200E-1,-3.233863831E0,1.497997284E0,-5.832996964E-1,3.611386115E0
5.815208010E-1,-2.492257118E0,1.281200171E0,-8.081391454E-2,2.803453283E0
5.863190310E-1,-1.796278000E0,6.686110497E-1,-8.257074356E-1,2.086971049E0
5.911173120E-1,-1.004907608E0,1.394405365E-1,-2.360612452E-1,1.041637113E0
5.959155930E-1,4.007339478E-2,-2.285618782E-1,3.981206715E-1,4.608106750E-1
6.007138740E-1,1.320160866E0,-8.092560768E-1,6.866227388E-1,1.693862714E0
6.055121030E-1,2.765204906E0,-1.860163212E0,6.856506467E-1,3.402452374E0
6.103103850E-1,4.191757679E0,-3.207261562E0,9.317783117E-1,5.359624053E0
6.151086660E-1,5.517608643E0,-4.276830196E0,1.048491001E0,7.059363643E0
6.199068950E-1,6.736689568E0,-4.937889576E0,1.061303854E0,8.419744988E0
6.247051760E-1,7.840982914E0,-5.051449776E0,3.602234125E-1,9.334233702E0
6.295034580E-1,8.304887772E0,-4.626777649E0,-6.181179881E-1,9.526820149E0
6.343017390E-1,8.447485924E0,-4.170052528E0,-1.535121322E0,9.544943897E0
6.390999680E-1,8.157464981E0,-3.369257450E0,-1.922183514E0,9.032769240E0
6.438982490E-1,7.977797508E0,-2.449941635E0,-1.482740402E0,8.476201166E0
6.486965310E-1,7.625524998E0,-1.146393299E0,-7.444598675E-1,7.747068451E0
6.534947600E-1,7.581971169E0,-1.915316582E-1,2.083972096E-2,7.584418598E0
6.582930410E-1,7.676646233E0,3.001098633E-1,1.220911980E0,7.778919550E0
6.630913220E-1,7.695161819E0,7.093048096E-1,1.677503109E0,7.907758559E0
6.678895510E-1,7.519851208E0,1.169291019E0,1.474142551E0,7.751677234E0
6.726878330E-1,7.401645660E0,1.399597168E0,1.102051735E0,7.612998669E0
6.774861140E-1,7.411262989E0,1.393076420E0,7.211184502E-1,7.575453308E0
6.822843430E-1,7.312194347E0,1.069319725E0,4.838815928E-1,7.405793154E0
6.870826240E-1,6.803301811E0,6.758098602E-1,-1.400607228E-1,6.838219908E0
6.918809060E-1,5.987583637E0,3.741259575E-1,-7.138097286E-1,6.041576977E0
6.966791870E-1,5.240239620E0,9.677076340E-2,-6.076574326E-1,5.276241410E0
7.014774160E-1,4.484809875E0,3.331661224E-2,-8.485883474E-2,4.485736354E0
7.062756970E-1,3.837600708E0,8.020353317E-2,4.261885881E-1,3.862026478E0
7.110739780E-1,2.884847641E0,-4.082450867E-1,8.651897311E-1,3.039335986E0
7.158722080E-1,2.230547428E0,-3.592443466E-1,9.224906564E-1,2.440366231E0
7.206704890E-1,2.149230003E0,-4.281234741E-2,4.474921227E-1,2.195739444E0
7.254687700E-1,1.905239582E0,7.778215408E-2,5.010096431E-1,1.971547258E0
7.302669990E-1,1.846617699E0,1.012363434E-1,4.650706947E-1,1.906970496E0
7.350652810E-1,1.646648407E0,1.371808052E-1,9.008707106E-2,1.654806705E0
7.398635620E-1,1.038204193E0,6.956501007E-1,-5.558219552E-1,1.367748169E0
7.446618430E-1,3.976283073E-1,1.620121956E0,-1.269623995E0,2.096389399E0
7.494600720E-1,-1.106376648E-1,2.325119257E0,-1.380396008E0,2.706272971E0
7.542583530E-1,-5.368366241E-1,3.533747435E0,-1.529383421E0,3.887747181E0
7.590566350E-1,-8.931283951E-1,4.567070007E0,-7.909010649E-1,4.720310506E0
7.638548640E-1,-1.224075317E0,4.757802963E0,-3.678048253E-1,4.926492648E0
7.686531450E-1,-1.317004204E0,2.968387604E0,-5.815415978E-1,3.299093159E0
7.734514260E-1,-1.620792389E0,1.804954052E0,-1.815840006E0,3.030198347E0
7.782496560E-1,-3.206254005E0,1.900147200E0,-2.067428589E0,4.262028284E0
7.830479370E-1,-5.820456505E0,2.331159353E0,-1.037576675E0,6.355201272E0
7.878462180E-1,-4.616172791E0,1.259384871E0,-4.119549990E-1,4.802583514E0
7.926444990E-1,-3.326114655E0,3.001152515E0,2.929616272E-1,4.489519087E0
7.974427280E-1,-2.944165230E0,4.933258057E0,9.242892265E-2,5.745753829E0
8.022410100E-1,-4.613789558E0,7.189577579E0,9.524978399E-1,8.595599572E0
8.070392910E-1,-4.826309204E0,6.208292961E0,7.398207188E-1,7.898322399E0
8.118375200E-1,-3.875229836E0,4.203161240E0,-7.887742519E-1,5.771146810E0
8.166358010E-1,-3.151817322E0,3.367680788E0,-1.389537454E0,4.817264852E0
8.214340830E-1,-3.961878777E0,4.338818550E0,9.851205349E-2,5.876353842E0
8.262323120E-1,-2.402711868E0,1.120687008E0,1.994655967E0,3.317772765E0
8.310305930E-1,-1.368490219E0,-7.405319214E-1,1.983150005E0,2.520721514E0
8.358288740E-1,5.085372925E-2,-3.248008728E0,4.272052765E0,5.366803669E0
8.406271560E-1,4.426202774E-1,-3.080216885E0,5.559244156E0,6.370937478E0
8.454253850E-1,1.794549465E0,-2.164201260E0,5.429176331E0,6.113929220E0
8.502236660E-1,2.111723900E0,-2.302102566E0,4.410610199E0,5.404862291E0
8.550219470E-1,2.025709152E0,-2.064668655E0,4.541651249E0,5.384510218E0
8.598201760E-1,2.488005161E0,-1.546040297E0,4.929570198E0,5.734202004E0
8.646184580E-1,2.625260353E0,-9.967956543E-1,4.443802834E0,5.256707822E0
8.694167390E-1,2.067176342E0,5.308778286E-1,3.899876118E0,4.445681391E0
8.742149680E-1,1.972079754E0,1.830422521E0,3.260201931E0,4.227110336E0
8.790132490E-1,1.918171883E0,2.780148745E0,2.776291370E0,4.372231031E0
8.838115310E-1,2.149053097E0,2.859209299E0,2.328474522E0,4.267938686E0
8.886097600E-1,2.599856377E0,2.450164557E0,1.251262426E0,3.785263160E0
8.934080410E-1,3.389591217E0,1.207178235E0,1.094410419E-1,3.599803502E0
8.982063220E-1,3.930465698E0,2.825894356E-1,-2.400630713E-1,3.947916878E0
9.030045510E-1,4.485314369E0,-4.461998940E-1,-5.921089649E-2,4.507842640E0
9.078028330E-1,5.058667183E0,-1.255726814E0,9.069037437E-2,5.212982663E0
9.126011140E-1,6.135918617E0,-2.557164192E0,-1.484875679E-1,6.649107800E0
9.173993950E-1,6.833517075E0,-3.948678732E0,-8.234360218E-1,7.935179029E0
9.221976240E-1,6.646330833E0,-4.732716560E0,-1.643293142E0,8.323024206E0
9.269959060E-1,5.619336128E0,-5.309844971E0,-2.821837902E0,8.230076627E0
9.317941870E-1,4.533293724E0,-5.422320366E0,-3.616208553E0,7.939097835E0
9.365924160E-1,3.591791630E0,-5.375475883E0,-3.736485481E0,7.467130094E0
9.413906970E-1,2.600001812E0,-4.916758537E0,-3.707401276E0,6.684261227E0
9.461889780E-1,1.609120369E0,-4.170552731E0,-3.952282429E0,5.966851334E0
9.509872600E-1,7.808313370E-1,-3.870102882E0,-4.836745262E0,6.243516527E0
9.557854890E-1,-4.625196457E-1,-3.179219246E0,-5.165508270E0,6.083077768E0
9.605837700E-1,-1.143256187E0,-2.540490150E0,-5.853662491E0,6.482784083E0
9.653820510E-1,-2.356303215E0,-1.100488663E0,-6.629001141E0,7.120877492E0
9.701802810E-1,-3.331311226E0,1.232810497E0,-6.797219276E0,7.669396723E0
9.749785620E-1,-3.575364113E0,2.492284060E0,-6.061693192E0,7.465844408E0
9.797768430E-1,-3.334617615E0,3.220495462E0,-5.782566071E0,7.411432791E0
9.845750720E-1,-3.176552773E0,4.411170959E0,-5.380654335E0,7.648552662E0
9.893733530E-1,-3.840986252E0,1.789171576E0,-7.536679268E0,8.646146234E0
9.941716350E-1,-5.048273087E0,1.551382661E0,-7.594913960E0,9.250652267E0
9.989698640E-1,-5.349822998E0,2.815038919E0,-6.070394516E0,8.567073001E0
1.003768145E0,-5.955905914E0,2.497744322E0,-6.849361420E0,9.414100797E0
1.008566426E0,-6.353889465E0,2.244569778E0,-8.363856316E0,1.074076800E1
1.013364708E0,-4.975853920E0,2.086976290E0,-1.129544258E1,1.251805158E1
1.018162937E0,-2.138720512E0,1.523122191E0,-1.148459530E1,1.178091490E1
1.022961218E0,4.952058792E-1,4.733344316E-1,-8.802860260E0,8.829474679E0
1.027759447E0,2.966743946E0,-7.621798515E-1,-4.468917847E0,5.417906836E0
1.032557728E0,4.918644905E0,-2.641469240E0,4.879634380E-1,5.604331875E0
1.037356010E0,5.062690735E0,-4.670478344E0,4.741553783E0,8.362208902E0
1.042154291E0,4.328269958E0,-6.117084980E0,8.640489578E0,1.143725097E1
1.046952520E0,3.444637775E0,-7.007033348E0,9.993203163E0,1.268180410E1
1.051750801E0,3.045208931E0,-7.489231586E0,7.638642311E0,1.112253314E1
1.056549083E0,2.064444542E0,-7.585322380E0,4.631945610E0,9.124361184E0
1.061347312E0,8.126974106E-1,-7.174679279E0,2.992999554E0,7.816300031E0
1.066145593E0,-2.352523804E-1,-6.529762268E0,2.929278612E0,7.160573451E0
1.070943874E0,-9.238901138E-1,-6.027476311E0,3.821376562E0,7.196315894E0
1.075742103E0,-1.384505272E0,-5.282113075E0,4.634526730E0,7.162151311E0
1.080540385E0,-1.432884216E0,-4.415997028E0,5.059939861E0,6.867108440E0
1.085338666E0,-1.381756783E0,-3.449137688E0,5.279423714E0,6.455859148E0
1.090136947E0,-1.112144470E0,-2.510484695E0,5.462461472E0,6.113745501E0
1.094935176E0,-7.823333740E-1,-1.736896038E0,5.422587395E0,5.747460953E0
1.099733458E0,-1.532993317E-1,-1.617596149E0,4.823258400E0,5.089591298E0
1.104531739E0,4.241561890E-1,-2.189245701E0,2.873417616E0,3.637201398E0
1.109329968E0,7.558898926E-1,-2.942409515E0,1.305615187E0,3.306625818E0
1.114128249E0,9.047870636E-1,-3.571988583E0,1.936083317E0,4.162470501E0
1.118926531E0,1.010140419E0,-4.601967335E0,1.785030961E0,5.038335295E0
1.123724760E0,1.070140839E0,-5.670335293E0,9.909929037E-1,5.854909964E0
1.128523041E0,7.346229553E-1,-6.571769714E0,1.560816050E0,6.794407613E0
1.133321322E0,5.357961655E-1,-6.193025112E0,7.791467905E-1,6.264799062E0
1.138119551E0,1.605462074E0,-5.667068958E0,1.495618105E0,6.077010167E0
1.142917833E0,1.962001324E0,-6.222455978E0,1.145690560E0,6.624274636E0
1.147716114E0,2.518287659E0,-7.581721783E0,-1.888156652E0,8.209105522E0
1.152514395E0,2.151926994E0,-8.748572350E0,-4.749334812E0,1.018452204E1
1.157312624E0,1.511755943E0,-9.313636780E0,-7.012369156E0,1.175595837E1
1.162110906E0,8.083868027E-1,-9.478313446E0,-8.938750267E0,1.305347354E1
1.166909187E0,-6.278419495E-2,-9.876463890E0,-1.027714634E1,1.425370891E1
1.171707416E0,-4.837484360E-1,-1.154592037E1,-9.355364799E0,1.486825949E1
1.176505697E0,-4.182901382E-1,-1.348936653E1,-7.542515755E0,1.546051487E1
1.181303978E0,1.049232483E-2,-1.363714600E1,-6.067748547E0,1.492613257E1
1.186102208E0,6.319494247E-1,-1.253249645E1,-3.016267776E0,1.290583971E1
1.190900489E0,1.277126312E0,-1.189348698E1,1.349675655E-2,1.196186717E1
1.195698770E0,1.704228878E0,-1.152152157E1,3.731436729E-1,1.165285765E1
1.200496999E0,1.221876144E0,-1.162366295E1,-1.703463078E0,1.181119419E1
1.205295281E0,3.377676010E-1,-1.102525425E1,-3.214763880E0,1.148934398E1
1.210093562E0,-5.557832718E-1,-9.969411850E0,-3.998901367E0,1.075589512E1
1.214891791E0,-1.255099297E0,-8.525954247E0,-3.657233715E0,9.361758836E0
1.219690072E0,-1.685097694E0,-6.686085701E0,-2.643339872E0,7.384479800E0
1.224488353E0,-1.778120041E0,-5.145742893E0,-1.577529192E0,5.668243039E0
1.229286635E0,-1.700893402E0,-3.875039816E0,-1.030319214E0,4.355517148E0
1.234084864E0,-1.741226196E0,-3.098282814E0,-5.550441742E-1,3.597123726E0
1.238883145E0,-1.947808266E0,-2.566249847E0,-3.332810402E-1,3.238930622E0
1.243681426E0,-2.219720840E0,-2.279664755E0,-4.400672913E-1,3.212116316E0
1.248479656E0,-2.679207802E0,-2.335576773E0,-8.314559460E-1,3.650259210E0
1.253277937E0,-3.112166405E0,-2.263273239E0,-1.199016809E0,4.030586408E0
1.258076218E0,-3.431042671E0,-2.042894602E0,-1.422856808E0,4.239102931E0
1.262874447E0,-3.686245918E0,-1.741233110E0,-1.544726372E0,4.359642334E0
1.267672728E0,-3.546360970E0,-1.369582891E0,-1.335848570E0,4.029506772E0
1.272471010E0,-2.848806381E0,-1.071418285E0,-1.024933100E0,3.211560804E0
1.277269239E0,-1.851694107E0,-7.513587475E-1,-8.449645042E-1,2.169625785E0
1.282067520E0,-7.766847610E-1,-4.299798012E-1,-1.016157866E0,1.349332670E0
1.286865801E0,4.362010956E-2,-1.784892082E-1,-1.162209272E0,1.176644171E0
1.291664083E0,7.574272156E-1,1.960561275E-1,-1.364172459E0,1.572609452E0
1.296462312E0,1.402944565E0,4.494817257E-1,-1.434078455E0,2.055934894E0
1.301260593E0,1.996819973E0,5.296041965E-1,-1.552456141E0,2.584161504E0
1.306058874E0,2.317726612E0,4.016594887E-1,-1.186336756E0,2.634498414E0
1.310857103E0,2.581513405E0,3.742177486E-1,-8.133087158E-1,2.732347242E0
1.315655385E0,2.814919949E0,4.417536259E-1,-5.961878300E-1,2.911075491E0
1.320453666E0,3.049447536E0,4.151105881E-1,-2.205557823E-1,3.085464622E0
1.325251895E0,3.342663765E0,2.632510662E-1,2.121417522E-1,3.359718186E0
1.330050176E0,3.468163013E0,1.722402573E-1,5.604553223E-1,3.517375664E0
1.334848458E0,3.548373222E0,1.464157104E-1,7.550616264E-1,3.630772390E0
1.339646687E0,3.519503593E0,2.185912132E-1,9.553413391E-1,3.653404541E0
1.344444968E0,3.410939693E0,3.549242020E-1,1.148346901E0,3.616515089E0
1.349243249E0,3.271017551E0,4.787912369E-1,1.221120238E0,3.524192320E0
1.354041478E0,3.054978371E0,6.354484558E-1,1.277892590E0,3.371898138E0
1.358839760E0,2.858805180E0,8.294162750E-1,1.248780727E0,3.228025978E0
1.363638041E0,2.703998089E0,9.533367157E-1,1.190975189E0,3.104654322E0
1.368436270E0,2.533112049E0,1.014659882E0,1.195361495E0,2.979107321E0
1.373234551E0,2.357835293E0,1.006748557E0,1.233644366E0,2.845137668E0
1.378032833E0,2.201710224E0,9.849594831E-1,1.210935116E0,2.698895505E0
1.382831062E0,2.152461052E0,1.069042444E0,1.087663174E0,2.637982469E0
1.387629343E0,2.211773872E0,1.125212193E0,9.698591232E-1,2.664333474E0
1.392427624E0,2.278908730E0,1.139399648E0,9.414021969E-1,2.716228019E0
1.397225906E0,2.275230885E0,1.169008732E0,1.054136753E0,2.766669711E0
1.402024135E0,1.995973110E0,1.101345420E0,1.303048134E0,2.625796037E0
1.406822416E0,1.382417679E0,8.573149443E-1,1.480872512E0,2.199784296E0
1.411620697E0,1.771268845E0,9.574875832E-1,1.429757953E0,2.469490554E0
1.416418926E0,1.819042206E0,1.125503063E0,1.427452803E0,2.571632399E0
1.421217208E0,1.719985008E0,1.350518465E0,1.391226649E0,2.591864221E0
1.426015489E0,1.510250092E0,1.491577387E0,1.380933881E0,2.532318468E0
1.430813718E0,1.323560715E0,1.613468409E0,1.389518976E0,2.507160995E0
1.435611999E0,1.250076294E0,1.706978798E0,1.329317331E0,2.498710052E0
1.440410281E0,1.205518246E0,1.801637173E0,1.360727310E0,2.559443212E0
1.445208510E0,1.253792286E0,1.898375988E0,1.483704686E0,2.716101265E0
1.450006791E0,1.284711838E0,2.152836800E0,1.662097573E0,3.007949324E0
1.454805072E0,1.358158588E0,2.800897598E0,1.968715549E0,3.683132229E0
1.459603301E0,1.548143387E0,3.376762152E0,2.187312841E0,4.310870915E0
1.464401583E0,1.622913361E0,3.580333233E0,1.988943338E0,4.405511257E0
1.469199864E0,1.511476517E0,3.715701103E0,1.827480793E0,4.408024727E0
1.473998093E0,1.450869083E0,4.028598785E0,1.859218955E0,4.668117864E0
1.478796374E0,1.385828018E0,4.308520317E0,1.611910701E0,4.804385780E0
1.483594656E0,1.258702278E0,4.469513893E0,1.118758321E0,4.776243927E0
1.488392885E0,1.033308029E0,4.507421970E0,5.372674465E-1,4.655452138E0
1.493191166E0,7.546930313E-1,4.420599461E0,-1.044046879E-1,4.485773233E0
1.497989447E0,6.083116531E-1,4.317317009E0,-8.658986092E-1,4.445115254E0
1.502787728E0,3.666515350E-1,4.129446030E0,-1.530894041E0,4.419320584E0
1.507585958E0,7.771110535E-2,3.948620319E0,-2.161859035E0,4.502363372E0
1.512384239E0,-2.458314896E-1,3.785111189E0,-2.741896391E0,4.680330720E0
1.517182520E0,-3.500328064E-1,3.640207767E0,-3.191137075E0,4.853554511E0
1.521980749E0,-3.179807663E-1,3.524309635E0,-3.816328526E0,5.204443639E0
1.526779031E0,-3.467063904E-1,3.359842777E0,-4.449474335E0,5.586284155E0
1.531577312E0,-1.722145081E-1,3.047577620E0,-5.235518456E0,6.060366382E0
1.536375541E0,-2.092618942E-1,2.408375263E0,-6.185983181E0,6.641569834E0
1.541173822E0,-1.766967773E-2,1.899127483E0,-7.081883907E0,7.332126369E0
1.545972103E0,2.929363251E-1,1.454528332E0,-8.700997353E0,8.826597266E0
1.550770333E0,6.546182632E-1,1.394817114E0,-9.555935860E0,9.679356900E0
1.555568614E0,7.191667557E-1,1.295899630E0,-8.840584755E0,8.963955348E0
1.560366895E0,6.372098923E-1,-3.675967455E-2,-7.948852539E0,7.974436934E0
1.565165124E0,4.527645111E-1,-4.539586604E-1,-6.876446724E0,6.906272056E0
1.569963406E0,-2.924318314E-1,-1.046115160E0,-6.592766762E0,6.681650012E0
1.574761687E0,-1.419507027E0,-1.545166731E0,-5.556095600E0,5.939085682E0
1.579559916E0,-2.327721596E0,-1.959873080E0,-3.770400524E0,4.845132654E0
1.584358197E0,-2.878779411E0,-2.124278784E0,-1.977997303E0,4.088080794E0
1.589156478E0,-3.681886673E0,-2.581658125E0,-1.295288801E0,4.679639006E0
1.593954708E0,-4.388090134E0,-3.335358858E0,-3.537015915E-1,5.523138469E0
1.598752989E0,-4.801754951E0,-3.958066463E0,7.500951290E-1,6.267837222E0
1.603551270E0,-3.849307060E0,-4.162154198E0,2.170870304E0,6.070697677E0
1.608349499E0,-2.633337975E0,-4.881266594E0,2.896555185E0,6.257097122E0
1.613147781E0,-2.357084274E0,-5.837125301E0,2.840038776E0,6.906062432E0
1.617946062E0,-2.191801071E0,-6.187929630E0,3.027256727E0,7.229021257E0
1.622744291E0,-1.844735146E0,-6.170283318E0,3.553293228E0,7.355361088E0
1.627542572E0,-1.560526848E0,-6.170199394E0,3.875337601E0,7.451499589E0
1.632340853E0,-1.310267448E0,-6.576594353E0,4.251427650E0,7.939964177E0
1.637139135E0,-8.757648468E-1,-7.168821812E0,4.776572227E0,8.658788165E0
1.641937364E0,-1.013005257E0,-7.314030647E0,5.082952023E0,8.964241475E0
1.646735645E0,-1.216914177E0,-7.056738377E0,4.951718807E0,8.706202144E0
1.651533926E0,-1.218034744E0,-6.986987114E0,4.599621773E0,8.453290367E0
1.656332156E0,-1.203550339E0,-6.839566231E0,4.019067764E0,8.023783729E0
1.661130437E0,-1.206658363E0,-6.464804649E0,3.637154341E0,7.515225563E0
1.665928718E0,-1.272134781E0,-6.351891518E0,3.456481695E0,7.342487212E0
1.670726947E0,-8.788366318E-1,-6.980853081E0,3.075297594E0,7.678679499E0
1.675525228E0,-5.424032211E-1,-7.139529705E0,2.992075443E0,7.760128937E0
1.680323510E0,-1.615965843E0,-6.639860630E0,2.005005360E0,7.121737238E0
1.685121739E0,-2.459460258E0,-6.477209568E0,1.011269093E0,7.001846451E0
1.689920020E0,-2.441597939E0,-6.010145664E0,2.890806198E-1,6.493598309E0
1.694718301E0,-3.401676178E0,-4.858170509E0,-3.888509274E-1,5.943435586E0
1.699516583E0,-3.823810577E0,-4.368053913E0,-1.161200047E0,5.920287820E0
1.704314812E0,-3.340649605E0,-2.337953091E0,-1.242969513E0,4.262738280E0
1.709113093E0,-3.246974945E0,-2.614700794E0,-1.917191505E0,4.588586907E0
1.713911374E0,-3.233660698E0,-2.791356087E0,-2.517034531E0,4.958194544E0
1.718709603E0,-2.964906693E0,-1.833280444E0,-3.041066170E0,4.625977986E0
1.723507885E0,-9.657192230E-1,-1.724580646E0,-2.767297029E0,3.400694763E0
1.728306166E0,5.024433136E-2,-2.210853577E0,-2.641994715E0,3.445364147E0
1.733104395E0,9.563541412E-2,-2.154097557E0,-2.982257366E0,3.680100734E0
1.737902676E0,-2.700519562E-2,-1.423687577E0,-3.307853937E0,3.601321045E0
1.742700958E0,-3.341865540E-2,-6.488403082E-1,-3.458665848E0,3.519158990E0
1.747499187E0,3.186168671E-1,-1.908942461E-1,-3.266414404E0,3.287464126E0
1.752297468E0,8.123712540E-1,5.946099758E-2,-2.879920006E0,2.992895238E0
1.757095749E0,1.084398270E0,2.149080038E-1,-2.186355591E0,2.449950168E0
1.761893978E0,1.087646484E0,3.810039759E-1,-1.201167822E0,1.664614983E0
1.766692260E0,9.160814285E-1,5.462332964E-1,-3.148329258E-1,1.112068239E0
1.771490541E0,7.516345978E-1,5.489038229E-1,3.959405422E-1,1.011443962E0
1.776288770E0,9.401054382E-1,1.130691290E0,7.930612564E-1,1.670690631E0
1.781087051E0,1.149369240E0,6.052339077E-1,1.238372087E0,1.794693054E0
1.785885333E0,1.030678749E0,6.427050829E-1,1.363316417E0,1.825924467E0
1.790683562E0,6.343612671E-1,8.665286899E-1,1.147503018E0,1.571639069E0
1.795481843E0,8.081541061E-1,9.544911385E-1,1.141197562E0,1.693073616E0
1.800280124E0,7.730588913E-1,6.059137583E-1,1.175380468E0,1.531754150E0
1.805078353E0,9.285602570E-1,5.595690012E-1,1.279495120E0,1.677035891E0
1.809876635E0,1.424242973E0,5.568757057E-1,1.312047124E0,2.014955646E0
1.814674916E0,1.866797447E0,-1.637486696E0,8.191304207E-1,2.614817400E0
1.819473145E0,1.850905895E0,8.656081557E-1,7.688364983E-1,2.183171929E0
1.824271426E0,2.256734848E0,2.558332205E0,9.675178528E-1,3.545984580E0
1.829069708E0,2.508773327E0,1.591219306E0,1.325538039E0,3.253148257E0
1.833867937E0,2.070394516E0,5.130903721E-1,1.219538212E0,2.457044695E0
1.838666218E0,1.715917110E0,1.302217245E-1,8.423740864E-1,1.915965378E0
1.843464499E0,1.458816528E0,2.300674915E-1,3.336799145E-1,1.514073644E0
1.848262728E0,1.689435482E0,-1.379979849E0,4.877138138E-2,2.181952172E0
1.853061010E0,1.263379097E0,-9.629230499E-1,-6.045818329E-3,1.588516319E0
1.857859291E0,2.403135777E0,9.833106399E-1,8.541461229E-1,2.733409405E0
1.862657520E0,2.244214058E0,1.727332830E0,1.118026495E0,3.044693529E0
1.867455801E0,1.141629219E0,1.164721727E0,9.910594225E-1,1.908426775E0
1.872254083E0,4.721994400E-1,4.085612297E-1,4.922847748E-1,7.951345100E-1
1.877052364E0,6.164140701E-1,4.117391109E-1,-3.745818138E-2,7.422253813E-1
1.881850593E0,1.218956947E0,2.735402584E-1,-1.526198387E-1,1.258559942E0
1.886648874E0,1.254643440E0,1.597931385E-1,-4.249534607E-1,1.334259890E0
1.891447156E0,1.968111038E0,-9.996867180E-2,-4.938650131E-1,2.031589881E0
1.896245385E0,1.896094322E0,-3.510699272E-1,-9.975209236E-1,2.171053147E0
1.901043666E0,1.440950394E0,-4.006767273E-1,-1.690872908E0,2.257416901E0
1.905841947E0,1.887983322E0,1.062190056E0,-1.599530220E0,2.692809994E0
1.910640176E0,1.435596943E0,1.650151968E0,-2.042654037E0,2.992720437E0
1.915438458E0,5.137538910E-1,1.409423828E0,-2.310536861E0,2.754813819E0
1.920236739E0,-1.577148438E-1,1.642251849E0,-2.544611454E0,3.032641185E0
1.925034968E0,-4.356651306E-1,1.957189798E0,-2.497732162E0,3.202977048E0
1.929833249E0,-8.187417984E-1,2.406316996E0,-2.504472494E0,3.568344447E0
1.934631531E0,-9.717864990E-1,2.560755491E0,-2.528060675E0,3.727321888E0
1.939429760E0,-1.024035454E0,2.325260878E0,-2.492336512E0,3.559104950E0
1.944228041E0,-8.536195755E-1,2.521248341E0,-2.262341738E0,3.493357942E0
1.949026322E0,-8.718070984E-1,1.899084687E0,-2.374642372E0,3.163146639E0
1.953824551E0,-8.735656738E-1,1.803209305E0,-2.430211544E0,3.149699816E0
1.958622833E0,-1.174676895E0,1.052749753E0,-2.154114008E0,2.669897940E0
1.963421114E0,-9.991998672E-1,6.560451984E-1,-1.711623788E0,2.087690511E0
1.968219343E0,-8.456201553E-1,-4.452943802E-2,-1.607768536E0,1.817134002E0
1.973017624E0,-5.265913010E-1,-2.146288633E0,-2.067465782E0,3.026263051E0
1.977815906E0,-3.982696533E-1,-2.342197895E-1,-1.585180283E0,1.651143287E0
1.982614135E0,3.376789093E-1,7.195205688E-1,-9.731330872E-1,1.256473199E0
1.987412416E0,5.444641113E-1,1.361810327E0,2.645075321E-2,1.466856563E0
1.992210697E0,3.553371429E-1,1.228036880E-1,-8.208744526E-1,9.028732457E-1
1.997008926E0,5.356035233E-1,1.908493042E-1,-1.385876417E0,1.497981320E0
2.001807208E0,3.574028015E-1,2.826054096E-1,-5.661129951E-1,7.266956057E-1
2.006605489E0,1.973085403E-1,-4.253363609E-2,-7.145453691E-1,7.425057945E-1
2.011403718E0,2.681932449E-1,-3.312652111E-1,-1.113613605E0,1.192392351E0
2.016201999E0,5.817756653E-1,-4.191920757E-1,-1.432339311E0,1.601805488E0
2.021000281E0,8.871011734E-1,-3.212878704E-1,-1.631502032E0,1.884667947E0
2.025798510E0,1.131607056E0,-1.406204700E-1,-1.806583881E0,2.136364661E0
2.030596791E0,1.181872368E0,9.602594376E-2,-1.769232869E0,2.129842300E0
2.035395072E0,1.071967125E0,4.520299435E-1,-1.667751789E0,2.033430750E0
2.040193301E0,1.044073105E0,1.028056622E0,-1.073919415E0,1.816670575E0
2.044991583E0,8.065862656E-1,4.530795813E-1,-9.377715588E-1,1.317299513E0
2.049789864E0,4.357290268E-1,-1.019650936E0,-1.293156981E0,1.703467873E0
2.054588093E0,4.240198135E-1,-1.822892427E0,-1.082489729E0,2.162062353E0
2.059386374E0,6.159009933E-1,-1.936900139E0,-6.838109493E-1,2.144414511E0
2.064184656E0,7.742490768E-1,-1.961436033E0,-5.222389698E-1,2.172424104E0
2.068982885E0,7.555475235E-1,-2.088883877E0,-4.131269455E-1,2.259416249E0
2.073781166E0,7.083005905E-1,-2.163692236E0,-3.067743778E-1,2.297251475E0
2.078579447E0,5.206880569E-1,-2.162679672E0,-1.872501373E-1,2.232344514E0
2.083377676E0,6.418228149E-2,-2.248803854E0,-1.689126492E-1,2.256051777E0
2.088175958E0,-4.505472183E-1,-2.441397190E0,-7.659292221E-2,2.483803437E0
2.092974239E0,-1.090285301E0,-2.647440434E0,1.212724447E-1,2.865723276E0
2.097772468E0,-1.749981880E0,-2.835545778E0,3.106962442E-1,3.346533818E0
2.102570749E0,-2.250826836E0,-3.184449911E0,5.235519409E-1,3.934596462E0
2.107369031E0,-2.626706123E0,-3.364432096E0,8.629506826E-1,4.354729873E0
2.112167260E0,-2.767951012E0,-3.524132729E0,1.373567820E0,4.686976941E0
2.116965541E0,-2.730007172E0,-3.434097052E0,1.916144967E0,4.787230228E0
2.121763822E0,-2.520424843E0,-3.321311235E0,2.468562603E0,4.845353551E0
2.126562051E0,-2.282807350E0,-3.221356630E0,2.992154121E0,4.953921096E0
2.131360333E0,-1.733455658E0,-3.467479467E0,3.119717360E0,4.976034443E0
2.136158614E0,-1.231045723E0,-3.571455956E0,3.450324774E0,5.116200960E0
2.140956895E0,-7.895069122E-1,-3.466892481E0,3.681657076E0,5.118326236E0
2.145755124E0,-3.178482056E-1,-3.533951759E0,3.627309322E0,5.074171404E0
2.150553406E0,2.803802490E-4,-3.533727407E0,3.490082264E0,4.966679341E0
2.155351687E0,2.559547424E-1,-3.554419756E0,3.274639606E0,4.839698047E0
2.160149916E0,7.685556412E-1,-4.152837753E0,2.652649403E0,4.987312706E0
2.164948197E0,1.207984924E0,-3.798686504E0,2.180471659E0,4.543534240E0
2.169746478E0,1.340518951E0,-3.563540936E0,1.403643847E0,4.057835766E0
2.174544708E0,1.222126961E0,-3.392636299E0,4.315710068E-1,3.631780404E0
2.179342989E0,1.363023758E0,-2.583224773E0,-3.011412621E-1,2.936251020E0
2.184141270E0,1.028213501E0,-7.957460880E-1,-1.101424694E0,1.703986853E0
2.188939499E0,6.639757156E-1,-1.477820396E0,-2.255261660E0,2.776872707E0
2.193737781E0,7.247838974E-1,-2.162589073E0,-3.456887484E0,4.141518353E0
2.198536062E0,7.842397690E-1,-2.732363224E0,-4.272885323E0,5.132094093E0
2.203334291E0,1.097316742E0,-2.195978165E0,-4.850777149E0,5.436585609E0
2.208132572E0,6.543636322E-1,-3.567955971E0,-6.129229546E0,7.122215694E0
2.212930853E0,-5.806427002E-1,-3.611551046E0,-6.848074436E0,7.763798709E0
2.217729083E0,-7.740688324E-1,-2.417680502E0,-6.743971348E0,7.205935824E0
2.222527364E0,-8.865327835E-1,-1.667066097E0,-6.880789757E0,7.135146630E0
2.227325645E0,-1.088369370E0,-1.289691210E0,-6.790352821E0,6.996909513E0
2.232123874E0,-1.245326042E0,-8.530592918E-1,-6.109401703E0,6.293118168E0
2.236922156E0,-1.596164703E0,-9.304692745E-1,-5.683066368E0,5.975847904E0
2.241720437E0,-1.887548447E0,-1.077375412E0,-5.297805786E0,5.726283530E0
2.246518666E0,-2.126543045E0,-8.030462265E-1,-4.760491371E0,5.275352752E0
2.251316947E0,-2.081732750E0,-4.455821514E-1,-4.171848297E0,4.683638853E0
2.256115228E0,-2.095172882E0,-4.131200314E-1,-3.485431910E0,4.087621945E0
2.260913458E0,-1.936645508E0,-1.447947025E-1,-2.534489632E0,3.192992174E0
2.265711739E0,-1.725467682E0,-9.028434753E-2,-1.829681158E0,2.516569714E0
2.270510020E0,-1.535279274E0,-1.203677654E-1,-1.312392473E0,2.023349908E0
2.275308249E0,-1.021982193E0,9.075164795E-3,-7.541205883E-1,1.270129058E0
2.280106531E0,-4.655342102E-1,1.979768276E-1,-1.748704910E-1,5.352537845E-1
2.284904812E0,-9.488391876E-2,2.674210072E-1,3.262417316E-1,4.323778678E-1
2.289703041E0,3.080739975E-1,3.254506588E-1,7.290673256E-1,8.557843680E-1
2.294501322E0,7.652292252E-1,5.585620403E-1,1.164068222E0,1.500873794E0
2.299299603E0,1.221336365E0,2.012887001E-1,1.341980219E0,1.825675372E0
2.304097833E0,1.623871803E0,1.508035660E-1,1.478113413E0,2.201027172E0
2.308896114E0,1.950023174E0,1.096534729E-1,1.657243252E0,2.561458463E0
2.313694395E0,1.893131256E0,-5.893065929E-1,1.655695200E0,2.583128880E0
2.318492624E0,1.583566666E0,-1.776112318E0,1.614516497E0,2.875573311E0
2.323290906E0,2.233557224E0,-1.807041168E0,1.817107916E0,3.399420073E0
2.328089187E0,2.640890121E0,-1.373131990E0,1.737494230E0,3.446545850E0
2.332887416E0,3.104248047E0,-1.010033131E0,1.761261463E0,3.709253942E0
2.337685697E0,3.115279675E0,-7.870492935E-1,1.849483013E0,3.707425179E0
2.342483978E0,3.386443615E0,-6.346170902E-1,2.100143194E0,4.035014330E0
2.347282208E0,3.707319736E0,-6.309583187E-1,2.385745049E0,4.453549985E0
2.352080489E0,4.054925442E0,-3.098859787E-1,2.759392738E0,4.914539444E0
2.356878770E0,4.293330669E0,3.457975388E-2,3.010363102E0,5.243679052E0
2.361676999E0,4.667603970E0,6.907055378E-1,2.484829426E0,5.332727091E0
2.366475281E0,4.584739685E0,5.363447666E-1,2.347558260E0,5.178661359E0
2.371273562E0,4.642907143E0,1.066395402E0,2.132435083E0,5.219297393E0
2.376071791E0,4.390942574E0,6.337778568E-1,2.967278719E0,5.337302132E0
2.380870072E0,4.201854706E0,5.565543175E-1,2.939857244E0,5.158303626E0
2.385668353E0,4.095026016E0,4.835789204E-1,2.960946321E0,5.076444599E0
2.390466583E0,3.745588303E0,6.767330170E-1,2.703831434E0,4.668843940E0
2.395264864E0,3.248621941E0,4.858746529E-1,2.364095688E0,4.047044244E0
2.400063145E0,2.878585339E0,7.468581200E-1,2.112657547E0,3.647927153E0
2.404861374E0,2.561872482E0,9.447660446E-1,2.106356144E0,3.448551826E0
2.409659656E0,2.147267818E0,8.883404732E-1,1.880303383E0,2.989222088E0
2.414457937E0,1.013885975E0,-8.340287209E-2,1.411385536E0,1.739807444E0
2.419256166E0,8.280038834E-1,4.560463428E-1,1.594923735E0,1.854009282E0
2.424054447E0,1.078724861E0,9.398190975E-1,1.811876535E0,2.308636793E0
2.428852728E0,1.138006687E0,4.683058262E-1,1.833751440E0,2.208396230E0
2.433650958E0,1.358898640E0,1.253670096E0,1.269323587E0,2.242649458E0
2.438449239E0,1.383206844E0,2.004289627E0,1.108765602E0,2.675780119E0
2.443247468E0,1.437968254E0,2.362974167E0,1.358163118E0,3.081559130E0
2.448045749E0,1.191143036E0,2.536020756E0,1.290634155E0,3.084794892E0
2.452844031E0,9.687228203E-1,2.405659199E0,9.160695076E-1,2.750418773E0
2.457642260E0,7.084612846E-1,2.308412313E0,5.556726456E-1,2.477792746E0
2.462440541E0,2.908535004E-1,2.045433044E0,3.150501251E-1,2.089892026E0
2.467238822E0,-6.419086456E-2,1.857479572E0,1.067018509E-2,1.858619025E0
2.472037051E0,-3.454093933E-1,1.677159429E0,-3.347969055E-1,1.744780893E0
2.476835333E0,-5.224261284E-1,1.549427748E0,-7.608151436E-1,1.803467518E0
2.481633614E0,-5.814642906E-1,1.247086763E0,-1.094593525E0,1.758255130E0
2.486431843E0,-5.423011780E-1,1.064042568E0,-1.450116634E0,1.878593998E0
2.491230124E0,-4.157013893E-1,7.184729576E-1,-1.938068390E0,2.108345351E0
2.496028406E0,-3.577909470E-1,3.228182793E-1,-2.482866764E0,2.529200145E0
2.500826635E0,-3.733463287E-1,2.536511421E-2,-2.823892117E0,2.848578164E0
2.505624916E0,1.333808899E-2,3.233566284E-1,-2.649583340E0,2.669275049E0
2.510423197E0,4.006643295E-1,6.266665459E-1,-2.540097237E0,2.646759686E0
2.515221426E0,5.601143837E-1,8.495624065E-1,-2.503854752E0,2.702734360E0
2.520019708E0,5.763401985E-1,1.116280794E0,-2.754224777E0,3.027210756E0
2.524817989E0,2.080407143E-1,1.235371947E0,-3.540655613E0,3.755751184E0
2.529616218E0,-2.803192139E-1,1.018005371E0,-4.670948029E0,4.788806666E0
2.534414499E0,-5.817165375E-1,1.147500038E0,-5.525932789E0,5.673718680E0
2.539212728E0,-6.749897003E-1,1.152621150E0,-6.034502506E0,6.180563656E0
2.544011010E0,-6.096420288E-1,1.047746897E0,-6.201351166E0,6.318717690E0
2.548809291E0,-3.155708313E-1,1.060293913E0,-5.943275452E0,6.045356170E0
2.553607572E0,1.044178009E-1,1.040498018E0,-5.627622128E0,5.723955801E0
2.558405801E0,3.632440567E-1,1.065935373E0,-5.534219742E0,5.647632479E0
2.563204083E0,5.973806381E-1,1.061012387E0,-5.276350021E0,5.415023588E0
2.568002364E0,8.977351189E-1,1.339495301E0,-4.807195663E0,5.070434513E0
2.572800593E0,1.040720463E0,1.528317332E0,-4.078643322E0,4.478189846E0
2.577598874E0,9.767580032E-1,1.725570321E0,-3.748373508E0,4.240513305E0
2.582397103E0,7.562441826E-1,1.885549784E0,-3.624134541E0,4.154702687E0
2.587195385E0,3.914761543E-1,1.816617131E0,-3.518966675E0,3.979507236E0
2.591993666E0,7.321786880E-2,1.654488206E0,-3.593854427E0,3.957079949E0
2.596791895E0,-1.526327133E-1,1.109599948E0,-3.740136623E0,3.904245222E0
2.601590176E0,-4.908046722E-1,-1.166179180E-1,-3.651533604E0,3.686215759E0
2.606388458E0,-8.276319504E-1,-2.034167767E0,-3.556318283E0,4.179738374E0
2.611186687E0,-1.366536140E0,-3.943081617E0,-3.354321003E0,5.354137004E0
2.615984968E0,-1.787293434E0,-5.420746326E0,-2.903417110E0,6.403806639E0
2.620783249E0,-2.213767052E0,-5.897616386E0,-2.248984814E0,6.688839682E0
2.625581478E0,-2.620631218E0,-5.976547718E0,-1.496797085E0,6.695314191E0
2.630379760E0,-2.981787682E0,-6.016638279E0,-6.098103523E-1,6.742615414E0
2.635178041E0,-3.142155647E0,-6.162118435E0,3.012599945E-1,6.923554239E0
2.639976270E0,-3.043627739E0,-5.965047359E0,9.225034714E-1,6.759916602E0
2.644774551E0,-2.749097824E0,-5.747097492E0,1.210128307E0,6.484680328E0
2.649572833E0,-2.393828392E0,-5.014880180E0,1.238673210E0,5.693307379E0
2.654371062E0,-2.011988640E0,-4.074015617E0,1.413910151E0,4.758659838E0
2.659169343E0,-1.610494137E0,-2.938060999E0,1.805062532E0,3.805804060E0
2.663967624E0,-1.256059647E0,-2.043265581E0,2.015604496E0,3.132934975E0
2.668765853E0,-9.345316887E-1,-1.287175655E0,2.280703783E0,2.780607918E0
2.673564135E0,-6.794376373E-1,-8.983919621E-1,2.456943750E0,2.702834848E0
2.678362416E0,-6.048650742E-1,-5.917315483E-1,2.885230303E0,3.006752714E0
2.683160645E0,-6.121516228E-1,-4.220938683E-1,3.282710314E0,3.365869850E0
2.687958926E0,-6.436462402E-1,-5.889267921E-1,3.510128498E0,3.616920973E0
2.692757208E0,-6.798915863E-1,-8.210034370E-1,3.722191811E0,3.871822709E0
2.697555437E0,-6.104784012E-1,-1.005362511E0,4.070681572E0,4.237202629E0
2.702353718E0,-8.352327347E-1,-2.038938284E0,4.008813858E0,4.574436752E0
2.707151999E0,-1.352850914E0,-3.409050941E0,3.408333778E0,5.006852610E0
2.711950228E0,-1.507119179E0,-4.298240185E0,3.053038359E0,5.483367590E0
2.716748510E0,-1.230058670E0,-4.601846218E0,2.771295786E0,5.510908571E0
2.721546791E0,-8.781194687E-1,-4.535777092E0,2.672495842E0,5.337284108E0
2.726345020E0,-7.787685394E-1,-4.593077183E0,2.524967194E0,5.298895901E0
2.731143301E0,-3.528881073E-1,-4.146874428E0,1.963243008E0,4.601675852E0
2.735941531E0,-3.389625549E-1,-3.424450874E0,2.411145687E0,4.201830902E0
2.740739812E0,-5.654563904E-1,-3.184301615E0,2.296135902E0,3.966327998E0
2.745538093E0,-7.369832993E-1,-3.082446814E0,1.973734617E0,3.733664565E0
2.750336322E0,-9.916658401E-1,-2.875643015E0,1.697042227E0,3.483199134E0
2.755139499E0,-1.133513451E0,-2.576379776E0,1.375431299E0,3.132793761E0
2.759932885E0,-1.162270546E0,-2.318735361E0,1.189894676E0,2.853639052E0
2.764731114E0,-1.213794708E0,-2.117266178E0,1.063149929E0,2.662029571E0
2.769529395E0,-1.206741333E0,-1.893312216E0,8.995451927E-1,2.418685045E0
2.774327676E0,-1.167538643E0,-1.737610817E0,7.708401680E-1,2.230836704E0
2.779125906E0,-1.141612053E0,-1.640379429E0,6.840457916E-1,2.112354467E0
2.783924187E0,-1.016889572E0,-1.553745031E0,4.674458504E-1,1.914861261E0
2.788722468E0,-1.002718925E0,-1.578706741E0,6.598496437E-1,1.983220051E0
2.793520697E0,-5.435800552E-1,-1.460817099E0,4.855947495E-1,1.632564894E0
2.798318978E0,-2.696752548E-1,-1.053533554E0,3.718233109E-1,1.149308604E0
2.803117260E0,-1.345691681E-1,-8.139686584E-1,4.010915756E-1,9.173485106E-1
2.807915489E0,1.510944366E-1,-7.181859016E-1,3.008279800E-1,7.931695857E-1
2.812713770E0,4.027266502E-1,-6.727888584E-1,1.363935471E-1,7.958874308E-1
2.817512051E0,6.276082993E-1,-6.273148060E-1,2.277860641E-1,9.161345611E-1
2.822310281E0,8.237423897E-1,-5.097939968E-1,4.353132248E-1,1.062044748E0
2.827108562E0,1.031577110E0,-7.999014854E-1,5.247063637E-1,1.406879700E0
2.831906791E0,1.265159130E0,-3.819086552E-1,4.514789581E-1,1.396536822E0
2.836705072E0,1.533999443E0,1.522524357E-1,3.834991455E-1,1.588523431E0
2.841503353E0,1.718374252E0,2.840647697E-1,3.999295235E-1,1.787021681E0
2.846301583E0,1.856527328E0,2.079753876E-1,4.194688797E-1,1.914654440E0
2.851099864E0,1.939302921E0,2.659029961E-1,6.494345665E-1,2.062368900E0
2.855898145E0,2.064554691E0,4.955790043E-1,6.647043228E-1,2.224818298E0
2.860696374E0,2.270381451E0,4.857320786E-1,6.831655502E-1,2.420182380E0
2.865494656E0,2.358434200E0,5.329120159E-1,8.003091812E-1,2.546900446E0
2.870292937E0,2.412528992E0,5.556087494E-1,8.751211166E-1,2.625801627E0
2.875091166E0,2.461377144E0,5.517435074E-1,1.060433388E0,2.736296276E0
2.879889447E0,2.593432426E0,5.931258202E-1,1.200644732E0,2.918773331E0
2.884687728E0,2.643556118E0,5.604684353E-1,1.219551802E0,2.964763129E0
2.889485958E0,2.654974461E0,4.995028973E-1,1.322536707E0,3.007905562E0
2.894284239E0,2.630377769E0,4.941012859E-1,1.494631529E0,3.065443964E0
2.899082520E0,2.632037163E0,4.033567905E-1,1.584991455E0,3.098792384E0
2.903880749E0,2.593165874E0,3.494663239E-1,1.684182405E0,3.111769005E0
2.908679031E0,2.490078449E0,2.369940281E-1,1.837255716E0,3.103573009E0
2.913477260E0,2.423507690E0,1.471755505E-1,1.866907120E0,3.062742621E0
2.918275541E0,1.988419533E0,-2.479786873E-1,2.218519449E0,2.989504008E0
2.923073822E0,2.468206406E0,1.001708508E-1,1.903262615E0,3.118410756E0
2.927872051E0,2.082180023E0,3.164582253E-1,2.268477440E0,3.095417476E0
2.932670333E0,1.879072189E0,2.955970764E-1,2.353666067E0,3.026224360E0
2.937468614E0,1.695892334E0,2.814447880E-1,2.260110140E0,2.839605575E0
2.942266843E0,1.455885887E0,2.904503345E-1,2.177401066E0,2.635344477E0
2.947065124E0,1.254670143E0,4.058146477E-1,2.129637957E0,2.504843413E0
2.951863406E0,1.037020683E0,5.365600586E-1,2.043068409E0,2.353175964E0
2.956661635E0,7.931509018E-1,7.039151192E-1,1.903979063E0,2.179385491E0
2.961459916E0,5.586953163E-1,9.122997522E-1,1.732135534E0,2.035859721E0
2.966258145E0,4.122676849E-1,8.729219437E-1,1.554041624E0,1.829481548E0
2.971056426E0,1.769084930E-1,1.233075380E0,1.408269882E0,1.880158389E0
2.975854708E0,5.608463287E-2,1.530460835E0,1.189535618E0,1.939188190E0
2.980652937E0,-1.150102615E-1,1.860413074E0,9.861617088E-1,2.108762453E0
2.985451218E0,-2.525587082E-1,1.967496991E0,8.503420353E-1,2.158219611E0
2.990249499E0,-4.280824661E-1,2.028851748E0,7.362282276E-1,2.200346794E0
2.995047728E0,-5.936737061E-1,2.104149818E0,5.481853485E-1,2.253974735E0
2.999846010E0,-7.135171890E-1,2.222020626E0,3.412857056E-1,2.358592456E0
3.004644239E0,-7.305755615E-1,2.036317348E0,1.826686859E-1,2.171104982E0
3.009442520E0,-8.099174500E-1,2.101435900E0,4.150438309E-2,2.252492337E0
3.014240801E0,-8.174419403E-1,2.604736567E0,-5.338001251E-2,2.730515214E0
3.019039083E0,-7.415313721E-1,2.477607489E0,-1.852674484E-1,2.592823108E0
3.023837312E0,-7.259244919E-1,2.294599533E0,-2.127685547E-1,2.416076125E0
3.028635593E0,-5.748043060E-1,2.211133242E0,-2.313041687E-1,2.296303948E0
3.033433874E0,-4.503393173E-1,2.099968910E0,-2.653899193E-1,2.164048690E0
3.038232103E0,-4.048957825E-1,1.554929733E0,-2.459354401E-1,1.625494174E0
3.043030385E0,9.037590027E-2,2.088561535E0,-3.862485886E-1,2.125898648E0
3.047828614E0,-3.670883179E-2,2.203508615E0,-5.985593796E-2,2.204627064E0
3.052626895E0,-9.900856018E-2,2.119579315E0,-2.451395988E-1,2.136003884E0
3.057425176E0,-4.399490356E-2,1.896382809E0,-3.415155411E-1,1.927391028E0
3.062223406E0,-8.222961426E-2,1.670068979E0,-4.490709305E-1,1.731345374E0
3.067021687E0,-6.539344788E-2,1.469398379E0,-4.819259644E-1,1.547792149E0
3.071819968E0,-1.295881271E-1,1.315764785E0,-5.431795120E-1,1.429361408E0
3.076618197E0,-2.172069550E-1,1.254510641E0,-6.258959770E-1,1.418704192E0
3.081416478E0,-3.353614807E-1,1.175669909E0,-7.563967705E-1,1.437638039E0
3.086214708E0,-4.814062119E-1,1.093495011E0,-8.513116837E-1,1.467042898E0
3.091012989E0,-6.862478256E-1,1.053396583E0,-9.276237488E-1,1.562391199E0
3.095811270E0,-9.138660431E-1,1.033677459E0,-1.069082737E0,1.745444967E0
3.100609499E0,-1.159525871E0,1.012774944E0,-1.237213612E0,1.975072367E0
3.105407781E0,-1.387547493E0,1.017088652E0,-1.405439377E0,2.221489863E0
3.110206062E0,-1.550229073E0,1.006039858E0,-1.475770950E0,2.365000269E0
3.115004291E0,-1.705108643E0,9.223808050E-1,-1.558124542E0,2.487153779E0
3.119802572E0,-1.771072388E0,8.404204845E-1,-1.528147697E0,2.485606441E0
3.124600853E0,-1.817636490E0,7.819666862E-1,-1.493537426E0,2.479098294E0
3.129399083E0,-1.835510254E0,7.709354162E-1,-1.446742535E0,2.460996398E0
3.134197364E0,-1.903849602E0,6.974247694E-1,-1.437505245E0,2.485450853E0
3.138995645E0,-1.905696869E0,6.427267790E-1,-1.400902271E0,2.450980506E0
3.143793874E0,-1.872379303E0,5.517504215E-1,-1.413069248E0,2.409771251E0
3.148592156E0,-1.885087013E0,4.865860939E-1,-1.368937016E0,2.379980594E0
3.153390385E0,-1.874268532E0,4.425032139E-1,-1.252274036E0,2.297146466E0
3.158188666E0,-1.951915741E0,3.763642311E-1,-1.207104683E0,2.325666960E0
3.162986947E0,-2.120060921E0,2.090346813E-1,-1.154709816E0,2.423160862E0
3.167785176E0,-2.366625786E0,-1.436700821E-1,-1.221351147E0,2.667069052E0
3.172583458E0,-2.658338547E0,-5.889940262E-1,-1.272162437E0,3.005341089E0
3.177381687E0,-2.876055717E0,-1.095921040E0,-1.272967815E0,3.330643553E0
3.182179968E0,-3.029630661E0,-1.485122442E0,-1.111275196E0,3.552348965E0
3.186978249E0,-3.126435280E0,-1.779840708E0,-8.091163635E-1,3.687424548E0
3.191776478E0,-3.119105339E0,-2.007829189E0,-5.386943817E-1,3.748384693E0
3.196574760E0,-3.163315773E0,-2.111112833E0,-2.784557343E-1,3.813253423E0
3.201373041E0,-3.177923203E0,-2.263588428E0,-1.171016693E-2,3.901687530E0
3.206171270E0,-3.170059204E0,-2.462492704E0,3.424620628E-1,4.028700279E0
3.210969551E0,-3.130208969E0,-2.625998735E0,6.188421249E-1,4.132437915E0
3.215767833E0,-3.062978745E0,-2.818448067E0,9.412972927E-1,4.267496794E0
3.220566062E0,-2.934948921E0,-2.889258385E0,1.207000017E0,4.291688272E0
3.225364343E0,-2.774644852E0,-2.846019745E0,1.556706905E0,4.268702242E0
3.230162572E0,-2.574320793E0,-2.631964684E0,1.927275419E0,4.155569297E0
3.234960853E0,-2.350305557E0,-2.400612116E0,2.301333904E0,4.072224513E0
3.239759135E0,-2.059791565E0,-2.273972750E0,2.423589230E0,3.909920474E0
3.244557364E0,-1.850868225E0,-2.147132635E0,2.509379148E0,3.785878425E0
3.249355645E0,-1.682987213E0,-2.156011581E0,2.523136377E0,3.721162329E0
3.254153926E0,-1.514564514E0,-2.293287277E0,2.821845770E0,3.939020913E0
3.258952156E0,-1.223351479E0,-2.454023123E0,2.926758766E0,4.010577914E0
3.263750437E0,-1.015005112E0,-2.609393358E0,2.964763165E0,4.077865826E0
3.268548718E0,-8.057184219E-1,-2.775907755E0,2.942953348E0,4.125023691E0
3.273346947E0,-5.715951920E-1,-2.886793852E0,2.873445988E0,4.113027067E0
3.278145228E0,-3.127298355E-1,-3.085705757E0,2.677661180E0,4.097468654E0
3.282943458E0,-6.743812561E-2,-3.353102922E0,2.525402546E0,4.198274065E0
3.287741739E0,1.975145340E-1,-3.657393217E0,2.309309721E0,4.329947866E0
3.292540020E0,4.819898605E-1,-3.971679688E0,2.120230436E0,4.527905793E0
3.297338249E0,8.001713753E-1,-4.225902557E0,1.950859547E0,4.722751277E0
3.302136531E0,1.051465511E0,-4.512710571E0,1.746276140E0,4.951728666E0
3.306934812E0,1.288609505E0,-4.786208630E0,1.563556671E0,5.197404830E0
3.311733041E0,1.473385811E0,-5.038882256E0,1.419242620E0,5.438331523E0
3.316531322E0,1.713188171E0,-5.191637039E0,1.098434925E0,5.576259332E0
3.321329551E0,1.934029579E0,-5.158843994E0,8.974537849E-1,5.582075337E0
3.326127833E0,2.023565292E0,-5.015049934E0,5.964660645E-1,5.440708971E0
3.330926114E0,2.072722912E0,-4.839578629E0,2.842011452E-1,5.272425615E0
3.335724343E0,2.141051292E0,-4.558808327E0,-1.391453743E-1,5.038471537E0
3.340522624E0,2.146874428E0,-4.237721443E0,-5.913758278E-1,4.787178523E0
3.345320906E0,2.140483379E0,-3.781286240E0,-9.552364349E-1,4.448850567E0
3.350119135E0,1.942486286E0,-3.003743649E0,-1.352189541E0,3.824152904E0
3.354917416E0,1.710445881E0,-2.312324286E0,-1.829016209E0,3.408484855E0
3.359715697E0,1.647011280E0,-2.008002758E0,-2.291532516E0,3.463501481E0
3.364513926E0,1.658483982E0,-1.806016922E0,-2.679488659E0,3.632069068E0
3.369312208E0,1.654119968E0,-1.463000774E0,-2.844875336E0,3.601360828E0
3.374110489E0,1.672112942E0,-1.032094479E0,-3.060099125E0,3.636672567E0
3.378908718E0,1.580520630E0,-4.733738899E-1,-3.376493931E0,3.758036664E0
3.383706999E0,1.611123085E0,-4.565668106E-2,-3.673863411E0,4.011866709E0
3.388505228E0,1.494369507E0,1.935248375E-1,-3.601881027E0,3.904374344E0
3.393303510E0,1.436307907E0,4.541711807E-1,-3.543686867E0,3.850580278E0
3.398101791E0,1.363107681E0,8.429768085E-1,-3.458764553E0,3.812049932E0
3.402900020E0,1.117270470E0,1.122631907E0,-3.335191727E0,3.692167325E0
3.407698301E0,9.690918922E-1,1.302553296E0,-3.237452507E0,3.621723750E0
3.412496531E0,1.016674519E0,1.382750511E0,-2.979529858E0,3.438491563E0
3.417294812E0,1.011353493E0,1.453889847E0,-2.793481350E0,3.307592724E0
3.422093093E0,1.103915691E0,1.544809222E0,-2.502783775E0,3.141495187E0
3.426891322E0,1.208837986E0,1.567371249E0,-2.025191307E0,2.831844229E0
3.431689603E0,1.283615589E0,1.558183670E0,-1.402815342E0,2.458352337E0
3.436487885E0,1.466756821E0,1.486530900E0,-1.096973419E0,2.358919323E0
3.441286114E0,1.643371105E0,1.293206573E0,-7.155060768E-1,2.210203786E0
3.446084395E0,1.804099083E0,1.029275775E0,-2.352976799E-1,2.090346172E0
3.450882676E0,2.028108120E0,8.531256914E-1,2.256789207E-1,2.211781401E0
3.455680906E0,2.217493057E0,7.171936035E-1,6.192631721E-1,2.411457858E0
3.460479187E0,2.350946903E0,5.908216238E-1,1.012010098E0,2.626820506E0
3.465277416E0,2.483557224E0,4.695286751E-1,1.379819393E0,2.879655400E0
3.470075697E0,2.684445858E0,3.176846504E-1,1.624955654E0,3.153990168E0
3.474873978E0,2.862633228E0,2.071361542E-1,1.807417870E0,3.391803907E0
3.479672208E0,2.987250328E0,1.522278786E-1,2.029762745E0,3.614799393E0
3.484470489E0,3.051384449E0,1.504724026E-1,2.208031178E0,3.769481487E0
3.489268718E0,3.088528156E0,1.683120728E-1,2.316084385E0,3.864140526E0
3.494066999E0,3.053251266E0,2.295162678E-1,2.380444765E0,3.878342209E0
3.498865281E0,2.986123562E0,2.623667717E-1,2.425284624E0,3.855875485E0
3.503663510E0,2.925232887E0,3.002655506E-1,2.412721157E0,3.803731093E0
3.508461791E0,2.884713173E0,3.263127804E-1,2.362318277E0,3.742806135E0
3.513260072E0,2.861887455E0,3.142876625E-1,2.303175688E0,3.686976375E0
3.518058301E0,2.770495415E0,3.024754524E-1,2.288201094E0,3.605967344E0
3.522856583E0,2.667833328E0,3.720548153E-1,2.253067255E0,3.511704929E0
3.527654864E0,2.546594620E0,4.319764376E-1,2.207665443E0,3.397872056E0
3.532453093E0,2.435353279E0,4.748892784E-1,2.130789757E0,3.270585637E0
3.537251374E0,2.333983898E0,4.840745926E-1,2.077627420E0,3.162015931E0
3.542049603E0,2.204127789E0,5.382128954E-1,2.029318571E0,3.044008261E0
3.546847885E0,2.067205429E0,6.013351679E-1,1.940687418E0,2.898484074E0
3.551646166E0,1.925422668E0,6.018067598E-1,1.883770704E0,2.760075342E0
3.556444395E0,1.773932457E0,5.993810892E-1,1.851525784E0,2.633294852E0
3.561242676E0,1.624719143E0,5.534385443E-1,1.812819004E0,2.496461347E0
3.566040906E0,1.501627445E0,5.405036211E-1,1.755800247E0,2.372733372E0
3.570839187E0,1.376110077E0,5.318342447E-1,1.739967823E0,2.281230947E0
3.575637468E0,1.253018379E0,4.509373903E-1,1.724534750E0,2.178857428E0
3.580435697E0,1.182518959E0,3.889009953E-1,1.675975323E0,2.087699297E0
3.585233978E0,1.119161606E0,2.933651209E-1,1.610912561E0,1.983336854E0
3.590032260E0,1.058160305E0,1.478908062E-1,1.550752163E0,1.883190695E0
3.594830489E0,9.899172783E-1,7.503271103E-3,1.411918163E0,1.724385519E0
3.599628770E0,9.000377655E-1,-1.825408936E-1,1.249495029E0,1.550685973E0
3.604426999E0,8.912839890E-1,-3.596515656E-1,1.068150997E0,1.436900466E0
3.609225281E0,8.823122978E-1,-5.616772175E-1,8.916020393E-1,1.374376398E0
3.614023562E0,8.348832130E-1,-7.906408310E-1,6.886401176E-1,1.340286579E0
3.618821791E0,7.728285789E-1,-1.110628128E0,4.617137909E-1,1.429663763E0
3.623620072E0,7.511234283E-1,-1.437643290E0,2.274937630E-1,1.637912710E0
3.628418301E0,7.650856972E-1,-1.652249575E0,1.202726364E-2,1.820832072E0
3.633216583E0,7.718749046E-1,-1.764001608E0,-2.138667107E-1,1.937325866E0
3.638014864E0,7.479739189E-1,-1.758787155E0,-4.102025032E-1,1.954754034E0
3.642813093E0,6.438255310E-1,-1.679991484E0,-5.804309845E-1,1.890445140E0
3.647611374E0,4.408283234E-1,-1.546780586E0,-7.397704124E-1,1.770344615E0
3.652409656E0,2.254095078E-1,-1.400296926E0,-1.051104546E0,1.765350304E0
3.657207885E0,-3.322410583E-2,-1.116719723E0,-1.376017094E0,1.772453052E0
3.662006166E0,-3.017511368E-1,-7.971000671E-1,-1.874108315E0,2.058811366E0
3.666804395E0,-5.852460861E-1,-4.494814873E-1,-2.431936741E0,2.541429303E0
3.671602676E0,-7.364873886E-1,-1.697826385E-1,-3.135890484E0,3.225685810E0
3.676400958E0,-8.619632721E-1,-2.753949165E-2,-4.014368057E0,4.105957867E0
3.681199187E0,-8.145093918E-1,8.504295349E-2,-4.974375725E0,5.041336301E0
3.685997468E0,-6.686906815E-1,7.512354851E-2,-5.754855633E0,5.794061971E0
3.690795749E0,-5.436353683E-1,3.706954718E-1,-6.230306149E0,6.264955646E0
3.695593978E0,-5.960845947E-1,6.486207247E-1,-6.324087620E0,6.385147603E0
3.700392260E0,-7.105970383E-1,9.229395390E-1,-6.436628819E0,6.541173908E0
3.705190489E0,-9.204893112E-1,8.913978338E-1,-6.526769161E0,6.651361241E0
3.709988770E0,-1.088098526E0,7.080322504E-1,-6.727578163E0,6.851684173E0
3.714787051E0,-1.310588837E0,3.785991669E-1,-6.771903515E0,6.907941636E0
3.719585281E0,-1.435925484E0,-3.816814423E-1,-6.440042019E0,6.609213563E0
3.724383562E0,-1.227915764E0,-1.532681465E0,-5.620342731E0,5.953582284E0
3.729181843E0,-1.207698822E0,-2.823214293E0,-4.831387520E0,5.724629311E0
3.733980072E0,-1.548895836E0,-3.467503071E0,-4.127971649E0,5.609171578E0
3.738778353E0,-2.113981247E0,-3.630176067E0,-3.529127598E0,5.486514066E0
3.743576583E0,-2.650377274E0,-3.664523840E0,-2.877994537E0,5.360605117E0
3.748374864E0,-3.111297607E0,-4.037809372E0,-2.127981186E0,5.523801341E0
3.753173145E0,-3.414641380E0,-4.722946167E0,-1.524995804E0,6.024251692E0
3.757971374E0,-3.502841949E0,-5.447160721E0,-1.067189693E0,6.563562713E0
3.762769656E0,-3.373684883E0,-5.921292782E0,-7.353792191E-1,6.854505124E0
3.767567937E0,-3.042021751E0,-5.993061066E0,-4.331374168E-1,6.734855997E0
3.772366166E0,-2.601725578E0,-5.890527725E0,-1.832413673E-1,6.442116909E0
3.777164447E0,-1.967243195E0,-5.297292709E0,6.098270416E-3,5.650786938E0
3.781962676E0,-1.392967224E0,-4.678492546E0,2.063846588E-1,4.885820793E0
3.786760958E0,-1.057220459E0,-4.130290985E0,2.872488499E-1,4.273117202E0
3.791559239E0,-4.045791626E-1,-3.633441210E0,8.544223309E-1,3.754412983E0
3.796357468E0,2.878770828E-1,-2.936782360E0,1.363630295E0,3.250700144E0
3.801155749E0,8.985133171E-1,-2.635791779E0,1.716445923E0,3.271224708E0
3.805953978E0,1.477306843E0,-2.421749353E0,1.710611820E0,3.312627090E0
3.810752260E0,1.919012070E0,-2.339679956E0,1.729097366E0,3.485181104E0
3.815550541E0,2.350307465E0,-2.193451643E0,1.678992271E0,3.626870598E0
3.820348770E0,2.668156624E0,-2.197633266E0,1.711248875E0,3.857074598E0
3.825147051E0,2.848954201E0,-2.258505344E0,1.779885054E0,4.047885526E0
3.829945333E0,2.926888466E0,-2.459471941E0,1.957689762E0,4.295139989E0
3.834743562E0,2.962204933E0,-2.535103798E0,1.894845009E0,4.334956394E0
3.839541843E0,2.919565678E0,-2.612496853E0,1.908672571E0,4.357985146E0
3.844340072E0,2.791995525E0,-2.859014750E0,1.822049141E0,4.391932083E0
3.849138353E0,2.627146244E0,-3.190427303E0,1.580436468E0,4.424760242E0
3.853936635E0,2.453608036E0,-3.494230032E0,1.322864056E0,4.469877540E0
3.858734864E0,2.194768906E0,-3.696169138E0,1.044756413E0,4.423821064E0
3.863533145E0,1.867534161E0,-3.920650005E0,9.108645916E-1,4.437212482E0
3.868331374E0,1.536596775E0,-4.225026131E0,7.487430573E-1,4.557695867E0
3.873129656E0,1.058905602E0,-4.499325275E0,7.918939590E-1,4.689595404E0
3.877927937E0,6.379289627E-1,-4.674458027E0,6.550085545E-1,4.763039724E0
3.882726166E0,2.567729950E-1,-4.913017273E0,6.036851406E-1,4.956622524E0
3.887524447E0,-1.181125641E-1,-5.159913063E0,4.585702419E-1,5.181596285E0
3.892322676E0,-4.272003174E-1,-5.333849907E0,2.727205753E-1,5.357875647E0
3.897120958E0,-5.918626785E-1,-5.456529617E0,2.042319775E-1,5.492333529E0
3.901919239E0,-6.149978638E-1,-5.477746010E0,4.566931725E-2,5.512350624E0
3.906717468E0,-5.901622772E-1,-5.261446953E0,1.020336151E-2,5.294451781E0
3.911515749E0,-5.723094940E-1,-5.015962124E0,7.840919495E-2,5.049114990E0
3.916314031E0,-4.968338013E-1,-4.602993011E0,1.162631512E-1,4.631188358E0
3.921112260E0,-4.092702866E-1,-4.252498627E0,1.408090591E-1,4.274467678E0
3.925910541E0,-3.073196411E-1,-3.998043537E0,1.881618500E-1,4.014249914E0
3.930708770E0,-1.934833527E-1,-3.813474178E0,2.204215527E-1,3.824736171E0
3.935507051E0,-1.127538681E-1,-3.238472223E0,4.140093327E-1,3.266775092E0
3.940305333E0,4.040622711E-2,-2.787725687E0,5.864431858E-1,2.849028392E0
3.945103562E0,1.989660263E-1,-2.451982975E0,6.902673244E-1,2.555049308E0
3.949901843E0,2.812929153E-1,-2.155005932E0,6.670172215E-1,2.273342967E0
3.954700072E0,3.924140930E-1,-1.818233490E0,7.280075550E-1,1.997487633E0
3.959498353E0,5.416507721E-1,-1.444609880E0,8.430249691E-1,1.758116709E0
3.964296635E0,7.022857666E-1,-1.162994146E0,8.743546009E-1,1.615628872E0
3.969094864E0,7.975625992E-1,-1.216509819E0,9.874756336E-1,1.758155387E0
3.973893145E0,9.395427704E-1,-1.164438963E0,1.025227070E0,1.813766595E0
3.978691426E0,1.041851997E0,-1.247497797E0,1.050210238E0,1.935109268E0
3.983489656E0,1.166347504E0,-1.443107843E0,9.816052914E-1,2.099160712E0
3.988287937E0,1.176868439E0,-1.380313873E0,1.156092763E0,2.151008179E0
3.993086218E0,1.234172344E0,-1.219698668E0,1.273370028E0,2.152281915E0
3.997884447E0,1.350140572E0,-1.207122564E0,1.230535746E0,2.189575911E0
4.002682728E0,1.491034985E0,-1.341997385E0,1.121385336E0,2.298183495E0
4.007480958E0,1.587585926E0,-1.480344296E0,1.220385432E0,2.490218647E0
4.012279239E0,1.692588329E0,-1.569348812E0,1.211180568E0,2.606658649E0
4.017077520E0,1.810949802E0,-1.596619368E0,1.293864489E0,2.739127216E0
4.021875749E0,1.866197109E0,-1.678945780E0,1.224223733E0,2.792897121E0
4.026674031E0,1.858402729E0,-1.880567312E0,1.136140704E0,2.877674377E0
4.031472260E0,1.864040852E0,-1.911981583E0,1.082327008E0,2.881276388E0
4.036270541E0,1.883104324E0,-2.026493788E0,1.069690585E0,2.965973182E0
4.041068822E0,1.827304363E0,-2.020757437E0,1.021121621E0,2.909500167E0
4.045867051E0,1.766228676E0,-2.014272690E0,1.076906085E0,2.887314482E0
4.050665333E0,1.704648972E0,-2.014316320E0,9.884499311E-1,2.817859404E0
4.055463562E0,1.694372654E0,-2.087754011E0,5.169675350E-1,2.738041441E0
4.060261843E0,1.424049854E0,-2.295042753E0,7.170941830E-1,2.794523804E0
4.065060124E0,1.143095016E0,-2.387809992E0,9.890092611E-1,2.826029386E0
4.069858353E0,1.065112114E0,-2.227641106E0,1.112234473E0,2.708120055E0
4.074656635E0,9.533586502E-1,-1.960973978E0,9.363044500E-1,2.372968116E0
4.079454864E0,8.578405380E-1,-1.935015440E0,8.594791889E-1,2.284486730E0
4.084253145E0,7.570600510E-1,-1.944366217E0,9.488133192E-1,2.292148909E0
4.089051426E0,7.350740433E-1,-1.853176355E0,1.100378036E0,2.277153547E0
4.093849656E0,7.298231125E-1,-1.704644203E0,1.160615325E0,2.187574357E0
4.098647937E0,7.102642059E-1,-1.508491516E0,1.208440781E0,2.059211261E0
4.103446166E0,6.596355438E-1,-1.345996380E0,1.239223361E0,1.944864994E0
4.108244447E0,6.018533707E-1,-1.152064562E0,1.300330281E0,1.838569845E0
4.113042728E0,5.751018524E-1,-8.976328373E-1,1.221813440E0,1.621516245E0
4.117840958E0,6.578264236E-1,-6.946480274E-1,9.711623192E-1,1.363241628E0
4.122639239E0,6.060476303E-1,-5.790555477E-1,8.931026459E-1,1.224839334E0
4.127437520E0,5.849313736E-1,-2.594776154E-1,9.562665224E-1,1.150616794E0
4.132235749E0,4.938964844E-1,-1.688599586E-1,8.767700195E-1,1.020378895E0
4.137034031E0,4.931297302E-1,4.888987541E-2,8.677996397E-1,9.993214525E-1
4.141832260E0,5.061244965E-1,1.900093555E-1,8.793054819E-1,1.032203319E0
4.146630541E0,4.972867966E-1,3.330712318E-1,1.027873755E0,1.189434764E0
4.151428822E0,4.858846664E-1,3.440048695E-1,1.172203541E0,1.314718373E0
4.156227051E0,4.720087051E-1,4.857754707E-1,1.242813706E0,1.415399567E0
4.161025333E0,4.269504547E-1,2.109785080E-1,1.285300374E0,1.370691677E0
4.165823562E0,2.288436890E-1,5.817103386E-2,1.395017385E0,1.414859289E0
4.170621843E0,8.324432373E-2,1.110150814E-1,1.443172812E0,1.449828173E0
4.175420124E0,-9.127712250E-2,1.374499798E-1,1.480373979E0,1.489540576E0
4.180218353E0,-2.755165100E-1,1.304259300E-1,1.556553841E0,1.586121095E0
4.185016635E0,-3.382997513E-1,-1.555027962E-1,1.516449094E0,1.561488295E0
4.189814864E0,-4.829540253E-1,-6.359531879E-1,1.476938725E0,1.678996439E0
4.194613145E0,-5.483417511E-1,1.483335495E-1,1.835469007E0,1.921360975E0
4.199411426E0,-6.057138443E-1,9.211235046E-1,2.146358967E0,2.412926561E0
4.204209656E0,-5.758161545E-1,1.486019135E0,2.172375202E0,2.694258921E0
4.209007937E0,-7.051630020E-1,7.659370899E-1,2.062338829E0,2.310228545E0
4.213806218E0,-8.716993332E-1,6.317472458E-1,2.007202387E0,2.277679901E0
4.218604447E0,-9.987077713E-1,5.879740715E-1,2.149707079E0,2.442206225E0
4.223402728E0,-9.448881149E-1,9.902648926E-1,2.345474005E0,2.715637386E0
4.228200958E0,-1.009215355E0,7.319176197E-1,2.508003950E0,2.800768260E0
4.232999239E0,-1.189010620E0,6.361854076E-1,2.557500124E0,2.891242814E0
4.237797520E0,-1.311842918E0,6.380476952E-1,2.548595190E0,2.936558214E0
4.242595749E0,-1.320556641E0,6.369123459E-1,2.486533642E0,2.886585653E0
4.247394031E0,-1.423638344E0,4.130342007E-1,2.346229076E0,2.775271926E0
4.252192260E0,-1.604287148E0,2.171778679E-1,2.204873085E0,2.735391891E0
4.256990541E0,-1.652406693E0,8.737492561E-2,2.056488991E0,2.639550951E0
4.261788822E0,-1.616252899E0,8.072805405E-2,1.895137191E0,2.492054459E0
4.266587051E0,-1.720687866E0,-1.159648895E-1,1.955414772E0,2.607270895E0
4.271385333E0,-1.731265068E0,-1.699156761E-1,2.102339983E0,2.728732943E0
4.276183562E0,-1.715030670E0,-3.319327831E-1,2.153647900E0,2.773032428E0
4.280981843E0,-1.769646645E0,-4.369962215E-1,2.232183218E0,2.881884256E0
4.285780124E0,-1.887544632E0,-2.192268372E-1,2.375782967E0,3.042240925E0
4.290578353E0,-2.080828667E0,-1.615409851E-1,2.127897739E0,2.980585885E0
4.295376635E0,-2.311684608E0,-3.599543571E-1,1.637603164E0,2.855730553E0
4.300174864E0,-2.473228455E0,-9.538483620E-2,1.265294313E0,2.779735051E0
4.304973145E0,-2.808267593E0,-6.924467087E-1,3.746131659E-1,2.916536361E0
4.309771426E0,-3.252761841E0,-1.053374290E0,-2.188739777E-1,3.426071045E0
4.314569656E0,-3.801879883E0,-1.114511967E0,-5.486637354E-1,3.999682420E0
4.319367937E0,-4.233109474E0,-1.239532232E0,-5.143021345E-1,4.440738977E0
4.324166166E0,-4.503400803E0,-1.552204370E0,-2.800289392E-1,4.771621674E0
4.328964447E0,-4.376251221E0,-1.143281221E0,4.645478725E-2,4.523364317E0
4.333762728E0,-4.033493042E0,-1.102493048E0,2.654718161E-1,4.189872591E0
4.338560958E0,-3.556229591E0,-1.082533836E0,3.837699890E-1,3.737101526E0
4.343359239E0,-2.991266251E0,-9.964556694E-1,3.367182016E-1,3.170800661E0
4.348157520E0,-2.299448013E0,-3.627181053E-1,7.312433720E-1,2.440029192E0
4.352955749E0,-1.963535309E0,-5.417766571E-1,4.667506218E-1,2.089700696E0
4.357754031E0,-1.564521790E0,-5.274825096E-1,6.794595718E-2,1.652447543E0
4.362552260E0,-1.159878731E0,-5.381560326E-1,-3.081613779E-1,1.315254356E0
4.367350541E0,-7.003078461E-1,-6.734142303E-1,-8.334188461E-1,1.280040928E0
4.372148822E0,-3.272390366E-1,-6.436152458E-1,-1.188873649E0,1.390951661E0
4.376947051E0,-5.230808258E-2,-9.890835285E-1,-1.380603075E0,1.699143082E0
4.381745333E0,3.110380173E-1,-1.259871721E0,-1.607808352E0,2.066172572E0
4.386543562E0,5.307731628E-1,-1.534914017E0,-1.812840939E0,2.433941959E0
4.391341843E0,7.405290604E-1,-1.870998144E0,-2.002478123E0,2.838826514E0
4.396140124E0,7.609996796E-1,-2.045467615E0,-2.143739462E0,3.059195508E0
4.400938353E0,8.145809174E-1,-2.229921579E0,-2.170788288E0,3.216895104E0
4.405736635E0,6.791954041E-1,-2.261868954E0,-2.275891781E0,3.279792823E0
4.410534864E0,6.106920242E-1,-2.205338240E0,-2.357052565E0,3.285142051E0
4.415333145E0,5.608253479E-1,-2.248202085E0,-2.517394781E0,3.421434520E0
4.420131426E0,4.126806259E-1,-2.303866625E0,-2.423744440E0,3.369368462E0
4.424929656E0,4.604682922E-1,-2.304929972E0,-2.338093758E0,3.315330397E0
4.429727937E0,4.959907532E-1,-2.282413960E0,-2.312883139E0,3.287072972E0
4.434526166E0,6.384649277E-1,-2.331713915E0,-2.297001600E0,3.334777893E0
4.439324447E0,6.988439560E-1,-2.163783073E0,-2.296750069E0,3.231934551E0
4.444122728E0,9.493479729E-1,-1.912845135E0,-2.301149607E0,3.139351461E0
4.448920958E0,1.002409935E0,-1.639139414E0,-2.287469625E0,2.987326729E0
4.453719239E0,1.149644375E0,-1.218816280E0,-2.244973183E0,2.801267553E0
4.458517468E0,1.163671970E0,-8.267149925E-1,-2.167961359E0,2.595697707E0
4.463315749E0,9.585323334E-1,-5.775053501E-1,-2.049175739E0,2.334827161E0
4.468114031E0,6.972045898E-1,-3.637545109E-1,-1.903438568E0,2.059487792E0
4.472912260E0,4.229764938E-1,-2.887799740E-1,-1.919564009E0,1.986713107E0
4.477710541E0,3.808498383E-2,-3.050434589E-1,-1.951799154E0,1.975859792E0
4.482508822E0,-3.135166168E-1,-4.584913254E-1,-1.902756929E0,1.982168231E0
4.487307051E0,-5.689411163E-1,-6.326625347E-1,-1.745323181E0,1.941676823E0
4.492105333E0,-7.441873550E-1,-7.927207947E-1,-1.571671009E0,1.911117694E0
4.496903562E0,-8.150148392E-1,-8.458437920E-1,-1.337216616E0,1.779845270E0
4.501701843E0,-4.829998016E-1,-2.226326466E-1,-7.795391083E-1,9.436817923E-1
4.506500124E0,-2.579669952E-1,-4.507327080E-1,-7.038919926E-1,8.747404654E-1
4.511298353E0,1.635456085E-1,-4.179389477E-1,-6.358015537E-1,7.782440143E-1
4.516096635E0,4.775991440E-1,-4.282369614E-1,-6.343164444E-1,9.021336869E-1
4.520894864E0,7.277550697E-1,-4.533629417E-1,-5.398406982E-1,1.013209444E0
4.525693145E0,9.577350616E-1,-3.951487541E-1,-2.277066708E-1,1.060777693E0
4.530491426E0,1.208190918E0,-2.959394455E-1,-6.703472137E-2,1.245712288E0
4.535289656E0,1.617073059E0,4.768958092E-1,1.333260536E-1,1.691192103E0
4.540087937E0,2.047469139E0,5.775814056E-1,3.167388439E-1,2.150826272E0
4.544886166E0,2.384463787E0,6.166749001E-1,5.264475346E-1,2.518551665E0
4.549684447E0,2.726089001E0,7.287786007E-1,6.567881107E-1,2.897248714E0
4.554482676E0,3.053244114E0,8.352890015E-1,7.887895107E-1,3.262237917E0
4.559280958E0,3.263397694E0,9.721367359E-1,9.243462086E-1,3.528346674E0
4.564079239E0,3.361479759E0,9.701030254E-1,1.063045979E0,3.656598529E0
4.568877468E0,3.450193405E0,6.866588593E-1,1.027932882E0,3.664966703E0
4.573675749E0,3.372654438E0,8.483545780E-1,1.288419485E0,3.708709778E0
4.578474031E0,3.473970890E0,8.188281059E-1,1.548542738E0,3.890621778E0
4.583272260E0,3.472384930E0,7.869019508E-1,1.628206253E0,3.915064161E0
4.588070541E0,3.368324757E0,7.544236183E-1,1.556119919E0,3.786327490E0
4.592868770E0,3.247808456E0,5.995903015E-1,1.428260803E0,3.598290875E0
4.597667051E0,3.180061340E0,3.915455341E-1,1.292911530E0,3.455100325E0
4.602465333E0,3.055255413E0,2.356929779E-1,1.381088495E0,3.361181675E0
4.607263562E0,2.914060593E0,1.132273674E-1,1.421852350E0,3.244415769E0
4.612061843E0,2.844422817E0,1.051101685E-1,1.237164497E0,3.103605211E0
4.616860072E0,2.742549419E0,3.176832199E-2,9.801144600E-1,2.912595217E0
4.621658353E0,2.681691647E0,2.432394028E-2,7.273213863E-1,2.778679208E0
4.626456635E0,2.622965336E0,5.111694336E-2,4.879460335E-1,2.668454876E0
4.631254864E0,2.537183285E0,1.928393841E-1,3.260455132E-1,2.565305386E0
4.636053145E0,2.567062378E0,2.625768185E-1,1.173553467E-1,2.583123713E0
4.640851374E0,2.657123566E0,2.337086201E-1,1.050875187E-1,2.669451020E0
4.645649656E0,2.726228714E0,3.639714718E-1,2.247960567E-1,2.759589009E0
4.650447937E0,2.853438377E0,5.718476772E-1,2.132945061E-1,2.917981303E0
4.655246166E0,2.890619278E0,6.440372467E-1,1.047618389E-1,2.963349259E0
4.660044447E0,2.905261993E0,6.090869904E-1,2.665624619E-1,2.980367386E0
4.664842676E0,2.484892368E0,4.529786110E-1,6.284811497E-1,2.602857710E0
4.669640958E0,1.888908386E0,7.616422176E-1,8.721629381E-1,2.215568087E0
4.674439239E0,1.506355762E0,8.161020279E-1,3.367612362E-1,1.746006396E0
4.679237468E0,1.383943081E0,6.821355820E-1,-7.914996147E-2,1.544950523E0
4.684035749E0,1.334858894E0,7.231492996E-1,-3.155398369E-1,1.550599422E0
4.688833978E0,1.237375736E0,8.736085892E-1,-3.961946964E-1,1.565650318E0
4.693632260E0,9.794278145E-1,1.008539915E0,-4.429895878E-1,1.473998432E0
4.698430541E0,7.405519485E-1,1.156454802E0,-4.464194775E-1,1.443985889E0
4.703228770E0,4.776859283E-1,1.300790548E0,-4.735844135E-1,1.464418688E0
4.708027051E0,4.037294388E-1,1.599430799E0,-4.296035767E-1,1.704621828E0
4.712825281E0,4.228897095E-1,1.729785562E0,-3.102171421E-1,1.807547640E0
4.717623562E0,4.244556427E-1,1.824302673E0,-4.895577431E-1,1.935951864E0
4.722421843E0,3.528490067E-1,1.976718664E0,-8.366887569E-1,2.175308524E0
4.727220072E0,2.994937897E-1,2.413635492E0,-7.193377018E-1,2.536292481E0
4.732018353E0,4.975795746E-1,2.782037497E0,-3.775408268E-1,2.851290084E0
4.736816583E0,6.009683609E-1,2.980367422E0,-2.854061127E-1,3.053720614E0
4.741614864E0,5.761175156E-1,3.125304699E0,-6.083712578E-1,3.235669396E0
4.746413145E0,6.533985138E-1,3.186934948E0,-5.199744701E-1,3.294519302E0
4.751211374E0,8.265199661E-1,2.871978283E0,-2.344703674E-1,2.997727617E0
4.756009656E0,3.439092636E-1,2.694302082E0,-1.009955168E0,2.897852089E0
4.760807885E0,-1.562862396E-1,2.690034866E0,-1.402266502E0,3.037608321E0
4.765606166E0,-6.595172882E-1,2.876775265E0,-1.344941378E0,3.243403504E0
4.770404447E0,-9.817829132E-1,3.000274181E0,-1.204214811E0,3.378709245E0
4.775202676E0,-1.140615463E0,2.866299868E0,-1.298363924E0,3.347002756E0
4.780000958E0,-1.218435287E0,2.627355814E0,-1.594866276E0,3.306233743E0
4.784799187E0,-1.306872368E0,2.425337076E0,-1.934244633E0,3.366226020E0
4.789597468E0,-1.425437927E0,2.330056190E0,-2.088668346E0,3.438541929E0
4.794395749E0,-1.481039047E0,2.343847275E0,-2.272997379E0,3.585193690E0
4.799193978E0,-1.483245850E0,2.318167686E0,-2.408253670E0,3.656994040E0
4.803992260E0,-1.436688423E0,2.283478022E0,-2.530332088E0,3.698773578E0
4.808790489E0,-1.350785255E0,2.280007839E0,-2.651449680E0,3.748765391E0
4.813588770E0,-1.199124336E0,2.321758986E0,-2.688286066E0,3.749046003E0
4.818387051E0,-1.031756401E0,2.420571804E0,-2.667979717E0,3.747239638E0
4.823185281E0,-8.340339661E-1,2.514274120E0,-2.543965578E0,3.672730302E0
4.827983562E0,-7.084035873E-1,2.633791447E0,-2.405804396E0,3.636837612E0
4.832781791E0,-6.592493057E-1,2.792958260E0,-2.352006674E0,3.710412495E0
4.837580072E0,-7.172670364E-1,2.931413174E0,-2.370843172E0,3.837779637E0
4.842378353E0,-9.107141495E-1,3.067591906E0,-2.491150618E0,4.055286890E0
4.847176583E0,-1.255698204E0,3.145993233E0,-2.601436138E0,4.271009410E0
4.851974864E0,-1.646195412E0,3.137704849E0,-2.505215883E0,4.339499703E0
4.856773093E0,-1.964281082E0,3.031164885E0,-2.188633442E0,4.223325357E0
4.861571374E0,-2.097199440E0,2.714994431E0,-1.549132347E0,3.764206593E0
4.866369656E0,-2.014884949E0,2.162935019E0,-1.067002296E0,3.142696796E0
4.871167885E0,-1.802759171E0,1.661166072E0,-1.080475569E0,2.678962635E0
4.875966166E0,-1.698718071E0,1.222532511E0,-1.132108927E0,2.379474616E0
4.880764395E0,-1.726967812E0,7.543652058E-1,-1.063123703E0,2.163727500E0
4.885562676E0,-1.870625496E0,2.574229240E-1,-8.620882034E-1,2.075741404E0
4.890360958E0,-2.052919388E0,-1.581537724E-1,-6.491062641E-1,2.158895452E0
4.895159187E0,-2.175806999E0,-5.115959644E-1,-4.957747459E-1,2.289466996E0
4.899957468E0,-2.208472252E0,-8.441333771E-1,-4.917714596E-1,2.414901657E0
4.904755697E0,-2.108306885E0,-1.029655695E0,-4.801421165E-1,2.394929064E0
4.909553978E0,-1.914032936E0,-1.082970858E0,-4.739089012E-1,2.249652774E0
4.914352260E0,-1.704577446E0,-1.145674229E0,-3.294179440E-1,2.080064876E0
4.919150489E0,-1.553912163E0,-1.210873604E0,-1.592929363E-1,1.976419018E0
4.923948770E0,-1.421060562E0,-1.259895086E0,2.639746666E-2,1.899327664E0
4.928746999E0,-1.315232277E0,-1.274062872E0,1.791307926E-1,1.839880427E0
4.933545281E0,-1.278952599E0,-1.289800406E0,3.839097023E-1,1.856526729E0
4.938343562E0,-1.299915314E0,-1.255019665E0,4.752593040E-1,1.868348358E0
4.943141791E0,-1.341964722E0,-1.208615303E0,4.864354134E-1,1.870358168E0
4.947940072E0,-1.459788322E0,-1.167803288E0,6.082041264E-1,1.965873527E0
4.952738301E0,-1.464418411E0,-1.245109320E0,6.156497002E-1,2.018376341E0
4.957536583E0,-1.661578178E0,-1.187448978E0,8.020260334E-1,2.194110954E0
4.962334864E0,-1.747241974E0,-1.227037430E0,9.726742506E-1,2.346182126E0
4.967133093E0,-1.781314850E0,-1.265430450E0,1.046043515E0,2.422520145E0
4.971931374E0,-1.940833092E0,-1.390746713E0,1.079665422E0,2.620436401E0
4.976729603E0,-2.018099785E0,-1.511542916E0,1.024162292E0,2.721469664E0
4.981527885E0,-2.087764740E0,-1.603912354E0,9.002796412E-1,2.782409007E0
4.986326166E0,-2.169240952E0,-1.734833956E0,8.715796471E-1,2.911169222E0
4.991124395E0,-2.286648750E0,-1.872678757E0,9.312384129E-1,3.098853532E0
4.995922676E0,-2.306370735E0,-2.012346983E0,8.934692144E-1,3.188600568E0
5.000720906E0,-2.434326172E0,-2.198526859E0,9.333864450E-1,3.410377474E0
5.005519187E0,-2.481797218E0,-2.335134029E0,9.391599894E-1,3.534712132E0
5.010317416E0,-2.444390297E0,-2.462770462E0,8.761488199E-1,3.578815311E0
5.015115697E0,-2.451326370E0,-2.581272125E0,9.167815447E-1,3.675929156E0
5.019913978E0,-2.430713654E0,-2.740569353E0,1.053138018E0,3.811586143E0
5.024712208E0,-2.368083000E0,-2.880659580E0,1.133826375E0,3.897637613E0
5.029510489E0,-2.241894722E0,-3.030604362E0,1.080072284E0,3.921378697E0
5.034308718E0,-2.061558723E0,-3.333664417E0,1.144409180E0,4.083260362E0
5.039106999E0,-1.872055054E0,-3.520047188E0,1.320242286E0,4.199804998E0
5.043905281E0,-1.634843826E0,-3.604706764E0,1.400938272E0,4.198720428E0
5.048703510E0,-1.321262360E0,-3.779111147E0,1.443865299E0,4.255838611E0
5.053501791E0,-8.620948792E-1,-3.912010193E0,1.430121660E0,4.253502003E0
5.058300020E0,-3.457956314E-1,-3.930038929E0,1.464761257E0,4.208361456E0
5.063098301E0,2.205057144E-1,-3.943617821E0,1.537892222E0,4.238614959E0
5.067896583E0,8.032522202E-1,-3.957419395E0,1.558644772E0,4.328481942E0
5.072694812E0,1.280311584E0,-3.882777691E0,1.489582539E0,4.351323533E0
5.077493093E0,1.699337482E0,-3.664760113E0,1.382156372E0,4.269493038E0
5.082291322E0,2.048276901E0,-3.387516022E0,1.237542391E0,4.147555211E0
5.087089603E0,2.377277851E0,-3.108511686E0,1.159237623E0,4.081436849E0
5.091887885E0,2.671943665E0,-2.801377058E0,1.083029747E0,4.019944005E0
5.096686114E0,2.877232552E0,-2.544738770E0,1.035633564E0,3.978278452E0
5.101484395E0,2.940693378E0,-2.252402306E0,9.452440739E-1,3.822888967E0
5.106282624E0,3.008371353E0,-1.976787448E0,9.404207468E-1,3.720534638E0
5.111080906E0,3.034941196E0,-1.822635055E0,9.653224349E-1,3.669429658E0
5.115879187E0,3.058755398E0,-1.598349929E0,9.452772737E-1,3.578303537E0
5.120677416E0,3.020268917E0,-1.459197164E0,1.017762542E0,3.505299029E0
5.125475697E0,2.946064472E0,-1.307032585E0,1.107351303E0,3.407910938E0
5.130273926E0,2.951012611E0,-1.213469386E0,1.122417212E0,3.382425724E0
5.135072208E0,2.886890411E0,-1.147468805E0,1.069942951E0,3.285665659E0
5.139870437E0,2.851742268E0,-9.610384703E-1,9.669715166E-1,3.160864251E0
5.144668718E0,2.843055248E0,-9.053092003E-1,8.545712829E-1,3.103681680E0
5.149466999E0,2.882251740E0,-7.891368866E-1,7.307432294E-1,3.076377380E0
5.154265228E0,3.005017281E0,-7.009220123E-1,5.743529797E-1,3.138678363E0
5.159063510E0,3.070129395E0,-6.715749502E-1,4.575858116E-1,3.175860858E0
5.163861739E0,3.149247646E0,-6.460285187E-1,2.375220060E-1,3.223589659E0
5.168660020E0,3.148957729E0,-6.000956297E-1,-1.559865475E-2,3.205665744E0
5.173458301E0,3.164768696E0,-5.263835192E-1,-3.032577038E-1,3.222546469E0
5.178256531E0,3.170270920E0,-4.584206343E-1,-6.772359610E-1,3.274051883E0
5.183054812E0,3.064935684E0,-3.032646179E-1,-1.248107195E0,3.323186986E0
5.187853041E0,2.870282173E0,-6.399130821E-2,-1.958758473E0,3.475535843E0
5.192651322E0,2.583948612E0,3.064537048E-1,-2.723534346E0,3.766741780E0
5.197449551E0,2.215582848E0,7.188388109E-1,-3.512264252E0,4.214443826E0
5.202247833E0,1.839379311E0,1.084190488E0,-4.254738808E0,4.760418845E0
5.207046114E0,1.491247177E0,1.395088673E0,-4.879218102E0,5.289315630E0
5.211844343E0,1.178420067E0,1.737291336E0,-5.472291470E0,5.861128643E0
5.216642624E0,8.842906952E-1,2.160523415E0,-5.946437836E0,6.388266932E0
5.221440853E0,6.759634018E-1,2.418224812E0,-6.265018463E0,6.749458801E0
5.226239135E0,5.440244675E-1,2.613213301E0,-6.439670563E0,6.970954263E0
5.231037416E0,4.886293411E-1,2.836427689E0,-6.477346420E0,7.088024923E0
5.235835645E0,5.625238419E-1,2.916187048E0,-6.351897240E0,7.011931154E0
5.240633926E0,6.678724289E-1,3.027810812E0,-6.066197872E0,6.812668238E0
5.245432156E0,8.337688446E-1,3.028455257E0,-5.547088623E0,6.374708144E0
5.250230437E0,1.070079803E0,3.017169952E0,-4.953033447E0,5.897535556E0
5.255028718E0,1.322077751E0,2.916228294E0,-4.148163795E0,5.240185104E0
5.259826947E0,1.596881390E0,2.719698906E0,-3.480061769E0,4.696554293E0
5.264625228E0,1.831920147E0,2.521335363E0,-3.013636112E0,4.335327676E0
5.269423458E0,1.914438725E0,2.342363358E0,-2.724224091E0,4.071011990E0
5.274221739E0,1.796467304E0,2.100712061E0,-2.398519993E0,3.659669943E0
5.279020020E0,1.623929024E0,1.855178118E0,-2.087421894E0,3.230504835E0
5.283818249E0,1.363409042E0,1.645420909E0,-1.815978050E0,2.804295003E0
5.288616531E0,1.074797630E0,1.480216861E0,-1.533265829E0,2.386867404E0
5.293414760E0,7.486095428E-1,1.342256308E0,-1.341623306E0,2.040103267E0
5.298213041E0,4.350938797E-1,1.226399422E0,-1.188057899E0,1.762056696E0
5.303011270E0,1.509160995E-1,1.127698183E0,-1.179571152E0,1.638861484E0
5.307809551E0,-1.613712311E-1,1.077053666E0,-1.243744731E0,1.653174591E0
5.312607833E0,-4.851140976E-1,1.043693066E0,-1.322911859E0,1.753489860E0
5.317406062E0,-7.820682526E-1,1.001549125E0,-1.359947920E0,1.861233394E0
5.322204343E0,-1.028310776E0,1.056028247E0,-1.496530771E0,2.100529233E0
5.327002572E0,-1.362336159E0,1.190143585E0,-1.537509561E0,2.374097136E0
5.331800853E0,-1.678961754E0,1.298873186E0,-1.683596730E0,2.709332404E0
5.336599135E0,-1.825598717E0,1.318165302E0,-2.138683796E0,3.105533580E0
5.341397364E0,-1.855133057E0,1.339092970E0,-2.476561546E0,3.371653264E0
5.346195645E0,-1.949052811E0,1.473703146E0,-2.459813833E0,3.467173476E0
5.350993874E0,-2.049834251E0,1.638251781E0,-2.488613844E0,3.616474557E0
5.355792156E0,-2.043016434E0,1.699383259E0,-2.674275875E0,3.770089000E0
5.360590437E0,-2.024487495E0,1.721746683E0,-2.862626553E0,3.906096778E0
5.365388666E0,-1.984860420E0,1.653107285E0,-2.883357525E0,3.871199453E0
5.370186947E0,-1.895455360E0,1.562917471E0,-2.787060261E0,3.715261356E0
5.374985176E0,-1.897189140E0,1.386657000E0,-2.414659500E0,3.369380473E0
5.379783458E0,-1.930128098E0,1.198639393E0,-2.030009747E0,3.046813161E0
5.384581739E0,-1.972785950E0,8.916944265E-1,-1.752668500E0,2.785471275E0
5.389379968E0,-2.190107346E0,5.284614563E-1,-1.465463281E0,2.687642893E0
5.394178249E0,-2.553159714E0,1.494659185E-1,-1.177955151E0,2.815766844E0
5.398976478E0,-2.672364235E0,-5.969524384E-2,-1.270585179E0,2.959642009E0
5.403774760E0,-3.188600540E0,-5.264656544E-1,-9.996824265E-1,3.382854482E0
5.408572989E0,-3.738191605E0,-8.771281242E-1,-8.463113308E-1,3.931879078E0
5.413371270E0,-4.184951782E0,-1.102149367E0,-7.430915833E-1,4.390983916E0
5.418169551E0,-4.610239983E0,-1.285409808E0,-5.299217701E-1,4.815330534E0
5.422967781E0,-4.923285484E0,-1.455632448E0,-3.431229591E-1,5.145419239E0
5.427766062E0,-5.124308586E0,-1.555322051E0,-1.800233126E-1,5.358168863E0
5.432564291E0,-4.931665421E0,-1.541457534E0,-1.374769211E-1,5.168782744E0
5.437362572E0,-3.997120857E0,-1.399512887E0,-2.832937241E-2,4.235140378E0
5.442160853E0,-2.894898415E0,-1.098734021E0,3.154476881E-1,3.112420364E0
5.446959083E0,-2.035834312E0,-8.001860380E-1,5.835125446E-1,2.263935938E0
5.451757364E0,-1.268754959E0,-5.906292200E-1,7.032250166E-1,1.566239907E0
5.456555593E0,-6.792993546E-1,-4.156497717E-1,7.718813419E-1,1.109059580E0
5.461353874E0,-2.048101425E-1,-2.688028812E-1,8.436947465E-1,9.088580795E-1
5.466152103E0,1.359643936E-1,-1.648175716E-1,8.963989615E-1,9.215108499E-1
5.470950385E0,4.007472992E-1,-1.539192200E-1,9.387256503E-1,1.032228352E0
5.475748666E0,5.300111771E-1,-2.764984369E-1,9.604445696E-1,1.131289974E0
5.480546895E0,5.288705826E-1,-4.630751610E-1,1.003858805E0,1.225510179E0
5.485345176E0,3.784523010E-1,-6.610406637E-1,9.754238129E-1,1.237599498E0
5.490143406E0,1.433830261E-1,-9.253584146E-1,8.637366295E-1,1.273926157E0
5.494941687E0,-9.762191772E-2,-1.227011085E0,6.699558496E-1,1.401401827E0
5.499739968E0,-3.639898300E-1,-1.536820889E0,4.861580133E-1,1.652469865E0
5.504538197E0,-5.962619781E-1,-1.959454775E0,2.537602186E-1,2.063827902E0
5.509336478E0,-8.329591751E-1,-2.312691212E0,1.074665785E-1,2.460469608E0
5.514134708E0,-1.040873528E0,-2.619967937E0,-2.847766876E-2,2.819301451E0
5.518932989E0,-1.208332062E0,-2.969355822E0,-2.105432749E-1,3.212704287E0
5.523731218E0,-1.393024445E0,-3.281549215E0,-4.351500273E-1,3.591439531E0
5.528529499E0,-1.583179474E0,-3.594467402E0,-6.584762335E-1,3.982492197E0
5.533327728E0,-1.719162941E0,-3.914967060E0,-8.300147057E-1,4.355618522E0
5.538126010E0,-1.868112564E0,-4.166256428E0,-1.104647756E0,4.697635984E0
5.542924291E0,-2.018265724E0,-4.340951443E0,-1.467208385E0,5.006990754E0
5.547722520E0,-2.157816887E0,-4.438931465E0,-1.809627533E0,5.256903849E0
5.552520801E0,-2.224864006E0,-4.472074509E0,-2.112084389E0,5.423132925E0
5.557319031E0,-2.200565338E0,-4.440425873E0,-2.486395121E0,5.544549615E0
5.562117312E0,-2.171212196E0,-4.372498035E0,-2.741180420E0,5.598836626E0
5.566915593E0,-2.079472542E0,-4.034737587E0,-2.945895195E0,5.411248650E0
5.571713822E0,-1.903906822E0,-3.538394451E0,-3.112474918E0,5.082577751E0
5.576512103E0,-1.632662773E0,-2.934700966E0,-3.221921444E0,4.653905379E0
5.581310333E0,-1.344531059E0,-2.287015915E0,-3.172265291E0,4.135392683E0
5.586108614E0,-1.065475464E0,-1.672611713E0,-2.955643177E0,3.559310958E0
5.590906716E0,-7.473440170E-1,-1.158862948E0,-2.690798521E0,3.023554712E0
5.595704997E0,-4.090070724E-1,-7.218401432E-1,-2.391084909E0,2.530934022E0
5.600503279E0,6.938076019E-2,-1.804791689E-1,-2.069656610E0,2.078669023E0
5.605301508E0,5.353517532E-1,1.663038731E-1,-1.379898310E0,1.489421976E0
5.610099789E0,1.139998436E0,1.615127325E-1,-9.239346981E-1,1.476258149E0
5.614898018E0,1.606108665E0,1.600313187E-1,-5.707130432E-1,1.711989616E0
5.619696299E0,1.938739300E0,2.533210516E-1,-3.156354427E-1,1.980532090E0
5.624494581E0,2.262523651E0,4.723299146E-1,4.665303230E-2,2.311771037E0
5.629292810E0,2.711361408E0,4.897688627E-1,3.367860317E-1,2.775748378E0
5.634091091E0,3.172908783E0,3.568361998E-1,6.858594418E-1,3.265744233E0
5.638889320E0,3.582681179E0,1.916090250E-1,9.932248592E-1,3.722742815E0
5.643687601E0,3.900047302E0,9.243965149E-2,1.139781952E0,4.064236330E0
5.648485831E0,3.998231888E0,6.936681271E-2,1.226762295E0,4.182776077E0
5.653284112E0,3.987259865E0,8.691394329E-2,1.321659088E0,4.201497115E0
5.658082393E0,3.986651421E0,-5.727183819E-2,1.431763411E0,4.236344660E0
5.662880622E0,4.079993725E0,-2.838410139E-1,1.564374566E0,4.378833440E0
5.667678904E0,4.295644760E0,-4.856799841E-1,1.521955729E0,4.583099191E0
5.672477133E0,4.463985920E0,-6.661443710E-1,1.636750460E0,4.801028086E0
5.677275414E0,4.532869816E0,-9.998962879E-1,1.862289190E0,5.001482019E0
5.682073643E0,4.557590008E0,-1.312517643E0,1.968621254E0,5.135153248E0
5.686871924E0,4.550435066E0,-1.454047203E0,2.129848957E0,5.230389005E0
5.691670206E0,4.590515614E0,-1.530605435E0,2.250087261E0,5.336523145E0
5.696468435E0,4.656223774E0,-1.573827386E0,2.324905872E0,5.437144452E0
5.701266716E0,4.799953461E0,-1.646342993E0,2.347758293E0,5.591240245E0
5.706064945E0,4.861340523E0,-1.750688434E0,2.450593710E0,5.718649421E0
5.710863226E0,4.902467251E0,-1.851218820E0,2.461726189E0,5.789757516E0
5.715661508E0,4.882579327E0,-1.938421488E0,2.489197969E0,5.813188908E0
5.720459737E0,4.883010387E0,-2.002445698E0,2.575849295E0,5.872697745E0
5.725257966E0,4.863040447E0,-2.064581394E0,2.652326107E0,5.911555845E0
5.730056247E0,4.868042946E0,-2.088849545E0,2.704346180E0,5.947656917E0
5.734854529E0,4.828650951E0,-2.056030750E0,2.746234655E0,5.923253940E0
5.739652758E0,4.809224606E0,-1.961438894E0,2.716418505E0,5.861297922E0
5.744451039E0,4.804673672E0,-1.814482927E0,2.646697521E0,5.777737027E0
5.749249268E0,4.783552170E0,-1.677223682E0,2.521306038E0,5.661486976E0
5.754047549E0,4.748009682E0,-1.528072000E0,2.400760412E0,5.535544285E0
5.758845831E0,4.652573586E0,-1.362245083E0,2.359376192E0,5.391549745E0
5.763644060E0,4.487742901E0,-1.167722940E0,2.284750938E0,5.169477736E0
5.768442341E0,4.353912354E0,-1.033059597E0,2.126979351E0,4.954574257E0
5.773240570E0,4.145832539E0,-9.485847950E-1,1.981936693E0,4.692101193E0
5.778038851E0,3.887414932E0,-7.446540594E-1,1.780603886E0,4.340167591E0
5.782837081E0,3.600211143E0,-5.815398693E-1,1.585283399E0,3.976535219E0
5.787635362E0,3.324921131E0,-4.542839527E-1,1.407784104E0,3.639138706E0
5.792433643E0,2.942068577E0,-3.555593491E-1,1.195382833E0,3.195485891E0
5.797231872E0,2.537939072E0,-2.468935251E-1,9.811376333E-1,2.732164380E0
5.802030154E0,2.117320061E0,-1.330184937E-1,6.599431038E-1,2.221770254E0
5.806828383E0,1.634744644E0,2.914059162E-2,2.704136372E-1,1.657215363E0
5.811626664E0,1.123912811E0,1.798347235E-1,-9.709858894E-2,1.142343500E0
5.816424893E0,5.301990509E-1,4.007717371E-1,-4.605743885E-1,8.086147328E-1
5.821223174E0,-7.483100891E-2,7.056491971E-1,-9.360992908E-1,1.174658398E0
5.826021404E0,-5.980367661E-1,1.008336782E0,-1.341660976E0,1.781697285E0
5.830819685E0,-1.178406715E0,1.366057396E0,-1.819722176E0,2.562448827E0
5.835617966E0,-1.782597542E0,1.740099311E0,-2.326289177E0,3.408404457E0
5.840416195E0,-2.365396500E0,2.084510565E0,-2.776575804E0,4.201149615E0
5.845214476E0,-3.006039619E0,2.365660191E0,-3.255310297E0,5.022914240E0
5.850012706E0,-3.573437691E0,2.669089794E0,-3.805992126E0,5.863367064E0
5.854810987E0,-4.166015625E0,2.999131680E0,-4.214342117E0,6.641623032E0
5.859609268E0,-4.626223564E0,3.364574432E0,-4.629992962E0,7.359289395E0
5.864407497E0,-4.975756645E0,3.690610409E0,-4.961810589E0,7.937148336E0
5.869205779E0,-5.279269218E0,4.041141510E0,-5.353236198E0,8.535727619E0
5.874004008E0,-5.512868881E0,4.403495789E0,-5.828269482E0,9.151569462E0
5.878802289E0,-5.688475609E0,4.809887886E0,-6.313021183E0,9.764630699E0
5.883600518E0,-5.775071144E0,5.259102821E0,-6.807633400E0,1.036115253E1
5.888398799E0,-5.569718361E0,5.583452702E0,-7.223988533E0,1.069498560E1
5.893197029E0,-4.733543396E0,5.529163361E0,-7.302875042E0,1.031067721E1
5.897995310E0,-3.286460876E0,4.842296124E0,-6.874731064E0,9.028321219E0
5.902793591E0,-1.976387024E0,4.310751438E0,-5.772212505E0,7.470416376E0
5.907591820E0,-9.476795197E-1,4.004945755E0,-4.831801891E0,6.346967503E0
5.912390101E0,-2.419366837E-1,3.790934563E0,-4.287786484E0,5.728423094E0
5.917188331E0,8.229541779E-2,3.658355951E0,-4.055130005E0,5.462089358E0
5.921986612E0,-3.194808960E-4,3.849171877E0,-4.348860264E0,5.807642365E0
5.926784893E0,-3.862333298E-1,3.780626059E0,-5.168225288E0,6.415049666E0
5.931583122E0,-1.123880386E0,3.419119596E0,-5.552637100E0,6.617043502E0
5.936381404E0,-1.896549225E0,2.796513081E0,-4.652711868E0,5.750227135E0
5.941179633E0,-2.309553146E0,2.267661095E0,-2.919106245E0,4.358612606E0
5.945977914E0,-2.235466003E0,1.623640299E0,-1.805796385E0,3.300669122E0
5.950776143E0,-2.003499031E0,9.516735673E-1,-1.427742243E0,2.637828436E0
5.955574424E0,-1.863169670E0,2.045851350E-1,-1.095110655E0,2.170834780E0
5.960372654E0,-1.790363312E0,-6.307901740E-1,-7.160189152E-1,2.028787845E0
5.965170935E0,-1.736283302E0,-1.405535460E0,-3.581764698E-1,2.262410223E0
5.969969216E0,-1.694530487E0,-1.993388414E0,-7.869505882E-2,2.617484261E0
5.974767445E0,-1.705648422E0,-2.595878363E0,3.498132229E-1,3.125730363E0
5.979565726E0,-1.659022331E0,-3.160753965E0,9.305117130E-1,3.688979910E0
5.984363956E0,-1.525361061E0,-3.576618195E0,1.544452190E0,4.183808868E0
5.989162237E0,-1.201617241E0,-3.777966022E0,1.997199416E0,4.439112160E0
5.993960466E0,-8.886003494E-1,-3.857001305E0,2.300686121E0,4.578124755E0
5.998758747E0,-7.295637131E-1,-3.986610174E0,2.583984613E0,4.806485241E0
6.003557029E0,-6.191310883E-1,-4.150457382E0,2.689455986E0,4.984254537E0
6.008355258E0,-6.481323242E-1,-4.363354206E0,2.691814423E0,5.167668751E0
6.013153487E0,-7.471008301E-1,-4.518514633E0,2.653605938E0,5.293085925E0
6.017951768E0,-8.298225403E-1,-4.774425030E0,2.581969738E0,5.490929570E0
6.022750049E0,-8.794050217E-1,-5.119013786E0,2.636517048E0,5.824849996E0
6.027548279E0,-8.358707428E-1,-5.499029636E0,2.751554728E0,6.205566877E0
6.032346560E0,-7.778367996E-1,-5.930246353E0,2.901718616E0,6.647768259E0
6.037144789E0,-7.119722366E-1,-6.280218124E0,3.142359018E0,7.058502983E0
6.041943070E0,-6.403503418E-1,-6.472140312E0,3.309581518E0,7.297395330E0
6.046741351E0,-5.728054047E-1,-6.475105286E0,3.275218010E0,7.278883672E0
6.051539581E0,-4.526748657E-1,-6.336988926E0,3.082413912E0,7.061417613E0
6.056337862E0,-3.503885269E-1,-6.120081425E0,2.689612389E0,6.694190285E0
6.061136091E0,-3.385505676E-1,-5.917771816E0,2.274929047E0,6.349011098E0
6.065934372E0,-4.533710480E-1,-5.782673359E0,2.029048443E0,6.145070713E0
6.070732601E0,-6.685428619E-1,-5.671657562E0,1.830492496E0,5.997111958E0
6.075530883E0,-8.692588806E-1,-5.615297318E0,1.643414736E0,5.915064409E0
6.080329112E0,-9.717435837E-1,-5.545764446E0,1.498133898E0,5.826164610E0
6.085127393E0,-1.159909248E0,-5.495815754E0,1.384009004E0,5.784882124E0
6.089925674E0,-1.318622589E0,-5.412263870E0,1.311599016E0,5.722906404E0
6.094723904E0,-1.459458351E0,-5.342595577E0,1.305524349E0,5.690144111E0
6.099522185E0,-1.586711884E0,-5.291296959E0,1.339902639E0,5.684260479E0
6.104320414E0,-1.632907867E0,-5.120028973E0,1.482045531E0,5.574723647E0
6.109118695E0,-1.614460945E0,-4.865352154E0,1.560848355E0,5.358580345E0
6.113916924E0,-1.426087379E0,-4.656746864E0,1.606854081E0,5.128449728E0
6.118715206E0,-1.189658165E0,-4.486985207E0,1.672002792E0,4.933955425E0
6.123513435E0,-9.647054672E-1,-4.269945621E0,1.750658274E0,4.714647032E0
6.128311716E0,-7.845039368E-1,-3.967475653E0,1.844722033E0,4.445144414E0
6.133109997E0,-6.132326126E-1,-3.675380468E0,1.837416291E0,4.154584751E0
6.137908226E0,-3.770599365E-1,-3.357784748E0,1.810986638E0,3.833609945E0
6.142706508E0,-1.145210266E-1,-3.071789742E0,1.785201669E0,3.554708466E0
6.147504737E0,8.561992645E-2,-2.721522808E0,1.703609467E0,3.211900120E0
6.152303018E0,2.568559647E-1,-2.352288246E0,1.802927017E0,2.974858116E0
6.157101247E0,3.634910583E-1,-2.004903555E0,1.929614425E0,2.806274370E0
6.161899529E0,4.723672867E-1,-1.614974380E0,2.014798880E0,2.625011929E0
6.166697758E0,5.092620850E-1,-1.276217461E0,2.018393278E0,2.441718719E0
6.171496039E0,5.530290604E-1,-9.387059212E-1,2.034035683E0,2.307446881E0
6.176294320E0,5.895919800E-1,-6.839225888E-1,2.146934986E0,2.329098247E0
6.181092549E0,5.425910950E-1,-4.639921188E-1,2.198900461E0,2.311894682E0
6.185890831E0,4.434328079E-1,-1.478625536E-1,2.251522779E0,2.299532739E0
6.190689060E0,4.168157578E-1,9.926593304E-2,2.351540565E0,2.390257754E0
6.195487341E0,3.457746506E-1,2.416100502E-1,2.431294203E0,2.467615656E0
6.200285570E0,3.332557678E-1,4.654306173E-1,2.402064562E0,2.469331737E0
6.205083851E0,3.625850677E-1,5.769264698E-1,2.414173365E0,2.508494592E0
6.209882081E0,4.217691422E-1,5.713400841E-1,2.395839691E0,2.498873051E0
6.214680362E0,4.244441986E-1,7.040662766E-1,2.178444862E0,2.328408087E0
6.219478591E0,4.733085632E-1,8.668584824E-1,2.008946896E0,2.238600512E0
6.224276872E0,6.114158630E-1,1.047181368E0,2.006684065E0,2.344610652E0
6.229075154E0,7.167310715E-1,1.168592095E0,1.989901304E0,2.416406033E0
6.233873383E0,8.035535812E-1,1.150037527E0,1.927743554E0,2.384214731E0
6.238671664E0,8.670072556E-1,1.199663639E0,1.849271774E0,2.368691732E0
6.243469893E0,9.713191986E-1,1.352884531E0,1.655315518E0,2.348153957E0
6.248268174E0,1.120986938E0,1.477911592E0,1.535676837E0,2.408139891E0
6.253066404E0,1.251242638E0,1.555710793E0,1.443101764E0,2.463409610E0
6.257864685E0,1.440990448E0,1.490990996E0,1.410908937E0,2.508021462E0
6.262662914E0,1.503909588E0,1.372637630E0,1.426451683E0,2.486089804E0
6.267461195E0,1.543190956E0,1.267764688E0,1.483925581E0,2.488111887E0
6.272259476E0,1.602097034E0,1.197719455E0,1.494162560E0,2.496751600E0
6.277057706E0,1.637810230E0,1.128586650E0,1.461391211E0,2.468156082E0
6.281855987E0,1.693517208E0,1.024382949E0,1.437742710E0,2.446316631E0
6.286654216E0,1.738181114E0,9.089031219E-1,1.399096251E0,2.409325380E0
6.291452497E0,1.712036610E0,8.179683685E-1,1.326363802E0,2.315034026E0
6.296250726E0,1.724994659E0,7.681493759E-1,1.217554450E0,2.246797471E0
6.301049008E0,1.745814323E0,6.924567819E-1,1.118465424E0,2.185938917E0
6.305847237E0,1.755234718E0,5.768909454E-1,1.031696439E0,2.116140265E0
6.310645518E0,1.824699879E0,4.766710401E-1,8.242033720E-1,2.058168148E0
6.315443799E0,1.863015652E0,3.682545424E-1,5.233561993E-1,1.969857974E0
6.320242029E0,1.848474026E0,1.969038248E-1,2.257032394E-1,1.872583588E0
6.325040310E0,1.845507145E0,1.325759888E-1,-1.245737076E-3,1.850263378E0
6.329838539E0,1.844501972E0,5.824244022E-2,-2.482867241E-1,1.862048873E0
6.334636820E0,1.874017239E0,-1.159298420E-2,-5.770285130E-1,1.960876567E0
6.339435049E0,1.943324089E0,-8.870732784E-2,-1.041212559E0,2.206468014E0
6.344233331E0,2.061573982E0,-1.132248640E-1,-1.622191906E0,2.625721564E0
6.349031560E0,2.273304939E0,-1.640676260E-1,-2.648006678E0,3.493819242E0
6.353829841E0,2.467379093E0,-1.838928461E-1,-4.177136421E0,4.854919654E0
6.358628070E0,2.683417797E0,-1.609771252E-1,-5.917011738E0,6.499051670E0
6.363426351E0,2.946959496E0,-4.792404175E-2,-7.610759258E0,8.161527030E0
6.368224581E0,3.071458817E0,1.955895424E-1,-8.814554214E0,9.336406189E0
6.373022862E0,3.112816334E0,3.496234417E-1,-9.268780708E0,9.783770127E0
6.377821143E0,3.156232834E0,4.002834558E-1,-9.206863403E0,9.741065972E0
6.382619372E0,3.263271809E0,3.148380518E-1,-8.671396255E0,9.270446533E0
6.387417654E0,3.474298954E0,-1.162644625E-1,-7.557041168E0,8.318241513E0
6.392215883E0,3.588644981E0,-1.776614189E-1,-5.871178627E0,6.883362176E0
6.397014164E0,3.737190723E0,-3.261874914E-1,-4.243368149E0,5.663847282E0
6.401812393E0,3.941032887E0,-7.315001488E-1,-3.381032705E0,5.243874029E0
6.406610674E0,3.801701546E0,-1.094984889E0,-3.104481220E0,5.028889559E0
6.411408904E0,3.473593235E0,-1.324002743E0,-2.602368355E0,4.537747710E0
6.416207185E0,3.015995979E0,-1.393105507E0,-1.819599390E0,3.787864390E0
6.421005466E0,2.519431114E0,-1.307926178E0,-1.120264053E0,3.051752869E0
6.425803695E0,2.017048836E0,-1.219501853E0,-6.366991997E-1,2.441527523E0
6.430601976E0,1.491638660E0,-1.137161732E0,-3.598186970E-1,1.909867061E0
6.435400206E0,9.307670593E-1,-1.046514988E0,-2.969999313E-1,1.431687779E0
6.440198487E0,4.177188873E-1,-9.546151161E-1,-2.791478634E-1,1.078750489E0
6.444996716E0,-7.882595062E-2,-8.470526934E-1,-1.787497997E-1,8.692889547E-1
6.449794997E0,-4.849290848E-1,-7.569682598E-1,-5.526757240E-2,9.006728974E-1
6.454593226E0,-8.842954636E-1,-7.438359261E-1,1.125147343E-1,1.161003840E0
6.459391508E0,-1.138242722E0,-7.259188890E-1,2.475738525E-1,1.372533256E0
6.464189737E0,-1.308951378E0,-7.365144491E-1,3.541300297E-1,1.543118700E0
6.468988018E0,-1.420288086E0,-8.637260199E-1,5.199679136E-1,1.741725442E0
6.473786299E0,-1.486636162E0,-1.059551716E0,5.417263508E-1,1.904259529E0
6.478584529E0,-1.682468414E0,-1.299920917E0,5.388827324E-1,2.193373875E0
6.483382810E0,-1.959791183E0,-1.563427329E0,4.110411406E-1,2.540480528E0
6.488181039E0,-2.306413651E0,-1.783385992E0,3.085000515E-1,2.931754049E0
6.492979320E0,-2.788881302E0,-2.002956867E0,3.472547531E-1,3.451127496E0
6.497777549E0,-3.335077286E0,-2.217360020E0,3.755521774E-1,4.022494922E0
6.502575831E0,-3.944745064E0,-2.495606422E0,3.877577782E-1,4.683953579E0
6.507374060E0,-4.631959915E0,-2.786975384E0,4.139577150E-1,5.421590674E0
6.512172341E0,-5.408436775E0,-3.098359346E0,4.845017195E-1,6.251860596E0
6.516970570E0,-6.204746246E0,-3.374697208E0,4.797189236E-1,7.079377619E0
6.521768851E0,-6.894329071E0,-3.697230577E0,4.670441151E-1,7.837054133E0
6.526567133E0,-7.479990959E0,-4.032454967E0,4.499738216E-1,8.509608349E0
6.531365362E0,-7.854631424E0,-4.313623428E0,5.039719343E-1,8.975331169E0
6.536163643E0,-7.880073547E0,-4.565287590E0,7.566049099E-1,9.138372989E0
6.540961872E0,-7.413689613E0,-4.616310120E0,9.371082783E-1,8.783580405E0
6.545760154E0,-6.432822227E0,-4.481911182E0,9.721715450E-1,7.900243488E0
6.550558383E0,-4.876414299E0,-4.286352634E0,1.021472812E0,6.572339159E0
6.555356664E0,-3.411703110E0,-3.998803616E0,1.234627128E0,5.399486328E0
6.560154893E0,-2.300741196E0,-3.851615191E0,1.539347172E0,4.743199273E0
6.564953174E0,-1.399004936E0,-3.711125374E0,1.837213278E0,4.370928846E0
6.569751404E0,-5.745401382E-1,-3.689888954E0,1.862046957E0,4.172840248E0
6.574549685E0,1.035051346E-1,-3.771022797E0,1.915049195E0,4.230690212E0
6.579347914E0,5.757493973E-1,-3.992196560E0,1.999949694E0,4.502101678E0
6.584146195E0,9.096097946E-1,-4.240143299E0,2.086571217E0,4.812482168E0
6.588944476E0,1.158047676E0,-4.511840820E0,2.075699329E0,5.099638194E0
6.593742706E0,1.282957077E0,-4.914014339E0,1.964491844E0,5.445433316E0
6.598540987E0,1.308259964E0,-5.362325668E0,1.784344196E0,5.800858981E0
6.603339216E0,1.233874321E0,-5.836963177E0,1.652883530E0,6.190687274E0
6.608137497E0,1.133935928E0,-6.346761227E0,1.543575168E0,6.629465518E0
6.612935726E0,1.013278008E0,-6.888884544E0,1.608891249E0,7.146467214E0
6.617734008E0,9.477491379E-1,-7.465037346E0,1.282081604E0,7.633396639E0
6.622532237E0,8.480644226E-1,-7.821360588E0,7.960976362E-1,7.907380487E0
6.627330518E0,7.399692535E-1,-8.142006874E0,3.973439932E-1,8.185213051E0
6.632128747E0,6.970949173E-1,-8.338558197E0,-6.830692291E-4,8.367645702E0
6.636927029E0,6.473751068E-1,-8.566257477E0,-2.702233791E-1,8.594933529E0
6.641725310E0,6.431512833E-1,-8.522810936E0,-7.560782433E-1,8.580419811E0
6.646523539E0,6.578178406E-1,-8.002564430E0,-1.448395252E0,8.159142760E0
6.651321820E0,3.757200241E-1,-7.372263432E0,-1.836966515E0,7.606962575E0
6.656120049E0,-5.957031250E-2,-6.232470036E0,-2.477196217E0,6.706991312E0
6.660918331E0,-4.758691788E-1,-5.049801350E0,-3.137893915E0,5.964337630E0
6.665716560E0,-7.414150238E-1,-4.157898426E0,-3.258741617E0,5.334530203E0
6.670514841E0,-1.013666153E0,-3.351402283E0,-3.198922396E0,4.742628050E0
6.675313070E0,-1.222894669E0,-2.690305471E0,-3.171237469E0,4.334738975E0
6.680111351E0,-1.411917686E0,-2.147493124E0,-2.965230227E0,3.924006698E0
6.684909581E0,-1.341616631E0,-1.536180854E0,-2.862087727E0,3.514446323E0
6.689707862E0,-1.105207443E0,-1.044966459E0,-2.631663084E0,3.039586975E0
6.694506091E0,-7.691049576E-1,-6.874461174E-1,-2.148106813E0,2.382953521E0
6.699304372E0,-2.513465881E-1,-2.097034454E-1,-1.584340811E0,1.617802969E0
6.704102654E0,4.489393234E-1,-1.231467724E-2,-8.055636883E-1,9.222966027E-1
6.708900883E0,1.200939178E0,2.650079727E-1,-8.962345123E-2,1.233092251E0
6.713699164E0,2.050388813E0,4.275951385E-1,4.429340363E-1,2.140822844E0
6.718497393E0,2.731859684E0,5.153541565E-1,8.425869942E-1,2.904926864E0
6.723295674E0,3.269130707E0,6.229250431E-1,1.064993620E0,3.494204144E0
6.728093904E0,3.638185024E0,7.792983651E-1,1.240558147E0,3.922076074E0
6.732892185E0,4.008585453E0,9.366833568E-1,1.392062068E0,4.345568990E0
6.737690414E0,4.322684288E0,9.091649055E-1,1.565749407E0,4.686550062E0
6.742488695E0,4.542114258E0,9.627056718E-1,1.800327420E0,4.979837644E0
6.747286924E0,4.683396339E0,1.023047924E0,1.970078945E0,5.182860154E0
6.752085206E0,4.657787800E0,1.029387712E0,1.957231164E0,5.156101248E0
6.756883435E0,4.434018135E0,8.611065149E-1,1.763656497E0,4.848969529E0
6.761681716E0,4.229765892E0,7.015016079E-1,1.734262347E0,4.625007016E0
6.766479945E0,4.054732323E0,4.979821444E-1,1.858829260E0,4.488216421E0
6.771278226E0,3.897193432E0,2.912970781E-1,1.945250034E0,4.365428768E0
6.776076508E0,3.702340126E0,8.373475075E-2,2.002702713E0,4.210124948E0
6.780874737E0,3.460933208E0,-1.200015545E-1,2.054426193E0,4.026552624E0
6.785673018E0,3.256993771E0,-3.035856485E-1,2.071067095E0,3.871626477E0
6.790471247E0,2.999759674E0,-5.245455503E-1,2.040501356E0,3.665699377E0
6.795269529E0,2.754060745E0,-7.640414238E-1,2.010060787E0,3.494131402E0
6.800067758E0,2.529543877E0,-9.817333221E-1,1.972386122E0,3.354504368E0
6.804866039E0,2.302388668E0,-1.151863813E0,1.924978495E0,3.214549117E0
6.809664268E0,2.072615147E0,-1.191534996E0,1.868047595E0,3.033989290E0
6.814462549E0,1.928354740E0,-1.225532055E0,1.737968445E0,2.870716833E0
6.819260779E0,1.768801212E0,-1.282587051E0,1.669489026E0,2.749705599E0
6.824059060E0,1.617500782E0,-1.352743864E0,1.591597319E0,2.641856689E0
6.828857289E0,1.504987240E0,-1.421201348E0,1.445739508E0,2.524868826E0
6.833655570E0,1.416356564E0,-1.418275714E0,1.297778130E0,2.387844214E0
6.838453799E0,1.272616386E0,-1.346644044E0,1.226998091E0,2.222279677E0
6.843252081E0,1.095264435E0,-1.199286938E0,1.154744506E0,1.992819163E0
6.848050362E0,9.390506744E-1,-1.145730019E0,1.012397528E0,1.794285986E0
6.852848591E0,7.846660614E-1,-1.049495697E0,8.459274769E-1,1.559722841E0
6.857646872E0,6.106195450E-1,-1.015752316E0,8.226482868E-1,1.442691651E0
6.862445101E0,5.030136108E-1,-1.003620982E0,7.820987701E-1,1.368194524E0
6.867243383E0,3.972139359E-1,-9.627953768E-1,7.411046028E-1,1.278276136E0
6.872041612E0,2.621898651E-1,-9.075775146E-1,7.210679054E-1,1.188435692E0
6.876839893E0,2.054758072E-1,-8.093973398E-1,6.792001724E-1,1.076409418E0
6.881638122E0,1.504535675E-1,-7.137562037E-1,6.659550667E-1,9.877147083E-1
6.886436404E0,7.327461243E-2,-6.087309122E-1,6.835937500E-1,9.182716958E-1
6.891234633E0,3.847789764E-2,-4.681248665E-1,6.748728752E-1,8.222377010E-1
6.896032914E0,3.886604309E-2,-3.064757586E-1,6.518478394E-1,7.213484356E-1
6.900831143E0,3.134346008E-2,-2.143410444E-1,6.814167500E-1,7.150197780E-1
6.905629424E0,6.130504608E-2,-8.638310432E-2,6.440587044E-1,6.527112410E-1
6.910427654E0,1.263761520E-1,4.861402512E-2,6.233680248E-1,6.379043421E-1
6.915225935E0,1.979465485E-1,1.977152824E-1,6.046977043E-1,6.662833350E-1
6.920024164E0,2.616806030E-1,4.517115355E-1,5.450172424E-1,7.546945368E-1
6.924822445E0,2.840890884E-1,7.052102089E-1,4.398090839E-1,8.783280021E-1
6.929620726E0,2.892503738E-1,9.773554802E-1,3.006439209E-1,1.062674118E0
6.934418956E0,2.842817307E-1,1.299477816E0,-1.446247101E-3,1.330210806E0
6.939217237E0,2.117671967E-1,1.654629469E0,-2.699267864E-1,1.689823806E0
6.944015466E0,1.148195267E-1,2.002096415E0,-5.861256123E-1,2.089286196E0
6.948813747E0,4.614543915E-2,2.320292711E0,-8.379399776E-1,2.467393579E0
6.953611976E0,-1.162128448E-1,2.766749382E0,-1.242632151E0,3.035216999E0
6.958410258E0,-2.742118835E-1,3.214333057E0,-1.663410425E0,3.629609263E0
6.963208487E0,-4.276475906E-1,3.629274845E0,-1.997997046E0,4.164914232E0
6.968006768E0,-5.500707626E-1,4.002087593E0,-2.321185827E0,4.659097186E0
6.972804997E0,-6.291313171E-1,4.179651737E0,-2.438336849E0,4.879629233E0
6.977603279E0,-8.485670090E-1,4.692064285E0,-2.687260151E0,5.473289719E0
6.982401508E0,-9.405202866E-1,5.098797321E0,-2.931375504E0,5.956112396E0
6.987199789E0,-9.768915176E-1,5.533638954E0,-3.129792213E0,6.432035169E0
6.991998018E0,-9.051628113E-1,5.748628616E0,-3.137272835E0,6.611242812E0
6.996796299E0,-7.945709229E-1,5.713952065E0,-2.921897173E0,6.466689589E0
7.001594581E0,-6.833152771E-1,5.638893127E0,-2.764514208E0,6.317165051E0
7.006392810E0,-6.717863083E-1,5.569349289E0,-2.693924904E0,6.223036215E0
7.011191091E0,-8.003740311E-1,5.449971199E0,-2.738765478E0,6.151716915E0
7.015989320E0,-1.009001732E0,5.330168247E0,-2.827112436E0,6.117298649E0
7.020787601E0,-1.416763306E0,5.118498802E0,-2.935542345E0,6.068249922E0
7.025585831E0,-1.962915421E0,4.743271351E0,-2.738894701E0,5.818350646E0
7.030384112E0,-2.402884483E0,4.062313080E0,-2.135111809E0,5.180245538E0
7.035182341E0,-2.693826675E0,3.096897602E0,-1.467596531E0,4.359049953E0
7.039980622E0,-2.925372124E0,2.097286463E0,-1.145356417E0,3.777334231E0
7.044778851E0,-3.201483727E0,1.271827936E0,-1.002298832E0,3.587707806E0
7.049577133E0,-3.525273323E0,5.579868555E-1,-7.919225693E-1,3.655959886E0
7.054375362E0,-3.834948540E0,-1.210696697E-1,-4.913854599E-1,3.868196975E0
7.059173643E0,-4.032913208E0,-7.893395424E-1,-2.500884533E-1,4.117036567E0
7.063971872E0,-4.195884705E0,-1.466171861E0,4.249095917E-3,4.444673940E0
7.068770154E0,-4.350147247E0,-2.063643932E0,2.646822929E-1,4.822080886E0
7.073568383E0,-4.364156723E0,-2.449187756E0,4.671440125E-1,5.026192206E0
7.078366664E0,-4.254795074E0,-2.832127571E0,5.814933777E-1,5.144158070E0
7.083164893E0,-4.036366463E0,-3.113972902E0,6.516926289E-1,5.139434282E0
7.087963174E0,-3.758954048E0,-3.337324619E0,6.259196997E-1,5.065495694E0
7.092761456E0,-3.542116165E0,-3.579279661E0,5.765610933E-1,5.068555269E0
7.097559685E0,-3.309390068E0,-3.756052971E0,5.350911617E-1,5.034512796E0
7.102357966E0,-3.010488510E0,-3.846307278E0,5.442262888E-1,4.914601001E0
7.107156195E0,-2.473279953E0,-3.914041996E0,5.981130600E-1,4.668466312E0
7.111954476E0,-1.975128174E0,-3.988957882E0,7.786533833E-1,4.518762815E0
7.116752706E0,-1.630626678E0,-4.052965641E0,8.621140718E-1,4.452944478E0
7.121550987E0,-1.313042641E0,-4.107268333E0,8.624686003E-1,4.397452243E0
7.126349216E0,-9.841976166E-1,-4.186655998E0,8.725593090E-1,4.388404396E0
7.131147497E0,-7.850942612E-1,-4.268861771E0,9.204611778E-1,4.436981248E0
7.135945726E0,-6.414422989E-1,-4.374851227E0,1.010360837E0,4.535592629E0
7.140744008E0,-5.627727509E-1,-4.506637096E0,1.046510816E0,4.660651883E0
7.145542237E0,-4.774742126E-1,-4.559033871E0,1.058291912E0,4.704546017E0
7.150340518E0,-4.143171310E-1,-4.604182243E0,1.113224745E0,4.754936608E0
7.155138747E0,-3.565130234E-1,-4.661472321E0,1.220890403E0,4.831873250E0
7.159937029E0,-3.518190384E-1,-4.568875313E0,1.336063981E0,4.773202826E0
7.164735258E0,-2.640943527E-1,-4.460899353E0,1.366451859E0,4.672960469E0
7.169533539E0,-1.890296936E-1,-4.337969303E0,1.434325695E0,4.572854699E0
7.174331768E0,-1.431951523E-1,-4.157355309E0,1.558418274E0,4.442158882E0
7.179130049E0,-5.716419220E-2,-3.921637535E0,1.602189302E0,4.236687298E0
7.183928279E0,6.183624268E-2,-3.676135063E0,1.563257694E0,3.995193029E0
7.188726560E0,8.954143524E-2,-3.537598133E0,1.575066328E0,3.873428992E0
7.193524841E0,1.552782059E-1,-3.388752699E0,1.620175481E0,3.759351641E0
7.198323070E0,1.754894257E-1,-3.155796528E0,1.607424736E0,3.545936061E0
7.203121351E0,1.907052994E-1,-2.843889952E0,1.475554705E0,3.209570104E0
7.207919581E0,2.245492935E-1,-2.567903996E0,1.321384311E0,2.896654935E0
7.212717862E0,2.767601013E-1,-2.282606840E0,1.126872301E0,2.560611514E0
7.217516091E0,3.425655365E-1,-1.947623014E0,1.073754668E0,2.250230131E0
7.222314372E0,3.625354767E-1,-1.670393944E0,1.170017958E0,2.071373921E0
7.227112601E0,3.945322037E-1,-1.453064680E0,1.255939245E0,1.960723339E0
7.231910883E0,4.124889374E-1,-1.261622667E0,1.287280917E0,1.849035164E0
7.236709112E0,4.692220688E-1,-1.014787197E0,1.291992545E0,1.708568741E0
7.241507393E0,5.815553665E-1,-7.055320740E-1,1.279239774E0,1.572398343E0
7.246305622E0,7.016992569E-1,-3.414385319E-1,1.237095594E0,1.462657728E0
7.251103904E0,8.153295517E-1,-3.492736816E-2,1.148810148E0,1.409165340E0
7.255902133E0,9.632234573E-1,2.617276907E-1,1.174168587E0,1.541094638E0
7.260700414E0,1.140575409E0,5.650783777E-1,1.157769203E0,1.720655504E0
7.265498643E0,1.284948349E0,7.631720304E-1,1.052474737E0,1.827902317E0
7.270296924E0,1.367371559E0,9.211196899E-1,9.858574867E-1,1.920958471E0
7.275095154E0,1.416376114E0,1.053663373E0,9.272751808E-1,1.994032863E0
7.279893435E0,1.462952614E0,1.110998034E0,9.532818794E-1,2.069611878E0
7.284691716E0,1.478380680E0,1.162740827E0,1.035013199E0,2.146818108E0
7.289489945E0,1.414916992E0,1.175460458E0,1.062322378E0,2.124200136E0
7.294288174E0,1.366130829E0,1.203743577E0,1.275960326E0,2.223372842E0
7.299086456E0,1.252817154E0,1.409621477E0,9.818236828E-1,2.126161159E0
7.303884737E0,1.134025574E0,1.535142183E0,6.348558664E-1,2.011396902E0
7.308682966E0,1.076556206E0,1.776503801E0,6.441416740E-1,2.174823560E0
7.313481247E0,1.092506409E0,1.935097575E0,7.240949869E-1,2.337196275E0
7.318279476E0,1.081479073E0,2.163721085E0,6.977576017E-1,2.517568586E0
7.323077758E0,1.053214073E0,2.420972109E0,6.777153015E-1,2.725740976E0
7.327875987E0,1.053252220E0,2.670423269E0,5.900200605E-1,2.930635485E0
7.332674268E0,1.086510658E0,2.809004307E0,6.303906441E-1,3.077077017E0
7.337472497E0,1.155508995E0,2.972792864E0,6.429867744E-1,3.253633421E0
7.342270779E0,1.226885796E0,3.090070724E0,7.061569691E-1,3.398888569E0
7.347069008E0,1.245870590E0,3.175247192E0,7.664718628E-1,3.495978744E0
7.351867289E0,1.253206253E0,3.331022024E0,7.330448627E-1,3.633674230E0
7.356665518E0,1.191518784E0,3.487950087E0,6.731292009E-1,3.746814079E0
7.361463799E0,1.120463371E0,3.734431982E0,5.015031099E-1,3.931020957E0
7.366262029E0,1.066061020E0,3.917473793E0,3.102375269E-1,4.071772874E0
7.371060310E0,1.032967567E0,3.982509136E0,2.691402435E-1,4.123085918E0
7.375858539E0,9.185466766E-1,3.913302183E0,3.626586199E-1,4.035986032E0
7.380656820E0,7.112226486E-1,3.853267670E0,3.817605972E-1,3.936908755E0
7.385455049E0,5.593929291E-1,3.811802387E0,3.620947599E-1,3.869608572E0
7.390253331E0,4.009714127E-1,3.791020155E0,3.226397038E-1,3.825795116E0
7.395051612E0,2.194175720E-1,3.742912769E0,3.154664040E-1,3.762586759E0
7.399849841E0,-6.526947021E-3,3.667197943E0,3.017337322E-1,3.679595983E0
7.404648122E0,-1.476316452E-1,3.589780807E0,2.216825485E-1,3.599647830E0
7.409446351E0,-2.923936844E-1,3.515299082E0,1.423337460E-1,3.530308853E0
7.414244633E0,-4.574594498E-1,3.424526691E0,9.213089943E-2,3.456174230E0
7.419042862E0,-5.543394089E-1,3.353360891E0,7.794857025E-2,3.399764319E0
7.423841091E0,-6.141967773E-1,3.282824993E0,5.889868736E-2,3.340306374E0
7.428639372E0,-6.252393723E-1,3.198784351E0,6.452798843E-3,3.259323126E0
7.433437654E0,-5.494365692E-1,3.125359774E0,-2.407240868E-2,3.173378915E0
7.438235883E0,-5.303821564E-1,3.043483019E0,-7.069015503E-2,3.090160387E0
7.443034164E0,-4.342956543E-1,3.003469229E0,-1.282598972E-1,3.037415139E0
7.447832393E0,-3.570146561E-1,2.952838182E0,-2.035251856E-1,2.981297586E0
7.452630674E0,-2.341156006E-1,2.851046562E0,-3.007812500E-1,2.876411997E0
7.457428904E0,-8.487415314E-2,2.750736475E0,-4.052293301E-1,2.781719897E0
7.462227185E0,3.090953827E-2,2.665993929E0,-5.211818218E-1,2.716635699E0
7.467025414E0,1.586189270E-1,2.580012798E0,-6.075968742E-1,2.655334247E0
7.471823695E0,3.460416794E-1,2.440066099E0,-7.001569271E-1,2.562008418E0
7.476621924E0,4.712257385E-1,2.365622282E0,-8.465228081E-1,2.556330054E0
7.481420206E0,6.202135086E-1,2.284927607E0,-9.889370203E-1,2.565843992E0
7.486218435E0,7.259883881E-1,2.207639217E0,-1.177285194E0,2.605135406E0
7.491016716E0,8.005027771E-1,2.203031063E0,-1.406387687E0,2.733509994E0
7.495814945E0,8.556556702E-1,2.204000711E0,-1.759168863E0,2.946937538E0
7.500613226E0,8.506488800E-1,2.246312857E0,-2.255730629E0,3.295124525E0
7.505411456E0,8.594465256E-1,2.260613441E0,-2.794382334E0,3.695618228E0
7.510209737E0,8.005962372E-1,2.261332750E0,-3.321520567E0,4.097203805E0
7.515007966E0,7.170906067E-1,2.212846994E0,-3.750841618E0,4.413583986E0
7.519806247E0,5.754365921E-1,2.146571636E0,-4.166256905E0,4.721926901E0
7.524604476E0,4.641370773E-1,1.974386215E0,-4.491908550E0,4.928576526E0
7.529402758E0,3.879728317E-1,1.699271798E0,-4.652451038E0,4.968233914E0
7.534201039E0,2.872552872E-1,1.386435270E0,-4.685371399E0,4.894632111E0
7.538999268E0,2.003765106E-1,1.019878626E0,-4.556647778E0,4.673686139E0
7.543797549E0,1.370706558E-1,6.957508326E-1,-4.311092854E0,4.369024969E0
7.548595779E0,1.619434357E-1,3.832668066E-1,-4.019071579E0,4.040551383E0
7.553394060E0,2.296609879E-1,1.279480457E-1,-3.667257786E0,3.676668946E0
7.558192289E0,3.045063019E-1,-1.229426861E-1,-3.328114510E0,3.344276481E0
7.562990570E0,3.650836945E-1,-2.691826820E-1,-2.999537706E0,3.033640037E0
7.567788799E0,5.404872894E-1,-3.805160522E-1,-2.688330650E0,2.768400380E0
7.572587081E0,6.202621460E-1,-4.025592804E-1,-2.436781406E0,2.546504021E0
7.577385310E0,6.643104553E-1,-4.100162983E-1,-2.151193619E0,2.288461433E0
7.582183591E0,5.341243744E-1,-4.511034489E-1,-1.786016345E0,1.917977464E0
7.586981820E0,2.802352905E-1,-5.139510632E-1,-1.370501995E0,1.490286292E0
7.591780101E0,-8.756256104E-2,-6.273443699E-1,-1.053116322E0,1.228935371E0
7.596578331E0,-6.167812347E-1,-7.343139648E-1,-7.909424305E-1,1.243071204E0
7.601376612E0,-1.156766891E0,-8.422594070E-1,-7.432987690E-1,1.612452669E0
7.606174841E0,-1.741177559E0,-1.003800154E0,-7.965555191E-1,2.161900723E0
7.610973122E0,-2.327208519E0,-1.175657034E0,-8.348112106E-1,2.737695876E0
7.615771351E0,-2.817191124E0,-1.352646589E0,-8.593666553E-1,3.241100071E0
7.620569633E0,-3.163651466E0,-1.486727238E0,-8.312765360E-1,3.593058469E0
7.625367862E0,-3.357451439E0,-1.558232307E0,-7.715562582E-1,3.780987589E0
7.630166143E0,-3.353549957E0,-1.555155873E0,-7.130149603E-1,3.764730726E0
7.634964372E0,-3.083048820E0,-1.529969215E0,-6.670641899E-1,3.505848038E0
7.639762654E0,-2.613192558E0,-1.444610715E0,-6.025798321E-1,3.046108652E0
7.644560883E0,-2.094624519E0,-1.311479092E0,-5.105354786E-1,2.523504658E0
7.649359164E0,-1.632363319E0,-1.336567402E0,-5.111224651E-1,2.170776037E0
7.654157393E0,-1.290717125E0,-1.446081042E0,-6.523895264E-1,2.045168250E0
7.658955674E0,-9.570055008E-1,-1.618651986E0,-7.270843983E-1,2.016071800E0
7.663753904E0,-7.385349274E-1,-1.765964389E0,-8.605139256E-1,2.098701569E0
7.668552185E0,-5.800199509E-1,-2.026550770E0,-1.008135557E0,2.336593347E0
7.673350414E0,-4.716892242E-1,-2.332658291E0,-1.118509769E0,2.629610148E0
7.678148695E0,-4.540834427E-1,-2.685979605E0,-1.314127207E0,3.024501368E0
7.682946924E0,-5.750141144E-1,-3.054855824E0,-1.585108280E0,3.489319933E0
7.687745206E0,-7.510528564E-1,-3.429187536E0,-2.013705254E0,4.047025624E0
7.692543435E0,-9.349098206E-1,-3.832480907E0,-2.502015352E0,4.671407400E0
7.697341716E0,-1.191586494E0,-4.097420692E0,-2.959614515E0,5.193077391E0
7.702139945E0,-1.444858551E0,-4.415294647E0,-3.306545734E0,5.702252866E0
7.706938226E0,-1.632592201E0,-4.669270515E0,-3.478402615E0,6.047043012E0
7.711736456E0,-1.759466171E0,-4.814315319E0,-3.485735655E0,6.198685849E0
7.716534737E0,-1.873201370E0,-4.862279415E0,-3.475485802E0,6.263357410E0
7.721333018E0,-2.002159119E0,-4.761176109E0,-3.367506027E0,6.165836190E0
7.726131247E0,-2.083724976E0,-4.562170029E0,-3.105866671E0,5.899297663E0
7.730929476E0,-2.060611725E0,-4.277691841E0,-3.070552111E0,5.654472427E0
7.735727758E0,-2.011878967E0,-3.910940647E0,-3.021738529E0,5.336105084E0
7.740526039E0,-1.904229164E0,-3.567814827E0,-3.037649632E0,5.057935017E0
7.745324268E0,-1.749835968E0,-3.179412365E0,-3.048357248E0,4.739522214E0
7.750122549E0,-1.560968399E0,-2.860472679E0,-3.086717367E0,4.488513161E0
7.754920779E0,-1.359084129E0,-2.446325302E0,-3.059912205E0,4.146646821E0
7.759719060E0,-1.203243256E0,-2.083385229E0,-2.781353712E0,3.677528629E0
7.764517289E0,-1.118681908E0,-1.795330524E0,-2.287919283E0,3.115964626E0
7.769315570E0,-9.466524124E-1,-1.524033308E0,-1.922128677E0,2.629335841E0
7.774113799E0,-6.655578613E-1,-8.988434076E-1,-1.861052275E0,2.171267443E0
7.778912081E0,-1.973752975E-1,-4.575958252E-1,-1.688811064E0,1.760804860E0
7.783710310E0,4.715719223E-1,-2.477276325E-1,-3.062057972E0,3.108045701E0
7.788508591E0,8.975000381E-1,-1.662324667E-1,-2.325201035E0,2.497939031E0
7.793306820E0,1.393338203E0,-6.008386612E-3,-1.375997782E0,1.958263860E0
7.798105101E0,2.084756851E0,-3.948700428E-2,-4.358730316E-1,2.130200848E0
7.802903331E0,2.685540199E0,-8.397889137E-2,3.497605324E-1,2.709522291E0
7.807701612E0,3.172112942E0,-9.845733643E-2,8.373672962E-1,3.282252024E0
7.812499841E0,3.463107586E0,-1.040602922E-1,1.149959326E0,3.650527242E0
7.817298122E0,3.679962158E0,-1.315358877E-1,1.287142754E0,3.900789618E0
7.822096351E0,3.907906055E0,-2.854511738E-1,1.308669806E0,4.131080824E0
7.826894633E0,3.945384979E0,-4.526644945E-1,1.390999556E0,4.207831691E0
7.831692862E0,3.951908588E0,-5.708237886E-1,1.368907928E0,4.221057949E0
7.836491143E0,3.940987587E0,-7.667627335E-1,1.256752014E0,4.206986317E0
7.841289372E0,3.864279747E0,-9.804786444E-1,1.216209412E0,4.168112483E0
7.846087654E0,3.695586681E0,-1.166697860E0,1.252025366E0,4.072605104E0
7.850885883E0,3.497447968E0,-1.340011716E0,1.413632154E0,4.003264862E0
7.855684164E0,3.392213345E0,-1.598851919E0,1.566073418E0,4.063991238E0
7.860482393E0,3.373014927E0,-1.769145489E0,1.648690462E0,4.150335613E0
7.865280674E0,3.368554592E0,-1.868340135E0,1.837308526E0,4.267734471E0
7.870078904E0,3.269454002E0,-1.911273241E0,2.032461643E0,4.298045510E0
7.874877185E0,3.171795368E0,-1.934347034E0,2.171190023E0,4.303028053E0
7.879675414E0,3.173721313E0,-1.966823816E0,2.258078814E0,4.363464544E0
7.884473695E0,3.246320248E0,-1.944836259E0,2.260175228E0,4.407876505E0
7.889271924E0,3.322534561E0,-2.005101442E0,2.333162308E0,4.528058531E0
7.894070206E0,3.407148361E0,-2.006658077E0,2.464969873E0,4.659550737E0
7.898868435E0,3.442663670E0,-2.021176577E0,2.560179710E0,4.742531818E0
7.903666716E0,3.436117649E0,-1.960314989E0,2.540458202E0,4.701453736E0
7.908464945E0,3.466235638E0,-1.881626010E0,2.561771870E0,4.702975765E0
7.913263226E0,3.468279839E0,-1.866144300E0,2.595697403E0,4.716895652E0
7.918061456E0,3.485111713E0,-1.827794075E0,2.537558317E0,4.682524645E0
7.922859737E0,3.511658192E0,-1.785634637E0,2.510043859E0,4.671247637E0
