"Time (s)","Linear Acceleration x (m/s^2)","Linear Acceleration y (m/s^2)","Linear Acceleration z (m/s^2)","Absolute acceleration (m/s^2)"
8.960216000E-3,0.000000000E0,0.000000000E0,0.000000000E0,0.000000000E0
1.385365300E-2,-7.349848747E-2,2.015590668E-3,3.972005844E-2,8.356897336E-2
1.874755900E-2,-1.267859936E-1,2.394294739E-2,1.557378769E-1,2.022430201E-1
2.364136100E-2,-1.954805851E-1,-1.259160042E-1,6.007885933E-1,6.442161385E-1
2.853516400E-2,-3.001377583E-1,-2.777223587E-1,7.461690903E-1,8.508705505E-1
3.342896600E-2,-4.181411266E-1,-4.563827515E-1,8.089938164E-1,1.018625649E0
3.832276800E-2,-6.405165195E-1,-6.601758003E-1,8.389992714E-1,1.244995292E0
4.321651800E-2,-8.912739754E-1,-8.590269089E-1,6.752429008E-1,1.410053015E0
4.811032000E-2,-1.167885542E0,-1.136622429E0,3.990139961E-1,1.677819822E0
5.300412200E-2,-1.413938046E0,-1.301074028E0,2.503409386E-1,1.937700959E0
5.789792400E-2,-1.725045204E0,-1.347437859E0,1.274456978E-1,2.192626768E0
6.279172600E-2,-2.597268105E0,-8.497400284E-1,3.697252274E-2,2.732988600E0
6.768552800E-2,-2.499460220E0,-1.007197618E0,1.872134209E-1,2.701258466E0
7.257927800E-2,-2.148570061E0,-1.053447485E0,2.579712868E-1,2.406793322E0
7.747308000E-2,-1.702918053E0,-1.186647415E0,8.124685287E-2,2.077176698E0
8.236688200E-2,-1.368683338E0,-1.221545935E0,-2.049865723E-1,1.845938256E0
8.726068400E-2,-1.128075123E0,-1.217116833E0,-5.368518829E-1,1.744172242E0
9.215448600E-2,-1.067310333E0,-1.041568995E0,-8.876528740E-1,1.735495590E0
9.704828900E-2,-1.104024410E0,-6.984441280E-1,-1.313097954E0,1.852274368E0
1.019420390E-1,-1.706349373E0,2.114362717E-1,-1.843492985E0,2.520872838E0
1.068358410E-1,-1.908054829E0,6.003437042E-1,-2.445118427E0,3.159064722E0
1.117296430E-1,-2.016897917E0,9.313478470E-1,-3.019387722E0,3.748598169E0
1.166234450E-1,-2.023099899E0,1.200223446E0,-3.394017458E0,4.129506511E0
1.215172470E-1,-1.966005325E0,1.335815430E0,-3.508372068E0,4.237718062E0
1.264109970E-1,-1.865578890E0,1.326817989E0,-3.415750504E0,4.111955991E0
1.313047990E-1,-1.793595791E0,1.200712204E0,-3.242048502E0,3.894813750E0
1.361986010E-1,-1.741028547E0,9.584550858E-1,-3.039298534E0,3.631411865E0
1.410924030E-1,-1.676235199E0,6.629629135E-1,-2.806997776E0,3.335943762E0
1.459862050E-1,-1.559482098E0,2.963929176E-1,-2.503178120E0,2.964073864E0
1.508800070E-1,-1.449808359E0,-6.607937813E-2,-2.112815380E0,2.563259564E0
1.557738090E-1,-1.358431101E0,-3.981103897E-1,-1.646753788E0,2.171548981E0
1.606675590E-1,-1.206127405E0,-7.271704674E-1,-1.087793350E0,1.779554601E0
1.655613610E-1,-1.108798981E0,-1.031147480E0,-4.656252861E-1,1.584142422E0
1.704551640E-1,-1.386056900E0,-1.432274818E0,2.430229187E-1,2.007890690E0
1.753489660E-1,-1.347337961E0,-1.793389440E0,2.819690704E-1,2.260767971E0
1.802427680E-1,-8.324587345E-1,-2.016433239E0,5.322632790E-1,2.245505455E0
1.851365180E-1,-4.768893719E-1,-2.147915840E0,1.049374580E0,2.437653162E0
1.900303200E-1,-4.402287006E-1,-2.233049393E0,1.803181171E0,2.903751580E0
1.949241220E-1,-3.284304142E-1,-2.459981203E0,2.466177464E0,3.498771976E0
1.998179240E-1,-9.455800056E-2,-2.739146233E0,2.912713528E0,3.999470389E0
2.047117260E-1,8.167290688E-2,-2.954921722E0,3.185686111E0,4.345897934E0
2.096055280E-1,1.581811905E-1,-3.166616917E0,3.359280109E0,4.619225784E0
2.144992780E-1,2.337417603E-1,-3.254454851E0,3.487015724E0,4.775498953E0
2.193930800E-1,3.340899944E-1,-3.316290379E0,3.648962021E0,4.942096906E0
2.242868820E-1,4.510290623E-1,-3.386941910E0,3.860082150E0,5.155098148E0
2.291806840E-1,5.529668331E-1,-3.409230709E0,4.032067299E0,5.309067060E0
2.340744860E-1,6.018052101E-1,-3.411508560E0,4.240037918E0,5.475260881E0
2.389682890E-1,6.560795307E-1,-3.306886673E0,4.461559296E0,5.592088265E0
2.438620390E-1,7.495827675E-1,-3.251754761E0,4.723935127E0,5.783713896E0
2.487558410E-1,8.173708916E-1,-3.280099392E0,4.927575111E0,5.975629145E0
2.535556320E-1,8.960874081E-1,-3.354114771E0,4.997733116E0,6.085260458E0
2.583534970E-1,1.001969576E0,-3.400863647E0,5.007553101E0,6.135585109E0
2.631513610E-1,1.086996078E0,-3.392584324E0,5.028247833E0,6.162342504E0
2.679492260E-1,1.155759811E0,-3.341730356E0,4.995855331E0,6.120581100E0
2.727470910E-1,1.290289164E0,-3.227658272E0,4.925083160E0,6.028189461E0
2.775449030E-1,1.439772606E0,-3.156835079E0,4.823338509E0,5.941645163E0
2.823427680E-1,1.559031606E0,-3.116458178E0,4.660300255E0,5.819045419E0
2.871406320E-1,1.707405806E0,-3.068011761E0,4.427387238E0,5.650636115E0
2.919384970E-1,1.879717946E0,-2.992737055E0,4.200866699E0,5.489726374E0
2.967363610E-1,2.028784752E0,-2.888460398E0,3.919329643E0,5.274496743E0
3.015342260E-1,2.176592350E0,-2.764888525E0,3.630695343E0,5.056096467E0
3.063320390E-1,2.337884665E0,-2.685605288E0,3.318594933E0,4.867366104E0
3.111299030E-1,2.475454807E0,-2.557891846E0,2.992862701E0,4.650582151E0
3.159277680E-1,2.621322870E0,-2.460329294E0,2.635120392E0,4.457399837E0
3.207256320E-1,2.733731270E0,-2.380768061E0,2.290762901E0,4.288232490E0
3.255234970E-1,2.794681549E0,-2.269670248E0,2.006736755E0,4.121727842E0
3.303213610E-1,2.826076746E0,-2.167948961E0,1.798588753E0,3.990192223E0
3.351191740E-1,2.847017765E0,-2.057140112E0,1.622752190E0,3.869193749E0
3.399170390E-1,2.919137239E0,-1.951891899E0,1.379826546E0,3.772951829E0
3.447149030E-1,2.971366405E0,-1.857170582E0,1.087440491E0,3.668872811E0
3.495127680E-1,3.025629520E0,-1.789529324E0,8.407707214E-1,3.614380251E0
3.543106320E-1,3.068083763E0,-1.751077175E0,5.566930771E-1,3.576215378E0
3.591084450E-1,3.070810318E0,-1.680224538E0,2.995100021E-1,3.513223128E0
3.639063090E-1,3.067406178E0,-1.615161419E0,5.230712891E-2,3.467053952E0
3.687041740E-1,3.074556351E0,-1.548877001E0,-1.873521805E-1,3.447755438E0
3.735020390E-1,3.089716434E0,-1.502568722E0,-4.384908676E-1,3.463572527E0
3.782999030E-1,3.148527622E0,-1.433451533E0,-7.126436234E-1,3.532119820E0
3.830977680E-1,3.172819138E0,-1.431291819E0,-1.009455681E0,3.624138287E0
3.878955800E-1,3.217752457E0,-1.417200565E0,-1.290697575E0,3.745435695E0
3.926934450E-1,3.278791904E0,-1.388833642E0,-1.575291634E0,3.893697339E0
3.974913090E-1,3.334895134E0,-1.381610274E0,-1.858301640E0,4.060007080E0
4.022891740E-1,3.369910240E0,-1.397499323E0,-2.149022102E0,4.234099123E0
4.070870390E-1,3.349325180E0,-1.454866409E0,-2.461236000E0,4.403668707E0
4.118849030E-1,3.288315058E0,-1.463288426E0,-2.747135162E0,4.527800850E0
4.166827160E-1,3.132854700E0,-1.411549568E0,-2.964278221E0,4.538082869E0
4.214805800E-1,3.027745962E0,-1.302816510E0,-3.103899002E0,4.527556238E0
4.262784450E-1,2.940998554E0,-1.201920748E0,-3.221122265E0,4.524346873E0
4.310763090E-1,2.843475103E0,-1.149061680E0,-3.398845673E0,4.577973931E0
4.358741740E-1,2.739387274E0,-1.134093285E0,-3.525171280E0,4.606217838E0
4.406720390E-1,2.649215221E0,-1.135065556E0,-3.605545521E0,4.615915251E0
4.454698510E-1,2.643143177E0,-1.151533604E0,-3.678415060E0,4.673646633E0
4.502677160E-1,2.615509033E0,-1.149800062E0,-3.772423506E0,4.732241202E0
4.550655800E-1,2.537638664E0,-1.222066402E0,-3.896908760E0,4.808217358E0
4.598634450E-1,2.451891899E0,-1.317157984E0,-3.973892212E0,4.851649034E0
4.646613090E-1,2.404751062E0,-1.396459103E0,-4.013915539E0,4.883077273E0
4.694591740E-1,2.357077122E0,-1.414699078E0,-4.051109314E0,4.895781114E0
4.742570390E-1,2.388685465E0,-1.502173424E0,-4.081433296E0,4.961898930E0
4.790548510E-1,2.436884165E0,-1.605337143E0,-4.176633835E0,5.095074285E0
4.838527160E-1,2.505904436E0,-1.796597958E0,-4.239764214E0,5.242415650E0
4.886505800E-1,2.561903954E0,-1.938967586E0,-4.243901253E0,5.322935751E0
4.934484450E-1,2.582917690E0,-2.180886984E0,-4.632503510E0,5.734790371E0
4.982463090E-1,2.561054468E0,-2.950795889E0,-6.089742661E0,7.235410288E0
5.030441740E-1,2.648523092E0,-2.970020771E0,-5.610366821E0,6.878365636E0
5.078419860E-1,2.769081354E0,-2.714164734E0,-4.471011162E0,5.918145196E0
5.126398510E-1,2.958873034E0,-2.570977688E0,-2.943624258E0,4.902017918E0
5.174377160E-1,3.249916553E0,-2.683455944E0,-2.626555681E0,4.966053580E0
5.222355800E-1,3.522940159E0,-2.983592987E0,-2.529816389E0,5.264304839E0
5.270334450E-1,3.762553453E0,-3.349677563E0,-2.908948898E0,5.817141219E0
5.318313090E-1,3.719958544E0,-4.147201538E0,-3.234997272E0,6.442249570E0
5.366291220E-1,3.688995600E0,-4.596159458E0,-3.390998840E0,6.799429640E0
5.414269860E-1,3.734286308E0,-4.652963161E0,-3.367750406E0,6.851036652E0
5.462248510E-1,3.882153034E0,-4.554616928E0,-3.423404932E0,6.894588376E0
5.510227160E-1,4.052356243E0,-4.422142506E0,-3.611779451E0,7.001563130E0
5.558205800E-1,4.068356037E0,-4.254083633E0,-3.886585951E0,7.053672714E0
5.606184450E-1,3.920149326E0,-3.974479914E0,-4.182204247E0,6.975305992E0
5.654162570E-1,3.653258324E0,-3.552780628E0,-4.717291355E0,6.944161886E0
5.702141220E-1,3.357712984E0,-3.457722187E0,-5.406583309E0,7.243011962E0
5.750119860E-1,2.524613857E0,-3.397720575E0,-5.147754192E0,6.664649538E0
5.798098510E-1,1.336541176E0,-3.398920536E0,-4.672936916E0,5.930880419E0
5.846077160E-1,8.244438171E-1,-3.494332790E0,-5.041857719E0,6.189539443E0
5.894055800E-1,4.117870331E-2,-3.613259077E0,-4.707104683E0,5.934152959E0
5.942033930E-1,-8.810806274E-1,-3.690886021E0,-3.993336439E0,5.508691188E0
5.990012570E-1,-1.602233410E0,-3.892890692E0,-3.163555622E0,5.265912458E0
6.037991220E-1,-2.339684963E0,-4.101284027E0,-2.207769871E0,5.212379898E0
6.085969860E-1,-3.019152641E0,-4.258555412E0,-1.158770561E0,5.347272771E0
6.133948510E-1,-3.660033226E0,-4.251405239E0,6.237857342E-1,5.644413022E0
6.181927160E-1,-3.864028454E0,-4.140108585E0,1.799917221E0,5.942298965E0
6.229905280E-1,-3.906722546E0,-4.100388050E0,2.185642481E0,6.070642162E0
6.277883930E-1,-3.980226040E0,-4.258638859E0,3.019613743E0,6.564775047E0
6.325862570E-1,-4.041800976E0,-4.433036804E0,3.423164368E0,6.906954808E0
6.373841220E-1,-3.881385803E0,-4.762863159E0,3.415039301E0,7.029403577E0
6.421819860E-1,-3.779205322E0,-5.264299870E0,3.212350607E0,7.232872348E0
6.469798510E-1,-3.977996349E0,-5.781936169E0,2.959816217E0,7.616807261E0
6.517776640E-1,-4.710384846E0,-6.253678322E0,2.875645399E0,8.340596766E0
6.565755280E-1,-5.994792461E0,-6.529704571E0,3.136545658E0,9.402791984E0
6.613733930E-1,-7.776896954E0,-6.492409706E0,3.801920176E0,1.082063339E1
6.661712570E-1,-9.689247131E0,-6.082711220E0,4.688184738E0,1.236365488E1
6.709691220E-1,-1.144881630E1,-5.394545555E0,5.419434547E0,1.376759918E1
6.757669860E-1,-1.293483448E1,-4.648157120E0,5.425068378E0,1.477655828E1
6.805648510E-1,-1.423746490E1,-3.961696625E0,5.640217781E0,1.581810683E1
6.853626640E-1,-1.574770927E1,-3.677146435E0,6.758763313E0,1.752691173E1
6.901605280E-1,-1.741718864E1,-3.644537926E0,8.823496819E0,1.986190356E1
6.949583930E-1,-1.889204979E1,-3.552918911E0,1.118131542E1,2.223858342E1
6.997562570E-1,-1.989504051E1,-3.124730349E0,1.344633293E1,2.421529364E1
7.045541220E-1,-2.028738022E1,-2.536419630E0,1.496340179E1,2.533603390E1
7.093519860E-1,-2.020430374E1,-1.915760040E0,1.589131260E1,2.577630389E1
7.141497990E-1,-1.978985977E1,-1.322432280E0,1.643621063E1,2.575920024E1
7.189476640E-1,-1.916609192E1,-7.721307278E-1,1.655228996E1,2.533601327E1
7.237455280E-1,-1.839513397E1,-3.726608753E-1,1.629541206E1,2.457763789E1
7.285433930E-1,-1.755086517E1,-1.023552418E-1,1.566780186E1,2.352707717E1
7.333412570E-1,-1.654759216E1,1.500616074E-1,1.485697746E1,2.223904459E1
7.381391220E-1,-1.545254135E1,1.246526241E-1,1.376902580E1,2.069740670E1
7.429369340E-1,-1.431374359E1,-4.844665527E-2,1.253475094E1,1.902644433E1
7.477347990E-1,-1.315269470E1,-2.965593338E-1,1.110441494E1,1.721596226E1
7.525326640E-1,-1.195272064E1,-6.157727242E-1,9.721337318E0,1.541917981E1
7.573305280E-1,-1.074459553E1,-8.639225960E-1,8.278317451E0,1.359129262E1
7.621283930E-1,-9.520669937E0,-1.063671827E0,6.918292046E0,1.181682354E1
7.669262570E-1,-8.311327934E0,-1.183136940E0,5.701497078E0,1.014815520E1
7.717240700E-1,-7.199079514E0,-1.174217701E0,4.648891449E0,8.649723970E0
7.765219340E-1,-6.201827049E0,-1.096116304E0,3.742498398E0,7.326010098E0
7.813197990E-1,-5.306438446E0,-1.062494755E0,2.895222902E0,6.137548349E0
7.861176640E-1,-4.464259148E0,-9.177076817E-1,2.160361290E0,5.043704792E0
7.909155280E-1,-3.753256798E0,-8.754680157E-1,1.556849718E0,4.156580552E0
7.957133930E-1,-3.091552734E0,-8.011791706E-1,9.917242527E-1,3.344114736E0
8.005112570E-1,-2.476450920E0,-7.653677464E-1,5.338895321E-1,2.646438168E0
8.053090700E-1,-1.936261177E0,-7.695608139E-1,1.396808624E-1,2.088262899E0
8.101069340E-1,-1.482687950E0,-8.079019785E-1,-1.442801952E-1,1.694663961E0
8.149047990E-1,-1.063243866E0,-8.153970242E-1,-3.600022793E-1,1.387429806E0
8.197026640E-1,-7.114048004E-1,-8.795287609E-1,-5.586597919E-1,1.261653040E0
8.245005280E-1,-3.582086563E-1,-9.730139971E-1,-7.150819302E-1,1.259528422E0
8.292983410E-1,-2.071285248E-2,-1.090108514E0,-8.422517776E-1,1.377734971E0
8.340962050E-1,2.889223099E-1,-1.187252998E0,-9.435625076E-1,1.543812161E0
8.388940700E-1,6.132240295E-1,-1.304241896E0,-1.032119989E0,1.772670952E0
8.436919340E-1,9.613246918E-1,-1.428312063E0,-1.122982979E0,2.055556198E0
8.484897990E-1,1.268610954E0,-1.522951722E0,-1.200108767E0,2.317113884E0
8.532876640E-1,1.539836884E0,-1.592705131E0,-1.252419472E0,2.544869701E0
8.580855280E-1,1.798871040E0,-1.646762848E0,-1.306691885E0,2.766804760E0
8.628833410E-1,2.059910297E0,-1.682525754E0,-1.365850687E0,2.989928334E0
8.676812050E-1,2.289527893E0,-1.690296412E0,-1.442221165E0,3.190461067E0
8.724790700E-1,2.525964737E0,-1.660753727E0,-1.543111801E0,3.394082324E0
8.772769340E-1,2.747782230E0,-1.617797852E0,-1.623349190E0,3.578105597E0
8.820747990E-1,2.969402313E0,-1.611320019E0,-1.740194082E0,3.800260221E0
8.868726640E-1,3.160045147E0,-1.586384892E0,-1.869487047E0,3.999685510E0
8.916704760E-1,3.329463005E0,-1.538284779E0,-1.958830118E0,4.157963371E0
8.964683410E-1,3.480255604E0,-1.531489849E0,-2.063117743E0,4.325979085E0
9.012662050E-1,3.633983612E0,-1.494626880E0,-2.141883135E0,4.475199411E0
9.060640700E-1,3.774052620E0,-1.435110211E0,-2.240431070E0,4.617634230E0
9.108619340E-1,3.926891804E0,-1.429529786E0,-2.353632927E0,4.796209191E0
9.156597990E-1,4.061627865E0,-1.406369686E0,-2.462175369E0,4.953484042E0
9.204576110E-1,4.214193344E0,-1.420652390E0,-2.596835136E0,5.149876841E0
9.252554760E-1,4.337097168E0,-1.422377825E0,-2.702368975E0,5.304372592E0
9.300533410E-1,4.468723774E0,-1.456888914E0,-2.847737074E0,5.495600415E0
9.348512050E-1,4.611583710E0,-1.478865862E0,-2.968183041E0,5.680128441E0
9.396490700E-1,4.730161667E0,-1.512351751E0,-3.075298786E0,5.841155694E0
9.444469340E-1,4.872404575E0,-1.545458436E0,-3.216409683E0,6.039375744E0
9.492447470E-1,4.990822792E0,-1.573505998E0,-3.345707893E0,6.211118625E0
9.540426110E-1,5.114358902E0,-1.613339186E0,-3.474734545E0,6.390094715E0
9.588404760E-1,5.231308937E0,-1.665005088E0,-3.622171402E0,6.577154461E0
9.636383410E-1,5.332395554E0,-1.695144415E0,-3.725692511E0,6.722257181E0
9.684362050E-1,5.436914921E0,-1.746822119E0,-3.842406750E0,6.882987796E0
9.732340700E-1,5.487911701E0,-1.800974488E0,-3.914779663E0,6.977548549E0
9.780318820E-1,5.552315712E0,-1.881413102E0,-3.985959053E0,7.089132147E0
9.828297470E-1,5.637210846E0,-1.914300442E0,-4.020277023E0,7.183684267E0
9.876276110E-1,5.678233624E0,-1.961783051E0,-4.029807091E0,7.233966755E0
9.924254760E-1,5.718371391E0,-1.973763347E0,-4.012484074E0,7.259169481E0
9.972233410E-1,5.738477230E0,-2.007519484E0,-4.028187752E0,7.292911076E0
1.002021205E0,5.719459534E0,-2.041406393E0,-3.984155416E0,7.263129615E0
1.006819070E0,5.682786465E0,-2.054021120E0,-3.928587914E0,7.207417551E0
1.011616882E0,5.606996536E0,-2.047924042E0,-3.895084858E0,7.127698723E0
1.016414747E0,5.523139954E0,-2.030653715E0,-3.840831757E0,7.027134412E0
1.021212611E0,5.404835224E0,-2.092980862E0,-3.752046585E0,6.904394707E0
1.026010476E0,5.259067059E0,-2.213277102E0,-3.634266138E0,6.764929580E0
1.030808341E0,5.135454178E0,-2.410459280E0,-3.462439299E0,6.646178560E0
1.035606205E0,5.064355850E0,-2.560390234E0,-3.309244156E0,6.569200500E0
1.040404018E0,5.009597778E0,-2.715722799E0,-3.179745674E0,6.525488700E0
1.045201882E0,4.966401577E0,-2.893028975E0,-3.154670000E0,6.556424642E0
1.049999747E0,4.963313103E0,-3.094217539E0,-3.133432150E0,6.635288703E0
1.054797611E0,4.993012905E0,-3.323252439E0,-3.154047012E0,6.776591858E0
1.059595476E0,5.007814884E0,-3.536462545E0,-3.182692528E0,6.907554486E0
1.064393341E0,5.022111893E0,-3.638056040E0,-3.200111389E0,6.978378932E0
1.069191205E0,5.071584702E0,-3.739769936E0,-3.303987503E0,7.114997117E0
1.073989018E0,4.941362381E0,-3.924150467E0,-2.979894638E0,6.978236964E0
1.078786882E0,4.971562386E0,-4.126471043E0,-3.609040737E0,7.400633139E0
1.083584747E0,4.885344982E0,-4.543604374E0,-3.871557236E0,7.713617292E0
1.088382611E0,4.769414902E0,-4.969021797E0,-4.258586407E0,8.097780826E0
1.093180476E0,4.669417381E0,-5.209586620E0,-4.487596512E0,8.311544615E0
1.097978341E0,4.552428246E0,-5.392577171E0,-4.786586285E0,8.527361828E0
1.102776153E0,4.426147461E0,-5.561216354E0,-5.044202328E0,8.715611614E0
1.107574018E0,4.240729332E0,-5.706197739E0,-5.204982758E0,8.811147678E0
1.112371882E0,3.998933315E0,-5.654310226E0,-5.218513966E0,8.671538491E0
1.117169747E0,3.791740417E0,-5.847711563E0,-5.353600025E0,8.788291025E0
1.121967611E0,3.571153641E0,-5.935825825E0,-5.340242863E0,8.746734269E0
1.126765476E0,3.386888981E0,-5.969978333E0,-5.133976460E0,8.571427684E0
1.131563289E0,3.157327652E0,-6.036729336E0,-4.938432217E0,8.414210108E0
1.136361153E0,2.922760010E0,-6.181684971E0,-4.765628338E0,8.334684674E0
1.141159018E0,2.689898491E0,-6.302549362E0,-4.549028397E0,8.225043569E0
1.145956882E0,2.513007641E0,-6.330773354E0,-4.277387619E0,8.043005875E0
1.150754747E0,2.351012707E0,-6.386200905E0,-4.079601288E0,7.934353749E0
1.155552611E0,2.205887794E0,-6.359674454E0,-3.836399317E0,7.747861630E0
1.160350476E0,2.024719715E0,-6.390022278E0,-3.667390347E0,7.640787040E0
1.165148289E0,1.740417957E0,-6.536691189E0,-3.417840958E0,7.578853685E0
1.169946153E0,1.584126949E0,-6.727638245E0,-3.300179005E0,7.659096292E0
1.174744018E0,1.440619469E0,-6.948167324E0,-3.294201612E0,7.823309906E0
1.179541882E0,1.197416782E0,-7.174081802E0,-3.322639942E0,7.996323708E0
1.184339747E0,9.757213593E-1,-7.333632469E0,-3.175996780E0,8.051158483E0
1.189137611E0,7.103958130E-1,-7.534219265E0,-3.043703794E0,8.156791951E0
1.193935424E0,3.532419205E-1,-7.780334473E0,-2.921408653E0,8.318233760E0
1.198733289E0,-1.268482208E-2,-8.069198608E0,-2.849921227E0,8.557697008E0
1.203531153E0,-4.333963394E-1,-8.345609665E0,-2.710330963E0,8.785381437E0
1.208329018E0,-8.856744766E-1,-8.685517311E0,-2.563034773E0,9.098998708E0
1.213126882E0,-1.353649139E0,-9.095306396E0,-2.427892208E0,9.510605922E0
1.217924747E0,-1.900203705E0,-9.578931808E0,-2.239173889E0,1.001901235E1
1.222722611E0,-2.509323120E0,-1.006403732E1,-2.010217190E0,1.056515608E1
1.227520424E0,-3.122093201E0,-1.060968781E1,-1.787575006E0,1.120305162E1
1.232318289E0,-3.718015671E0,-1.117213631E1,-1.595603347E0,1.188218079E1
1.237116153E0,-4.267107010E0,-1.173658848E1,-1.391963124E0,1.256555899E1
1.241914018E0,-4.806355476E0,-1.225486755E1,-1.169959426E0,1.321558310E1
1.246711882E0,-5.303383350E0,-1.261499596E1,-9.417362809E-1,1.371680958E1
1.251509747E0,-5.713836193E0,-1.276773071E1,-6.461230516E-1,1.400286923E1
1.256307559E0,-6.231686592E0,-1.270242214E1,-3.820265532E-1,1.415384719E1
1.261105424E0,-6.732763767E0,-1.252552414E1,6.355452538E-2,1.422050991E1
1.265903289E0,-7.152985573E0,-1.241920280E1,2.833993435E-1,1.433464740E1
1.270701153E0,-7.500199795E0,-1.222621346E1,4.726554155E-1,1.435119143E1
1.275499018E0,-7.884414196E0,-1.187365723E1,6.707494259E-1,1.426876406E1
1.280296882E0,-8.281295776E0,-1.143449688E1,9.855484962E-1,1.415269884E1
1.285094747E0,-8.696781158E0,-1.078880882E1,1.116637111E0,1.390249175E1
1.289892559E0,-9.069091797E0,-9.791221619E0,1.500866175E0,1.343015436E1
1.294690424E0,-9.384170532E0,-8.952093124E0,1.798858643E0,1.309345334E1
1.299488289E0,-9.654331207E0,-8.040609360E0,2.104689121E0,1.273920038E1
1.304286153E0,-9.855773926E0,-6.969882965E0,2.326550961E0,1.229342863E1
1.309084018E0,-1.006200886E1,-5.791655064E0,2.637640476E0,1.190564731E1
1.313881882E0,-1.023176956E1,-4.771983147E0,2.899005175E0,1.165612125E1
1.318679747E0,-1.036001968E1,-3.801467896E0,3.077910662E0,1.145664436E1
1.323477559E0,-1.045407677E1,-3.023704529E0,3.199890137E0,1.134327144E1
1.328275424E0,-1.051231384E1,-2.250229836E0,3.214963913E0,1.122088542E1
1.333073289E0,-1.049750328E1,-1.579387665E0,3.140631199E0,1.107048350E1
1.337871153E0,-1.044210720E1,-9.729471207E-1,3.068069935E0,1.092690633E1
1.342669018E0,-1.035244942E1,-3.925905228E-1,3.009134293E0,1.078805939E1
1.347466882E0,-1.025178719E1,1.619892120E-1,2.958480120E0,1.067136288E1
1.352264695E0,-1.016350174E1,6.364631653E-1,2.934179783E0,1.059770088E1
1.357062559E0,-1.002981377E1,1.188906670E0,2.934971809E0,1.051782881E1
1.361860424E0,-9.886502266E0,1.705268383E0,2.916143417E0,1.044771553E1
1.366658289E0,-9.759639740E0,2.243559837E0,2.899635315E0,1.042554620E1
1.371456153E0,-9.636928558E0,2.711324215E0,2.842706442E0,1.040685596E1
1.376254018E0,-9.549126625E0,3.095130444E0,2.797936916E0,1.042084943E1
1.381051882E0,-9.452828407E0,3.355222702E0,2.748685837E0,1.040042105E1
1.385849695E0,-9.378684998E0,3.573544502E0,2.673508406E0,1.038641419E1
1.390647559E0,-9.312017441E0,3.779222488E0,2.575008392E0,1.037433659E1
1.395445424E0,-9.212236404E0,3.924958229E0,2.472570658E0,1.031427178E1
1.400243289E0,-9.060400963E0,4.006421566E0,2.323738575E0,1.017556093E1
1.405041153E0,-8.890336990E0,4.067027569E0,2.138469219E0,1.000758990E1
1.409839018E0,-8.642946243E0,4.099890709E0,1.860179663E0,9.745249713E0
1.414636882E0,-8.395257950E0,4.172082424E0,1.706404328E0,9.528821728E0
1.419434695E0,-8.145175934E0,4.245376110E0,1.603251815E0,9.324029477E0
1.424232559E0,-7.852669716E0,4.267374039E0,1.379301548E0,9.043084408E0
1.429030424E0,-7.566097260E0,4.302645206E0,1.123811960E0,8.776191477E0
1.433828289E0,-7.283472061E0,4.365478992E0,8.896213770E-1,8.538020748E0
1.438626153E0,-7.014553070E0,4.377024651E0,6.316449642E-1,8.292241852E0
1.443424018E0,-6.819359303E0,4.296902180E0,4.407207966E-1,8.072252750E0
1.448221830E0,-6.590833664E0,4.201706886E0,2.213934660E-1,7.819363415E0
1.453019695E0,-6.312940121E0,4.077125549E0,7.416009903E-3,7.515066248E0
1.457817559E0,-5.986489296E0,4.009114265E0,-1.844996214E-1,7.207294319E0
1.462615424E0,-5.643274307E0,3.944963455E0,-3.350453377E-1,6.893586653E0
1.467413289E0,-5.236498833E0,3.894230366E0,-4.727835655E-1,6.542894961E0
1.472211153E0,-4.893737793E0,3.845046043E0,-6.072309017E-1,6.253141453E0
1.477009018E0,-4.525006771E0,3.747429371E0,-7.623040676E-1,5.924527041E0
1.481806882E0,-4.145489693E0,3.658918858E0,-8.833651543E-1,5.599384430E0
1.486604695E0,-3.830000639E0,3.524797916E0,-9.612027407E-1,5.293110235E0
1.491402559E0,-3.495582581E0,3.385927200E0,-1.036784649E0,4.975793705E0
1.496200424E0,-3.197717905E0,3.259135246E0,-1.076914310E0,4.691173285E0
1.500998289E0,-3.009794950E0,3.671106339E0,-4.870235920E-1,4.772114769E0
1.505796153E0,-2.785101175E0,3.153780937E0,-1.065519333E0,4.340328813E0
1.510594018E0,-2.500940323E0,2.962841511E0,-1.230647922E0,4.067877410E0
1.515391830E0,-2.224742651E0,2.966335297E0,-1.232533574E0,3.907398619E0
1.520189695E0,-1.909901619E0,2.653750420E0,-1.229511857E0,3.493109630E0
1.524987559E0,-1.648355007E0,2.456065655E0,-1.260108471E0,3.215152576E0
1.529785424E0,-1.380962372E0,2.337562561E0,-1.283834815E0,3.003246182E0
1.534583289E0,-1.115219116E0,2.288764000E0,-1.384508133E0,2.898105777E0
1.539381153E0,-8.077454567E-1,2.330846310E0,-1.342677474E0,2.808572599E0
1.544179018E0,-5.970802307E-1,2.337182999E0,-1.432688117E0,2.805623712E0
1.548976830E0,-3.720850945E-1,2.365833282E0,-1.560418010E0,2.858411937E0
1.553774695E0,-1.745567322E-1,2.384101391E0,-1.625189304E0,2.890614082E0
1.558572559E0,2.576017380E-2,2.354538918E0,-1.665459752E0,2.884141690E0
1.563370424E0,1.878962517E-1,2.304012299E0,-1.681505561E0,2.858537847E0
1.568168289E0,3.188209534E-1,2.302181244E0,-1.695049644E0,2.876608867E0
1.572966153E0,4.066004753E-1,2.332460403E0,-1.734670639E0,2.935094156E0
1.577763966E0,4.418368340E-1,2.378249168E0,-1.724063396E0,2.970468564E0
1.582561830E0,4.342293739E-1,2.454003811E0,-1.739864111E0,3.039377729E0
1.587359695E0,4.962267876E-1,2.566818237E0,-1.715232849E0,3.126790785E0
1.592157559E0,5.395150185E-1,2.718985558E0,-1.731366873E0,3.268270210E0
1.596955424E0,4.640278816E-1,2.815046310E0,-1.401886225E0,3.178850829E0
1.601753289E0,4.393625259E-1,2.891033649E0,-1.633684635E0,3.349632887E0
1.606551153E0,3.819651604E-1,2.927912712E0,-1.635315061E0,3.375325996E0
1.611348966E0,2.704682350E-1,3.004540920E0,-1.552788258E0,3.392870552E0
1.616146830E0,9.567356110E-2,3.068173409E0,-1.538668156E0,3.433706625E0
1.620944695E0,-1.132655144E-1,3.142447472E0,-1.544630051E0,3.503382249E0
1.625742559E0,-3.534717560E-1,3.267574787E0,-1.582090378E0,3.647601573E0
1.630540424E0,-6.050996780E-1,3.328418732E0,-1.595845938E0,3.740486751E0
1.635338289E0,-8.436331749E-1,3.384358883E0,-1.633458018E0,3.851465576E0
1.640136153E0,-1.101740360E0,3.399095058E0,-1.699536324E0,3.956779341E0
1.644933966E0,-1.340358734E0,3.400832653E0,-1.610345364E0,3.994425673E0
1.649731830E0,-1.573017597E0,3.381894112E0,-1.826764822E0,4.153150835E0
1.654529695E0,-1.763229370E0,3.289422989E0,-1.749372005E0,4.121842285E0
1.659327559E0,-1.953126431E0,3.309178829E0,-1.830259681E0,4.256197584E0
1.664125424E0,-2.051307678E0,3.256716728E0,-2.031200886E0,4.351993115E0
1.668923289E0,-2.141011715E0,3.112885952E0,-2.120804310E0,4.332643654E0
1.673721101E0,-2.367549419E0,2.858830929E0,-1.790160656E0,4.121028962E0
1.678518966E0,-2.759008884E0,2.735805511E0,-1.458302498E0,4.150109396E0
1.683316830E0,-3.260023594E0,2.607408047E0,-1.334951520E0,4.382741849E0
1.688114695E0,-3.712891579E0,2.595392704E0,-1.374092340E0,4.733894477E0
1.692912559E0,-4.055840492E0,2.515806675E0,-1.434620738E0,4.983699628E0
1.697710424E0,-4.220052242E0,2.495421410E0,-1.414469123E0,5.102616176E0
1.702508289E0,-4.308361530E0,2.662924767E0,-1.317546368E0,5.233457349E0
1.707306101E0,-4.430214405E0,2.934154510E0,-1.140643358E0,5.434807231E0
1.712103966E0,-4.420483112E0,2.972383499E0,-7.186858654E-1,5.375150601E0
1.716901830E0,-4.873928070E0,2.823982239E0,2.082265019E-1,5.636790647E0
1.721699695E0,-5.203444004E0,2.611749649E0,4.939131737E-1,5.843031401E0
1.726497559E0,-5.031818867E0,2.112323284E0,-1.057715416E-1,5.458232166E0
1.731295424E0,-4.920196533E0,1.520340919E0,-5.653424859E-1,5.180673949E0
1.736093289E0,-4.866797924E0,1.246771336E0,-8.316169381E-1,5.092322410E0
1.740891101E0,-4.992852211E0,1.350179672E0,-7.023146749E-1,5.219655568E0
1.745688966E0,-5.130043030E0,1.547502995E0,-6.084035635E-1,5.392797224E0
1.750486830E0,-5.306187630E0,1.730589867E0,-7.355641723E-1,5.629531339E0
1.755284695E0,-5.494398117E0,1.746332169E0,-1.117922783E0,5.872634678E0
1.760082559E0,-5.753519058E0,1.737827778E0,-1.558127880E0,6.208928203E0
1.764880424E0,-6.172616959E0,1.916749477E0,-1.352246284E0,6.603309677E0
1.769678289E0,-6.163160801E0,1.871509552E0,-1.644507647E0,6.647669100E0
1.774476101E0,-6.441530704E0,1.735888004E0,-1.962170005E0,6.953900784E0
1.779273966E0,-6.565012455E0,1.454951286E0,-2.037093401E0,7.026095737E0
1.784071830E0,-6.622234821E0,1.224675655E0,-2.045603037E0,7.038346132E0
1.788869695E0,-6.658545017E0,1.090185165E0,-1.899519920E0,7.009486527E0
1.793667559E0,-6.609694004E0,9.582333565E-1,-1.747213364E0,6.903551298E0
1.798465424E0,-6.550071716E0,9.028773308E-1,-1.676841617E0,6.821321336E0
1.803263289E0,-6.742557049E0,7.570071220E-1,-1.749737740E0,7.006904987E0
1.808061101E0,-6.938265324E0,5.613574982E-1,-1.747973919E0,7.177050980E0
1.812858966E0,-6.960702419E0,3.351840973E-1,-1.581224918E0,7.145907835E0
1.817656830E0,-6.920185566E0,2.074232101E-1,-1.307203770E0,7.045620934E0
1.822454695E0,-6.793295383E0,2.256851196E-1,-1.026933074E0,6.874182677E0
1.827252559E0,-6.616400242E0,3.945741653E-1,-6.172669530E-1,6.656835541E0
1.832050424E0,-6.394515038E0,6.279034615E-1,-1.633478999E-1,6.427345320E0
1.836848289E0,-6.125557423E0,8.732233047E-1,3.162906766E-1,6.195563935E0
1.841646101E0,-5.855104923E0,1.137872219E0,7.625693083E-1,6.013195390E0
1.846443966E0,-5.587810040E0,1.440913200E0,1.155318022E0,5.885117809E0
1.851241830E0,-5.342614651E0,1.717808723E0,1.391038418E0,5.781815113E0
1.856039695E0,-5.119067669E0,1.949332714E0,1.657986641E0,5.723082345E0
1.860837559E0,-4.926208019E0,2.092329502E0,1.743514299E0,5.628961743E0
1.865635424E0,-4.756329060E0,2.163327217E0,1.731993318E0,5.504766264E0
1.870433289E0,-4.611230850E0,2.135762215E0,1.664728880E0,5.347546394E0
1.875231101E0,-4.461653709E0,2.040351868E0,1.563972235E0,5.149310509E0
1.880028966E0,-4.321664333E0,1.874439240E0,1.421193719E0,4.920375662E0
1.884826830E0,-4.172007084E0,1.635478973E0,1.287174940E0,4.662322802E0
1.889624695E0,-3.993615627E0,1.399734497E0,1.188982248E0,4.395668462E0
1.894422559E0,-3.818000317E0,1.090784073E0,9.771289825E-1,4.089219652E0
1.899220424E0,-3.597907066E0,7.351617813E-1,9.005017281E-1,3.781045023E0
1.904018289E0,-3.427222252E0,4.502239227E-1,7.917959690E-1,3.546194411E0
1.908816101E0,-3.208766460E0,2.615070343E-2,7.013952732E-1,3.284634133E0
1.913613966E0,-2.988975525E0,-4.096198082E-1,5.338474512E-1,3.063781353E0
1.918411830E0,-2.747395992E0,-8.324928284E-1,4.182386100E-1,2.901060596E0
1.923209695E0,-2.501657486E0,-1.201279163E0,3.090903163E-1,2.792292719E0
1.928007559E0,-2.312155724E0,-1.515521526E0,2.396292090E-1,2.774939953E0
1.932805424E0,-2.126851082E0,-1.793931961E0,1.550226808E-1,2.786704045E0
1.937603289E0,-1.953414917E0,-2.052822113E0,6.020724773E-2,2.834348846E0
1.942401153E0,-1.773033142E0,-2.248909950E0,6.486141682E-2,2.864515577E0
1.947198966E0,-1.576348782E0,-2.494273186E0,-7.725161314E-2,2.951650728E0
1.951996830E0,-1.430547237E0,-2.621456146E0,-1.403124332E-1,2.989679800E0
1.956794695E0,-1.273608208E0,-2.640152454E0,-1.141673326E-1,2.933516155E0
1.961592559E0,-1.165252686E0,-2.677128315E0,-6.511664391E-2,2.920457158E0
1.966390424E0,-1.107726574E0,-2.732329845E0,-2.155077457E-2,2.948414656E0
1.971188289E0,-1.029006004E0,-2.624510765E0,1.118047237E-1,2.821242707E0
1.975986101E0,-9.574122429E-1,-2.492758274E0,3.340220451E-1,2.691106230E0
1.980783966E0,-8.877973557E-1,-2.370819092E0,5.560448766E-1,2.591940049E0
1.985581830E0,-8.484864235E-1,-2.206383705E0,8.035203218E-1,2.496738507E0
1.990379695E0,-8.175339699E-1,-2.038092136E0,9.828162789E-1,2.405848953E0
1.995177559E0,-7.228908539E-1,-1.926030636E0,1.019623399E0,2.296039432E0
1.999975424E0,-7.171444893E-1,-1.801108837E0,1.393315434E0,2.387387099E0
2.004773289E0,-6.518325806E-1,-1.682663441E0,1.615544200E0,2.422029114E0
2.009571153E0,-6.819243431E-1,-1.539821148E0,2.041105986E0,2.646163945E0
2.014368966E0,-5.850772858E-1,-1.449046612E0,2.045799971E0,2.574363811E0
2.019166830E0,-6.333274841E-1,-1.271976471E0,2.574547529E0,2.940633065E0
2.023964695E0,-5.254273415E-1,-1.168847084E0,2.592049599E0,2.891539126E0
2.028762559E0,-4.191427231E-1,-1.065507412E0,2.690612316E0,2.924103504E0
2.033560424E0,-3.095693588E-1,-1.016867638E0,2.754581451E0,2.952553463E0
2.038358289E0,-2.014493942E-1,-1.001264095E0,2.757100344E0,2.940189442E0
2.043156101E0,-6.148624420E-2,-1.044720650E0,2.698047161E0,2.893903986E0
2.047953966E0,1.148214340E-1,-1.111097336E0,2.599037886E0,2.828907772E0
2.052751830E0,2.914156914E-1,-1.159712791E0,2.458103895E0,2.733520006E0
2.057549695E0,4.680414200E-1,-1.262135029E0,2.235408306E0,2.609424821E0
2.062347559E0,6.516070366E-1,-1.358510971E0,1.991670847E0,2.497377935E0
2.067145424E0,8.013200760E-1,-1.491864204E0,1.754048586E0,2.438126147E0
2.071943289E0,9.361329079E-1,-1.597638607E0,1.487598062E0,2.375235132E0
2.076741153E0,1.084641933E0,-1.766813278E0,1.226727843E0,2.408928908E0
2.081539018E0,1.194181919E0,-1.856134892E0,9.770582914E-1,2.413700498E0
2.086336830E0,1.352990150E0,-1.987545490E0,7.298907042E-1,2.512699716E0
2.091134695E0,1.484445095E0,-2.120388508E0,5.216397643E-1,2.640403891E0
2.095932559E0,1.612297535E0,-2.256916046E0,3.098103404E-1,2.790905915E0
2.100730424E0,1.714896679E0,-2.385016918E0,1.043937206E-1,2.939400342E0
2.105528289E0,1.832763672E0,-2.528406143E0,-4.195165634E-2,3.123078648E0
2.110326153E0,1.939515114E0,-2.646324635E0,-1.865335703E-1,3.286266532E0
2.115124018E0,2.056582928E0,-2.772117615E0,-3.244501352E-1,3.466906012E0
2.119921830E0,2.169512749E0,-2.888840199E0,-4.508533478E-1,3.640803757E0
2.124719695E0,2.237625599E0,-2.998692036E0,-5.536311865E-1,3.782278379E0
2.129517559E0,2.332556248E0,-3.144482136E0,-6.779389381E-1,3.973435259E0
2.134315424E0,2.415958405E0,-3.270997524E0,-7.709940672E-1,4.138926391E0
2.139113289E0,2.518870354E0,-3.368654966E0,-8.827888966E-1,4.297890224E0
2.143911153E0,2.598199844E0,-3.475529671E0,-9.819186926E-1,4.449057568E0
2.148708966E0,2.689763069E0,-3.608100176E0,-1.063587189E0,4.624330217E0
2.153506830E0,2.740952015E0,-3.739744186E0,-1.106448889E0,4.766836862E0
2.158304695E0,2.837762833E0,-3.834384680E0,-1.098703027E0,4.895155984E0
2.163102559E0,2.944289684E0,-3.877632618E0,-1.085847139E0,4.988380546E0
2.167900424E0,3.041372299E0,-3.972039700E0,-1.094014287E0,5.120928832E0
2.172698289E0,3.150496483E0,-4.071891785E0,-1.099237323E0,5.264432874E0
2.177496153E0,3.254911423E0,-4.102956772E0,-1.091927171E0,5.349860520E0
2.182294018E0,3.347525120E0,-4.153648853E0,-1.055586815E0,5.438105070E0
2.187091830E0,3.392636299E0,-4.211988449E0,-9.833151102E-1,5.497066159E0
2.191889695E0,3.442925453E0,-4.292223454E0,-9.469366074E-1,5.583332946E0
2.196687559E0,3.414982319E0,-4.373056889E0,-9.204843044E-1,5.624324150E0
2.201485424E0,3.356866837E0,-4.514387131E0,-9.304934740E-1,5.702110507E0
2.206283289E0,3.297408104E0,-4.675660610E0,-9.102946520E-1,5.793387498E0
2.211081153E0,3.220035553E0,-4.866610527E0,-9.104713202E-1,5.906054945E0
2.215879018E0,3.115291119E0,-5.068205357E0,-9.285545349E-1,6.021125959E0
2.220676882E0,3.026185036E0,-5.347107887E0,-9.859359264E-1,6.222654440E0
2.225474695E0,2.998028755E0,-5.578854561E0,-1.015577316E0,6.414295902E0
2.230272559E0,3.004392624E0,-5.808600426E0,-1.039084792E0,6.621624510E0
2.235070424E0,2.968887806E0,-5.988260746E0,-9.403440952E-1,6.749652479E0
2.239868289E0,2.939415455E0,-6.129581928E0,-7.535105944E-1,6.839569873E0
2.244666153E0,2.968436718E0,-6.332525253E0,-7.674598694E-1,7.035729336E0
2.249464018E0,2.981842995E0,-6.555769444E0,-6.527959108E-1,7.231572660E0
2.254261882E0,3.068013191E0,-6.705675125E0,-5.769722462E-1,7.396734469E0
2.259059695E0,3.128990650E0,-6.801026821E0,-3.876764774E-1,7.496321856E0
2.263857559E0,3.195922852E0,-6.884408951E0,-3.265938759E-1,7.597083193E0
2.268655424E0,3.280838013E0,-6.984024525E0,-1.695055962E-1,7.718110441E0
2.273453289E0,3.362349510E0,-7.061439514E0,-8.416962624E-2,7.821534809E0
2.278251153E0,3.426288605E0,-7.111752510E0,2.938425541E-2,7.894133315E0
2.283049018E0,3.482311249E0,-7.149153709E0,1.161208153E-1,7.953010401E0
2.287846882E0,3.497002125E0,-7.197400093E0,8.809137344E-2,8.002459125E0
2.292644695E0,3.468118191E0,-7.302003860E0,4.600083828E-2,8.083886456E0
2.297442559E0,3.352862835E0,-7.439265728E0,1.616740227E-2,8.159940266E0
2.302240424E0,3.187284946E0,-7.654698849E0,-3.717195988E-2,8.291838249E0
2.307038289E0,3.052730083E0,-7.893389225E0,-7.098948956E-2,8.463438659E0
2.311836153E0,2.901376724E0,-8.093456268E0,-6.354701519E-2,8.598026488E0
2.316634018E0,2.790532589E0,-8.288441658E0,-6.722152233E-2,8.745847928E0
2.321431882E0,2.746311188E0,-8.432923317E0,-5.780458450E-2,8.869033892E0
2.326229747E0,2.778062344E0,-8.524460793E0,-2.800095081E-2,8.965759658E0
2.331027559E0,2.883228302E0,-8.503349304E0,5.307340622E-2,8.979018411E0
2.335825424E0,3.078338623E0,-8.386245728E0,1.898715496E-1,8.935397993E0
2.340623289E0,3.286767006E0,-8.161122322E0,3.461710215E-1,8.804918471E0
2.345421153E0,3.501306057E0,-7.890123844E0,5.049121380E-1,8.646856923E0
2.350219018E0,3.681275368E0,-7.596969128E0,6.253246069E-1,8.465031549E0
2.355016882E0,3.836245060E0,-7.300665855E0,7.525905371E-1,8.281478769E0
2.359814747E0,3.975768566E0,-7.008292198E0,8.434004784E-1,8.101494899E0
2.364612611E0,4.075859547E0,-6.798435688E0,8.930050731E-1,7.976767322E0
2.369410424E0,4.179462433E0,-6.556299210E0,9.229115844E-1,7.829733798E0
2.374208289E0,4.312623501E0,-6.272184849E0,9.166014194E-1,7.666758272E0
2.379006153E0,4.455962181E0,-6.005861759E0,8.911285996E-1,7.531273771E0
2.383804018E0,4.573377609E0,-5.683218002E0,9.042579532E-1,7.350675620E0
2.388601882E0,4.676535130E0,-5.378338337E0,8.085305691E-1,7.172881274E0
2.393399747E0,4.805766582E0,-5.074555397E0,7.528313994E-1,7.029456596E0
2.398197611E0,4.886676788E0,-4.762335777E0,6.827588677E-1,6.857522276E0
2.402995424E0,4.938211441E0,-4.477809906E0,6.013410091E-1,6.693155071E0
2.407793289E0,4.950648308E0,-4.214065552E0,4.947646856E-1,6.520127241E0
2.412591153E0,4.895137787E0,-3.978536129E0,3.495140076E-1,6.317696077E0
2.417389018E0,4.821779251E0,-3.833698034E0,1.566221714E-1,6.162087817E0
2.422186882E0,4.658853054E0,-3.736985445E0,-3.321182728E-2,5.972526687E0
2.426984747E0,4.439843178E0,-3.748617887E0,-2.695002556E-1,5.816955724E0
2.431782611E0,4.179175854E0,-3.663830519E0,-5.229085684E-1,5.582347020E0
2.436580424E0,3.853199959E0,-3.581793547E0,-7.237772942E-1,5.310390617E0
2.441378289E0,3.481355190E0,-3.558305264E0,-9.176586866E-1,5.061962838E0
2.446176153E0,3.123589993E0,-3.520006180E0,-1.156833649E0,4.846186340E0
2.450974018E0,2.703745842E0,-3.563290119E0,-1.386417508E0,4.682887096E0
2.455771882E0,2.248606682E0,-3.650497437E0,-1.614377856E0,4.581329437E0
2.460569747E0,1.763411522E0,-3.746211052E0,-1.786917686E0,4.509633273E0
2.465367611E0,1.277183533E0,-3.843396187E0,-1.957994699E0,4.498514785E0
2.470165476E0,8.283462524E-1,-3.841573238E0,-2.024080753E0,4.420491529E0
2.474963289E0,4.313163757E-1,-3.814743996E0,-2.132423878E0,4.391530162E0
2.479761153E0,1.003818512E-1,-3.779324532E0,-2.193389893E0,4.370849992E0
2.484559018E0,-1.048936844E-1,-3.754075527E0,-2.272472382E0,4.389557663E0
2.489356882E0,-2.516069412E-1,-3.647987843E0,-2.274956226E0,4.306570234E0
2.494154747E0,-2.492275238E-1,-3.511093140E0,-2.268244982E0,4.187460411E0
2.498952611E0,-2.510528564E-1,-3.381529331E0,-2.252192974E0,4.070643849E0
2.503750476E0,-3.884105682E-1,-3.266848087E0,-2.307034492E0,4.018154719E0
2.508548341E0,-6.730546951E-1,-3.255984783E0,-2.437569380E0,4.122642843E0
2.513346153E0,-8.490762711E-1,-3.265930653E0,-2.514768839E0,4.208479043E0
2.518144018E0,-9.905810356E-1,-3.264011383E0,-2.495690823E0,4.226522658E0
2.522941882E0,-1.073448181E0,-3.253545761E0,-2.421195745E0,4.195240143E0
2.527739747E0,-1.128506184E0,-3.163724422E0,-2.282053471E0,4.060843074E0
2.532537611E0,-1.136357307E0,-3.012108803E0,-2.079020977E0,3.832288558E0
2.537335476E0,-1.127850533E0,-2.823116779E0,-1.804034948E0,3.535049825E0
2.542133341E0,-1.093118668E0,-2.597124577E0,-1.483327627E0,3.184372048E0
2.546931153E0,-1.110590935E0,-2.339179993E0,-1.060390949E0,2.798142996E0
2.551729018E0,-1.065124035E0,-2.089851856E0,-6.111673117E-1,2.423942135E0
2.556526882E0,-1.080747604E0,-1.831991673E0,-9.028375149E-2,2.128934012E0
2.561324747E0,-1.111818790E0,-1.610319138E0,4.111338854E-1,1.999574910E0
2.566122611E0,-1.143960476E0,-1.397746563E0,8.717885017E-1,2.005581266E0
2.570920476E0,-1.157955170E0,-1.174514771E0,1.239558458E0,2.063213584E0
2.575718341E0,-1.227591515E0,-9.713258743E-1,1.596625209E0,2.235993501E0
2.580516205E0,-1.264115810E0,-7.973957062E-1,1.886826038E0,2.407060696E0
2.585314018E0,-1.272145748E0,-6.213817596E-1,2.076100588E0,2.512899470E0
2.590111882E0,-1.289807796E0,-4.574680328E-1,2.228921175E0,2.615524949E0
2.594909747E0,-1.331415653E0,-2.934732437E-1,2.271290779E0,2.649067004E0
2.599707611E0,-1.349103451E0,-1.292901039E-1,2.320544004E0,2.687325907E0
2.604505476E0,-1.390647888E0,4.700851440E-2,2.305512190E0,2.692860525E0
2.609303341E0,-1.339177132E0,1.255555153E-1,2.217776537E0,2.593779548E0
2.614101205E0,-1.254508495E0,2.162356377E-1,2.168088198E0,2.514190893E0
2.618899070E0,-1.191689014E0,3.166961670E-1,2.128050089E0,2.459474812E0
2.623696882E0,-1.198532104E0,4.270300865E-1,2.066801071E0,2.427035345E0
2.628494747E0,-1.150934696E0,5.522308350E-1,2.017967224E0,2.387844486E0
2.633292611E0,-1.106601238E0,6.160659790E-1,1.926868200E0,2.305845756E0
2.638090476E0,-1.080258369E0,6.500105858E-1,1.848772764E0,2.237729349E0
2.642888341E0,-1.036366940E0,5.970339775E-1,1.767144203E0,2.133847379E0
2.647686205E0,-1.008503437E0,7.464008331E-1,1.736978173E0,2.142728765E0
2.652484070E0,-1.001685619E0,7.588343620E-1,1.707971215E0,2.120464416E0
2.657281934E0,-9.563794136E-1,7.542285919E-1,1.627461672E0,2.032769993E0
2.662079747E0,-9.014849663E-1,7.996053696E-1,1.600714087E0,2.003579168E0
2.666877611E0,-8.302578926E-1,8.521265984E-1,1.553802967E0,1.956975107E0
2.671675476E0,-7.691888809E-1,9.404907227E-1,1.467949629E0,1.905531539E0
2.676473341E0,-7.161746025E-1,9.834957123E-1,1.374751329E0,1.835786233E0
2.681271205E0,-7.215390205E-1,1.038615704E0,1.334079981E0,1.838235712E0
2.686069070E0,-7.278561592E-1,1.105778217E0,1.300582409E0,1.855811051E0
2.690866934E0,-7.684607506E-1,1.151450157E0,1.267001867E0,1.876609475E0
2.695664799E0,-8.216490746E-1,1.161269188E0,1.247491241E0,1.892059123E0
2.700462611E0,-8.490228653E-1,1.214009762E0,1.241989970E0,1.933183544E0
2.705260476E0,-8.840131760E-1,1.228254318E0,1.217330337E0,1.942158880E0
2.710058341E0,-9.384503365E-1,1.261251926E0,1.190525293E0,1.972003025E0
2.714856205E0,-9.859399796E-1,1.291346550E0,1.180927157E0,2.008542384E0
2.719654070E0,-1.028753757E0,1.294516087E0,1.148117185E0,2.013027387E0
2.724451934E0,-1.083542347E0,1.289810658E0,1.128189087E0,2.027433394E0
2.729249799E0,-1.159887791E0,1.265305519E0,1.114075065E0,2.046338436E0
2.734047664E0,-1.226649284E0,1.194717884E0,1.098662853E0,2.034472746E0
2.738845476E0,-1.388954639E0,1.109159470E0,1.070133090E0,2.074756504E0
2.743643341E0,-1.505805969E0,1.039795399E0,1.040370345E0,2.104993241E0
2.748441205E0,-1.613122940E0,9.603214264E-1,1.033298612E0,2.142915977E0
2.753239070E0,-1.753974438E0,8.469548225E-1,1.010469079E0,2.194266748E0
2.758036934E0,-1.895086765E0,7.142405510E-1,1.010025382E0,2.263105098E0
2.762834799E0,-2.036734581E0,5.743675232E-1,1.012580514E0,2.345955051E0
2.767632664E0,-2.155255795E0,4.322886467E-1,1.001200438E0,2.415450958E0
2.772430528E0,-2.291668892E0,3.288316727E-1,1.018776417E0,2.529383713E0
2.777228341E0,-2.417701244E0,2.355108261E-1,9.981987476E-1,2.626241687E0
2.782026205E0,-2.576597214E0,1.404724121E-1,9.776419401E-1,2.759414696E0
2.786824070E0,-2.763773441E0,8.039474487E-3,9.711714983E-1,2.929450861E0
2.791621934E0,-2.969790459E0,-1.210279465E-1,9.498714209E-1,3.120345950E0
2.796419799E0,-3.168532848E0,-2.203588486E-1,9.302392006E-1,3.309607742E0
2.801217664E0,-3.398475170E0,-2.923145294E-1,9.026037455E-1,3.528423839E0
2.806015528E0,-3.600025654E0,-3.369350433E-1,8.669643402E-1,3.718243819E0
2.810813393E0,-3.835663795E0,-3.040170670E-1,8.519319296E-1,3.940879488E0
2.815611205E0,-4.076827049E0,-2.701168060E-1,8.405960798E-1,4.171340749E0
2.820409070E0,-4.292601109E0,-2.017841339E-1,8.399291039E-1,4.378655275E0
2.825206934E0,-4.547492981E0,-4.422473907E-2,8.402104378E-1,4.624673158E0
2.830004799E0,-4.814879894E0,2.022228241E-1,8.985929489E-1,4.902186426E0
2.834802664E0,-5.070472717E0,4.631319046E-1,9.407876730E-1,5.177766525E0
2.839600528E0,-5.382978439E0,7.309818268E-1,9.883266687E-1,5.521556023E0
2.844398393E0,-5.679831505E0,1.019710541E0,1.012543321E0,5.858800175E0
2.849196257E0,-6.070143700E0,1.233401299E0,1.032547116E0,6.279655790E0
2.853994070E0,-6.464443207E0,1.433892727E0,1.034197330E0,6.701838438E0
2.858791934E0,-6.864325047E0,1.580293655E0,1.041617155E0,7.120481211E0
2.863589799E0,-7.230704308E0,1.753618717E0,1.074117064E0,7.517445767E0
2.868387664E0,-7.598544121E0,1.955922604E0,1.057860017E0,7.917232711E0
2.873185528E0,-7.928834915E0,2.091342926E0,1.038790584E0,8.265544400E0
2.877983393E0,-8.254486084E0,2.231485844E0,1.019750834E0,8.611385565E0
2.882781257E0,-8.531860352E0,2.354681969E0,9.677306414E-1,8.903576294E0
2.887579122E0,-8.791570663E0,2.551643372E0,9.476373196E-1,9.203293710E0
2.892376986E0,-9.009115219E0,2.788755894E0,9.284279346E-1,9.476460040E0
2.897174799E0,-9.153138161E0,3.063603401E0,9.674484730E-1,9.700595886E0
2.901972664E0,-9.230239868E0,3.407168388E0,1.073996544E0,9.897453866E0
2.906770528E0,-9.259229660E0,3.807506084E0,1.178292990E0,1.008061560E1
2.911568393E0,-9.213536263E0,4.185787201E0,1.287159920E0,1.020131588E1
2.916366257E0,-9.157614708E0,4.556549549E0,1.402491570E0,1.032429337E1
2.921164122E0,-9.079505920E0,4.950984001E0,1.516865253E0,1.045229882E1
2.925961986E0,-9.005575180E0,5.230629444E0,1.555937290E0,1.052999571E1
2.930759851E0,-8.957218170E0,5.481699467E0,1.557966828E0,1.061640462E1
2.935557664E0,-8.917427063E0,5.699485302E0,1.584775209E0,1.070122192E1
2.940355528E0,-8.859251022E0,5.857623577E0,1.576373696E0,1.073699384E1
2.945153393E0,-8.851369858E0,5.982278347E0,1.504132390E0,1.078873565E1
2.949951257E0,-8.857071877E0,6.013523102E0,1.322605014E0,1.078700451E1
2.954749122E0,-8.870669365E0,5.963053703E0,1.113309383E0,1.074645254E1
2.959546986E0,-8.893752098E0,5.840178013E0,8.785779476E-1,1.067606692E1
2.964344851E0,-8.842162132E0,5.639856339E0,6.422362328E-1,1.050734401E1
2.969142716E0,-8.770609856E0,5.385698318E0,3.970519304E-1,1.029985407E1
2.973940528E0,-8.693479538E0,5.063100815E0,1.596437693E-1,1.006166301E1
2.978738393E0,-8.563428879E0,4.638498783E0,-7.040262222E-2,9.739247489E0
2.983536257E0,-8.414625168E0,4.118969917E0,-3.386311531E-1,9.374780048E0
2.988334122E0,-8.274403572E0,3.528437614E0,-5.974818468E-1,9.015132336E0
2.993131986E0,-8.117594719E0,2.871716499E0,-8.066267967E-1,8.648279971E0
2.997929851E0,-7.976441383E0,2.208570957E0,-1.023647666E0,8.339619737E0
3.002727716E0,-7.813701630E0,1.507838249E0,-1.241400719E0,8.054103618E0
3.007525580E0,-7.649599075E0,8.364095688E-1,-1.467007875E0,7.833776809E0
3.012323393E0,-7.468362808E0,1.176614761E-1,-1.666636705E0,7.652971003E0
3.017121257E0,-7.263904572E0,-5.599889755E-1,-1.868468761E0,7.521241439E0
3.021919122E0,-7.053900719E0,-1.218177795E0,-2.050290108E0,7.446150819E0
3.026716986E0,-6.822510719E0,-1.856971741E0,-2.208921432E0,7.407721003E0
3.031514851E0,-6.570596695E0,-2.433393478E0,-2.319616318E0,7.380702176E0
3.036312716E0,-6.315669060E0,-3.007213593E0,-2.419813156E0,7.401790660E0
3.041110580E0,-6.039181709E0,-3.501971245E0,-2.487170219E0,7.410906423E0
3.045908445E0,-5.736910343E0,-3.946385384E0,-2.494755268E0,7.396614207E0
3.050706309E0,-5.416521549E0,-4.359556198E0,-2.470693827E0,7.378940569E0
3.055504122E0,-5.061893940E0,-4.686338425E0,-2.414547920E0,7.308527878E0
3.060301986E0,-4.726107597E0,-4.964856148E0,-2.342679024E0,7.243896369E0
3.065099851E0,-4.385715485E0,-5.206813335E0,-2.264463902E0,7.174482712E0
3.069897716E0,-4.026841640E0,-5.409515858E0,-2.151173592E0,7.078549515E0
3.074695580E0,-3.707120419E0,-5.558393478E0,-2.022211313E0,6.980531388E0
3.079493445E0,-3.379022598E0,-5.638823509E0,-1.885122299E0,6.838699465E0
3.084291309E0,-3.033176899E0,-5.672126293E0,-1.728417397E0,6.660375776E0
3.089089122E0,-2.686487198E0,-5.670041561E0,-1.607465625E0,6.476922919E0
3.093886986E0,-2.362886906E0,-5.615703106E0,-1.474904537E0,6.268548420E0
3.098684851E0,-2.069724560E0,-5.544638634E0,-1.297896981E0,6.058986211E0
3.103482716E0,-1.806903839E0,-5.456716537E0,-1.127462149E0,5.857629875E0
3.108280580E0,-1.564878464E0,-5.397078991E0,-9.644047022E-1,5.701524592E0
3.113078445E0,-1.381842613E0,-5.370236397E0,-8.143522143E-1,5.604649632E0
3.117876309E0,-1.166911125E0,-5.335311890E0,-6.900420189E-1,5.504851726E0
3.122674174E0,-9.846167564E-1,-5.325551033E0,-5.589706898E-1,5.444576402E0
3.127472039E0,-8.038716316E-1,-5.307253361E0,-4.814896584E-1,5.389339489E0
3.132269903E0,-6.366128922E-1,-5.285046101E0,-4.770905972E-1,5.344586392E0
3.137067716E0,-4.612445831E-1,-5.280386448E0,-4.886893630E-1,5.322973314E0
3.141865580E0,-3.254566193E-1,-5.264616489E0,-5.427243114E-1,5.302514354E0
3.146663445E0,-1.861085892E-1,-5.273614407E0,-5.939652920E-1,5.310220342E0
3.151461309E0,-2.172756195E-2,-5.261867523E0,-7.117800117E-1,5.309835469E0
3.156259174E0,1.653070450E-1,-5.231865883E0,-8.552877307E-1,5.303891415E0
3.161057039E0,3.391103745E-1,-5.217081070E0,-1.007408857E0,5.324265521E0
3.165854903E0,5.138940811E-1,-5.212487221E0,-1.172606349E0,5.367412394E0
3.170652716E0,7.063083649E-1,-5.220325470E0,-1.329024553E0,5.432952768E0
3.175450580E0,8.804244995E-1,-5.281054020E0,-1.521706581E0,5.565992255E0
3.180248445E0,1.064801216E0,-5.332156181E0,-1.678458810E0,5.690598839E0
3.185046309E0,1.252138138E0,-5.315972328E0,-1.851477265E0,5.766747764E0
3.189844174E0,1.444800854E0,-5.320815563E0,-2.032996655E0,5.876359686E0
3.194642039E0,1.668992043E0,-5.315239906E0,-2.198577881E0,5.989244894E0
3.199439903E0,1.869733334E0,-5.301417351E0,-2.376255274E0,6.103074454E0
3.204237768E0,2.068634510E0,-5.264853477E0,-2.577235222E0,6.216113920E0
3.209035632E0,2.244297028E0,-5.234102249E0,-2.750871658E0,6.324554560E0
3.213833445E0,2.432754040E0,-5.194796562E0,-2.915804863E0,6.434758856E0
3.218631309E0,2.557683468E0,-5.206644058E0,-3.079021931E0,6.567439617E0
3.223429174E0,2.681431293E0,-5.221667290E0,-3.197185278E0,6.684151163E0
3.228227039E0,2.794614315E0,-5.237483025E0,-3.306007862E0,6.794908799E0
3.233024903E0,2.933177471E0,-5.265785694E0,-3.405229807E0,6.922977617E0
3.237822768E0,3.049463749E0,-5.270693779E0,-3.506654263E0,7.026810527E0
3.242620632E0,3.146034241E0,-5.276065350E0,-3.572015524E0,7.105891353E0
3.247418497E0,3.285175800E0,-5.267478943E0,-3.639510632E0,7.196162317E0
3.252216309E0,3.402451038E0,-5.287885189E0,-3.742507458E0,7.317428846E0
3.257014174E0,3.514770031E0,-5.275122643E0,-3.802078485E0,7.391639065E0
3.261812039E0,3.658160686E0,-5.272305489E0,-3.889610291E0,7.503893189E0
3.266609903E0,3.772998810E0,-5.293784142E0,-3.949984312E0,7.606710631E0
3.271407768E0,3.876231194E0,-5.272768974E0,-4.002119064E0,7.670998496E0
3.276205632E0,3.989541531E0,-5.276310444E0,-4.050525665E0,7.756458708E0
3.281003497E0,4.070046425E0,-5.323464394E0,-4.102052689E0,7.856932436E0
3.285801361E0,4.175293922E0,-5.392788887E0,-4.156431675E0,7.986937810E0
3.290599226E0,4.250394344E0,-5.496087074E0,-4.180039406E0,8.108363253E0
3.295397091E0,4.383889675E0,-5.573571205E0,-4.177710533E0,8.230215669E0
3.300194903E0,4.511258602E0,-5.629887581E0,-4.185261726E0,8.340473851E0
3.304992768E0,4.603895187E0,-5.703115463E0,-4.205140114E0,8.450123091E0
3.309790632E0,4.697731495E0,-5.843354225E0,-4.175565720E0,8.581889004E0
3.314588497E0,4.756953716E0,-6.005042076E0,-4.140048981E0,8.707993142E0
3.319386361E0,4.853293419E0,-6.154528141E0,-4.096820831E0,8.844015749E0
3.324184226E0,4.962838650E0,-6.358275414E0,-4.112818241E0,9.053878041E0
3.328982091E0,5.097576618E0,-6.532067299E0,-4.140075207E0,9.262473390E0
3.333779903E0,5.221690655E0,-6.744524479E0,-4.204759121E0,9.509714139E0
3.338577768E0,5.397376060E0,-6.935070992E0,-4.220887184E0,9.748987979E0
3.343375632E0,5.557721138E0,-7.126846313E0,-4.255608559E0,9.989514844E0
3.348173497E0,5.721942425E0,-7.300231934E0,-4.263757706E0,1.020850827E1
3.352971361E0,5.868610382E0,-7.473684311E0,-4.286246777E0,1.042441636E1
3.357769226E0,6.002606869E0,-7.629965782E0,-4.273282528E0,1.060700762E1
3.362567091E0,6.152695656E0,-7.770967960E0,-4.222905636E0,1.077388226E1
3.367364955E0,6.340422153E0,-7.958066940E0,-4.226403236E0,1.101790664E1
3.372162820E0,6.613596916E0,-8.159156799E0,-4.257595062E0,1.133307635E1
3.376960684E0,6.919579029E0,-8.313393593E0,-4.254666328E0,1.162304919E1
3.381758497E0,7.258363724E0,-8.522372246E0,-4.370768070E0,1.201741595E1
3.386556361E0,7.529532433E0,-8.591509819E0,-4.386398315E0,1.223717246E1
3.391354226E0,7.771354675E0,-8.606311798E0,-4.388266563E0,1.239836440E1
3.396152091E0,7.974212646E0,-8.599583626E0,-4.419766903E0,1.253296634E1
3.400949955E0,8.145174026E0,-8.558819771E0,-4.411801815E0,1.261194874E1
3.405747820E0,8.233876228E0,-8.507881165E0,-4.362454414E0,1.261791457E1
3.410545684E0,8.199539185E0,-8.399320602E0,-4.276907444E0,1.249291666E1
3.415343549E0,8.139988899E0,-8.248022079E0,-4.176892281E0,1.231810524E1
3.420141361E0,7.995205879E0,-8.016613007E0,-4.121890068E0,1.204904058E1
3.424939226E0,7.769752026E0,-7.813774586E0,-4.111696720E0,1.176138469E1
3.429737091E0,7.449077606E0,-7.705298901E0,-4.105622768E0,1.147678207E1
3.434534955E0,7.021079063E0,-7.658952713E0,-4.113077164E0,1.117463698E1
3.439332820E0,6.504793167E0,-7.709666729E0,-4.140978336E0,1.090408166E1
3.444130684E0,5.967094421E0,-7.842192650E0,-4.122167110E0,1.068168821E1
3.448928549E0,5.443809986E0,-8.003228188E0,-4.146948338E0,1.053014288E1
3.453726414E0,4.939736366E0,-8.194213867E0,-4.187722683E0,1.044428827E1
3.458524278E0,4.488415241E0,-8.373388290E0,-4.309416771E0,1.043218940E1
3.463322091E0,4.130566120E0,-8.501295090E0,-4.452196121E0,1.044775789E1
3.468119955E0,3.868574142E0,-8.571567535E0,-4.496829033E0,1.042396792E1
3.472917820E0,3.637887955E0,-8.589660645E0,-4.484674454E0,1.035030452E1
3.477715684E0,3.476690292E0,-8.575069427E0,-4.386112213E0,1.023997907E1
3.482513549E0,3.282032490E0,-8.535076141E0,-4.262587070E0,1.008904904E1
3.487311414E0,3.089643478E0,-8.476955414E0,-4.147071838E0,9.929898023E0
3.492109278E0,2.882623196E0,-8.441564560E0,-3.989338636E0,9.771609461E0
3.496907143E0,2.620116711E0,-8.462388992E0,-3.775305033E0,9.629640031E0
3.501705007E0,2.383141518E0,-8.462895393E0,-3.496103048E0,9.461643539E0
3.506502820E0,2.133195400E0,-8.409902573E0,-3.183475494E0,9.241834240E0
3.511300684E0,1.886868000E0,-8.277643204E0,-2.904822111E0,8.973162171E0
3.516098549E0,1.658367634E0,-8.143191338E0,-2.627051115E0,8.715683905E0
3.520896414E0,1.373548031E0,-7.968896866E0,-2.324538708E0,8.413883268E0
3.525694278E0,1.089850903E0,-7.779279232E0,-1.986288071E0,8.102487313E0
3.530492143E0,7.644062042E-1,-7.601275444E0,-1.591989279E0,7.803725718E0
3.535290007E0,4.047346115E-1,-7.452340603E0,-1.228874326E0,7.563816674E0
3.540087872E0,8.833885193E-3,-7.354532719E0,-8.813391924E-1,7.407157911E0
3.544885736E0,-4.228477478E-1,-7.227024555E0,-5.553159714E-1,7.260651484E0
3.549683549E0,-8.801584244E-1,-7.079893112E0,-2.210682631E-1,7.137817349E0
3.554481414E0,-1.266897202E0,-6.915832520E0,7.696413994E-2,7.031336390E0
3.559279278E0,-1.644558907E0,-6.778198242E0,3.971788883E-1,6.986150333E0
3.564077143E0,-2.022008896E0,-6.669379711E0,6.712023020E-1,7.001404019E0
3.568875007E0,-2.305210114E0,-6.555840969E0,9.858535528E-1,7.018899608E0
3.573672872E0,-2.531582832E0,-6.506736755E0,1.308242083E0,7.103381743E0
3.578470736E0,-2.662284851E0,-6.487942696E0,1.589113712E0,7.190719258E0
3.583268601E0,-2.795068264E0,-6.546263218E0,1.849057674E0,7.354249316E0
3.588066466E0,-2.796085835E0,-6.634992599E0,2.058877468E0,7.488671392E0
3.592864330E0,-2.809177876E0,-6.759923935E0,2.240050793E0,7.655447701E0
3.597662143E0,-2.755733013E0,-6.900790215E0,2.375926018E0,7.801281591E0
3.602460007E0,-2.741443634E0,-6.994316101E0,2.473994732E0,7.909274357E0
3.607257872E0,-2.663982868E0,-7.032496452E0,2.601687670E0,7.957486400E0
3.612055736E0,-2.602946281E0,-7.024092674E0,2.690363169E0,7.959350553E0
3.616853601E0,-2.508689880E0,-6.942319870E0,2.805371523E0,7.896799318E0
3.621651466E0,-2.439158916E0,-6.739104271E0,2.880640268E0,7.724189987E0
3.626449330E0,-2.370697021E0,-6.455220699E0,2.957584858E0,7.485812370E0
3.631247195E0,-2.344179630E0,-6.088626385E0,3.025283098E0,7.191584472E0
3.636045007E0,-2.347705841E0,-5.771218300E0,3.113263607E0,6.964990572E0
3.640842872E0,-2.321134567E0,-5.317193985E0,3.245794296E0,6.647961956E0
3.645640736E0,-2.311635494E0,-4.839977264E0,3.406432152E0,6.353960858E0
3.650438601E0,-2.313891411E0,-4.371451378E0,3.540649652E0,6.082752713E0
3.655236466E0,-2.277213573E0,-3.924396515E0,3.642014980E0,5.818149429E0
3.660034330E0,-2.272847176E0,-3.437306881E0,3.730109930E0,5.558294070E0
3.664832195E0,-2.221260071E0,-2.903788090E0,3.879398108E0,5.330638916E0
3.669630059E0,-2.141128063E0,-2.424902439E0,3.992326260E0,5.138409305E0
3.674427924E0,-2.060658455E0,-1.975131989E0,4.024435520E0,4.933917399E0
3.679225736E0,-1.979530334E0,-1.569221497E0,4.095853806E0,4.812173609E0
3.684023601E0,-1.916512966E0,-1.238440990E0,4.151753426E0,4.737490321E0
3.688821466E0,-1.847270489E0,-9.421834946E-1,4.242155075E0,4.721863793E0
3.693619330E0,-1.778736115E0,-6.922588348E-1,4.338076591E0,4.739412724E0
3.698417195E0,-1.696502209E0,-4.669680595E-1,4.429883003E0,4.766554556E0
3.703215059E0,-1.571990013E0,-2.779684067E-1,4.510322094E0,4.784498347E0
3.708012924E0,-1.443697929E0,-9.857988358E-2,4.541095257E0,4.766080972E0
3.712810789E0,-1.302331924E0,6.683206558E-2,4.600999832E0,4.782231113E0
3.717608653E0,-1.167360783E0,2.018818855E-1,4.647054195E0,4.795685581E0
3.722406466E0,-1.024792194E0,3.239426613E-1,4.690837860E0,4.812390022E0
3.727204330E0,-8.915967941E-1,3.977565765E-1,4.746178150E0,4.845550760E0
3.732002195E0,-7.798571587E-1,4.430108070E-1,4.836429596E0,4.918890830E0
3.736800059E0,-6.468911171E-1,4.485621452E-1,4.889221668E0,4.952187864E0
3.741597924E0,-5.552525520E-1,4.940052032E-1,4.942395687E0,4.997961751E0
3.746395789E0,-4.335122108E-1,5.130596161E-1,5.004969597E0,5.049839965E0
3.751193653E0,-3.417172432E-1,5.373177528E-1,5.052723408E0,5.092690338E0
3.755991518E0,-2.396664619E-1,5.818047523E-1,5.104443073E0,5.143080387E0
3.760789382E0,-1.634550095E-1,5.824913979E-1,5.131053925E0,5.166597347E0
3.765587247E0,-9.675264359E-2,4.802398682E-1,5.115669727E0,5.139072695E0
3.770385111E0,-5.900382996E-2,4.023437500E-1,5.136952877E0,5.153023074E0
3.775182924E0,-3.113555908E-2,2.941942215E-1,5.187264442E0,5.195693607E0
3.779980789E0,1.528215408E-2,2.373824120E-1,5.144604683E0,5.150101096E0
3.784778653E0,3.467082977E-3,1.722702980E-1,5.059385777E0,5.062318986E0
3.789576518E0,-4.036426544E-2,6.302356720E-2,4.936595917E0,4.937163203E0
3.794374382E0,-5.661821365E-2,-4.027175903E-2,4.810163021E0,4.810664790E0
3.799172247E0,-6.684637070E-2,-1.236796379E-1,4.649557114E0,4.651682109E0
3.803970111E0,-1.718158722E-1,-2.113423347E-1,4.462729454E0,4.471033489E0
3.808767976E0,-2.545681000E-1,-3.106541634E-1,4.271806240E0,4.290645578E0
3.813565789E0,-2.700719833E-1,-3.810663223E-1,4.113114834E0,4.139548774E0
3.818363653E0,-2.688379288E-1,-3.942279816E-1,3.980083942E0,4.008585501E0
3.823161518E0,-2.464628220E-1,-3.765525818E-1,3.856369019E0,3.882540119E0
3.827959382E0,-2.247433662E-1,-3.878393173E-1,3.749353170E0,3.776053246E0
3.832757247E0,-2.422218323E-1,-4.088511467E-1,3.644787788E0,3.675637183E0
3.837555111E0,-3.086047173E-1,-5.040240288E-1,3.542632580E0,3.591590551E0
3.842352976E0,-3.786754608E-1,-5.991144180E-1,3.481146336E0,3.552564285E0
3.847150841E0,-5.242590904E-1,-7.203564644E-1,3.405187607E0,3.519810175E0
3.851948705E0,-6.236562729E-1,-8.150682449E-1,3.321935177E0,3.476857304E0
3.856746570E0,-7.869296074E-1,-9.431762695E-1,3.243428946E0,3.468237450E0
3.861544382E0,-9.974021912E-1,-1.047362804E0,3.131451130E0,3.449313867E0
3.866342247E0,-1.271729469E0,-1.213793755E0,3.019381285E0,3.493888159E0
3.871140111E0,-1.571322918E0,-1.390138626E0,2.947794437E0,3.618153280E0
3.875937976E0,-1.893630981E0,-1.578980446E0,2.861605167E0,3.777274371E0
3.880735841E0,-2.221731663E0,-1.761370182E0,2.767857790E0,3.962266175E0
3.885533705E0,-2.572327614E0,-1.975662708E0,2.692749023E0,4.215567553E0
3.890331570E0,-2.919159889E0,-2.174067497E0,2.605050087E0,4.475974743E0
3.895129434E0,-3.281457901E0,-2.325530052E0,2.569105387E0,4.772458325E0
3.899927247E0,-3.640093803E0,-2.454100132E0,2.556035519E0,5.079981095E0
3.904725164E0,-4.066793919E0,-2.629113197E0,2.517715454E0,5.458016131E0
3.909522976E0,-4.575790405E0,-2.795600414E0,2.511268377E0,5.921123911E0
3.914320841E0,-5.073659897E0,-2.934471130E0,2.507535458E0,6.375019971E0
3.919118705E0,-5.576827049E0,-3.026881218E0,2.539756298E0,6.834718129E0
3.923916570E0,-6.058583260E0,-2.999011993E0,2.669689894E0,7.268269958E0
3.928714434E0,-6.523046017E0,-2.798741341E0,2.853834629E0,7.650323818E0
3.933512299E0,-6.883584023E0,-2.579630852E0,2.908082485E0,7.905388546E0
3.938310164E0,-7.215881348E0,-2.284889221E0,2.968918324E0,8.130445153E0
3.943108028E0,-7.571825981E0,-1.993990898E0,2.933914185E0,8.361602767E0
3.947905841E0,-7.981573105E0,-1.705192566E0,2.880314350E0,8.655021760E0
3.952703705E0,-8.403617859E0,-1.400101662E0,2.672956944E0,8.928929197E0
3.957501570E0,-8.758203506E0,-1.036428452E0,2.420715332E0,9.145500277E0
3.962299434E0,-9.056385040E0,-5.957689285E-1,2.170119047E0,9.331798717E0
3.967097299E0,-9.285545349E0,-8.837223053E-2,1.900993943E0,9.478551580E0
3.971895164E0,-9.456815720E0,4.659423828E-1,1.559777975E0,9.595903980E0
3.976693028E0,-9.488163948E0,1.097609043E0,1.224481821E0,9.629608323E0
3.981490893E0,-9.491371155E0,1.772577763E0,8.511114120E-1,9.692912305E0
3.986288757E0,-9.501547813E0,2.351681232E0,3.957221508E-1,9.796244765E0
3.991086622E0,-9.484407425E0,2.966203213E0,9.101557732E-2,9.937838273E0
3.995884434E0,-9.417725563E0,3.520430088E0,-6.293678284E-2,1.005439923E1
4.000682299E0,-9.301136017E0,4.038420200E0,-1.261250973E-1,1.014080255E1
4.005480164E0,-9.234611511E0,4.573082924E0,-1.161043644E-1,1.030556245E1
4.010278028E0,-9.181897163E0,5.057813644E0,-8.642220497E-2,1.048313804E1
4.015075893E0,-9.111465454E0,5.459655762E0,3.327894211E-2,1.062204082E1
4.019873757E0,-9.006266594E0,5.767210484E0,1.770076752E-1,1.069602199E1
4.024671622E0,-8.923392296E0,5.928354263E0,3.531651497E-1,1.071900368E1
4.029469486E0,-8.874483109E0,5.972330570E0,5.771420002E-1,1.071252892E1
4.034267351E0,-8.847356796E0,5.875681877E0,7.306973934E-1,1.064581037E1
4.039065164E0,-8.808527946E0,5.751296043E0,8.819856644E-1,1.055677363E1
4.043863028E0,-8.710186958E0,5.558862686E0,1.008451223E0,1.038196923E1
4.048660893E0,-8.567070007E0,5.404178619E0,1.134950161E0,1.019254369E1
4.053458757E0,-8.367794991E0,5.149012089E0,1.193513632E0,9.897312427E0
4.058256622E0,-8.137313843E0,4.901637077E0,1.209403515E0,9.576250805E0
4.063054486E0,-7.908078194E0,4.615046501E0,1.143237352E0,9.227315242E0
4.067852351E0,-7.698319912E0,4.294865608E0,1.039570332E0,8.876412932E0
4.072650216E0,-7.552472115E0,3.970643520E0,9.429109097E-1,8.584574887E0
4.077448080E0,-7.416835785E0,3.643207550E0,8.069860935E-1,8.302628552E0
4.082245945E0,-7.385715485E0,3.291958809E0,6.666219234E-1,8.113579408E0
4.087043757E0,-7.333347321E0,2.939149380E0,4.948499203E-1,7.915899093E0
4.091841622E0,-7.294261456E0,2.597413540E0,2.839822769E-1,7.748125787E0
4.096639486E0,-7.216670036E0,2.362762451E0,7.206630707E-2,7.593955910E0
4.101437351E0,-7.106239319E0,2.189930439E0,-2.005538940E-1,7.438726669E0
4.106235216E0,-7.013834953E0,2.050145149E0,-4.974789619E-1,7.324237926E0
4.111033080E0,-6.923231125E0,1.885711193E0,-8.368816376E-1,7.224085187E0
4.115830945E0,-6.870663166E0,1.705845356E0,-1.174745560E0,7.176067715E0
4.120628809E0,-6.789233685E0,1.538613796E0,-1.471685410E0,7.115257155E0
4.125426674E0,-6.686131477E0,1.411850452E0,-1.752560139E0,7.054724862E0
4.130224539E0,-6.573081970E0,1.348546982E0,-2.011265039E0,7.004939158E0
4.135022351E0,-6.466622829E0,1.343077183E0,-2.217888117E0,6.967072185E0
4.139820216E0,-6.311274052E0,1.416022778E0,-2.376129627E0,6.890812192E0
4.144618080E0,-6.154403687E0,1.533232689E0,-2.487807751E0,6.812978396E0
4.149415945E0,-5.988339424E0,1.636746883E0,-2.554876804E0,6.713162065E0
4.154213809E0,-5.783895016E0,1.754717827E0,-2.593676567E0,6.577205663E0
4.159011674E0,-5.562114239E0,1.905735970E0,-2.634966850E0,6.442980265E0
4.163809539E0,-5.327392101E0,2.017611980E0,-2.637786150E0,6.277720962E0
4.168607403E0,-5.091531754E0,2.083015919E0,-2.633162260E0,6.098868289E0
4.173405268E0,-4.861505985E0,2.101716518E0,-2.575499058E0,5.889367382E0
4.178203080E0,-4.587131977E0,2.061711311E0,-2.500627279E0,5.616544320E0
4.183000945E0,-4.333015919E0,1.972559929E0,-2.427692413E0,5.344128561E0
4.187798809E0,-4.065751553E0,1.829531193E0,-2.332875729E0,5.031881282E0
4.192596674E0,-3.802256107E0,1.659010410E0,-2.244899511E0,4.716888897E0
4.197394539E0,-3.516581535E0,1.485069275E0,-2.158921957E0,4.385512566E0
4.202192403E0,-3.268755913E0,1.336534023E0,-2.072654724E0,4.094751032E0
4.206990268E0,-3.015977859E0,1.127521038E0,-1.969537258E0,3.774454020E0
4.211788132E0,-2.756145954E0,9.252734184E-1,-1.876194239E0,3.460141072E0
4.216585997E0,-2.530172825E0,6.989326477E-1,-1.814320564E0,3.190930974E0
4.221383809E0,-2.340698719E0,4.917540550E-1,-1.728987455E0,2.951286188E0
4.226181674E0,-2.144896030E0,2.800059319E-1,-1.706399441E0,2.755137266E0
4.230979539E0,-1.935924053E0,1.188988686E-1,-1.689114332E0,2.571973193E0
4.235777403E0,-1.745003700E0,-4.415893555E-2,-1.691306114E0,2.430535805E0
4.240575268E0,-1.615256310E0,-1.852011681E-1,-1.719990253E0,2.366795067E0
4.245373132E0,-1.494071007E0,-3.233723640E-1,-1.724862337E0,2.304770692E0
4.250170997E0,-1.402901173E0,-4.181156158E-1,-1.789565921E0,2.312033424E0
4.254968861E0,-1.281832218E0,-4.864068031E-1,-1.849334359E0,2.302112722E0
4.259766726E0,-1.137951851E0,-5.285210609E-1,-1.953999996E0,2.322150924E0
4.264564591E0,-9.568333626E-1,-5.280342102E-1,-2.059982061E0,2.331925450E0
4.269362455E0,-7.671895027E-1,-5.377264023E-1,-2.157224178E0,2.351881284E0
4.274160268E0,-5.952796936E-1,-5.649719238E-1,-2.242621422E0,2.388074963E0
4.278958132E0,-4.004664421E-1,-5.811977386E-1,-2.344226360E0,2.448175119E0
4.283755997E0,-2.258028984E-1,-6.391086578E-1,-2.475705624E0,2.566820048E0
4.288553861E0,-3.076505661E-2,-7.266502380E-1,-2.586208105E0,2.686529252E0
4.293351726E0,1.487221718E-1,-7.792434692E-1,-2.641871452E0,2.758409585E0
4.298149591E0,3.533110619E-1,-8.447532654E-1,-2.692703485E0,2.844132354E0
4.302947455E0,5.732722282E-1,-8.919310570E-1,-2.769522190E0,2.965541303E0
4.307745320E0,8.108735085E-1,-9.350299835E-1,-2.800249815E0,3.061567563E0
4.312543184E0,1.034881115E0,-9.834146500E-1,-2.822993279E0,3.163443432E0
4.317341049E0,1.292914867E0,-1.082173824E0,-2.854503870E0,3.315255855E0
4.322138861E0,1.498616695E0,-1.171052456E0,-2.851608992E0,3.427665342E0
4.326936726E0,1.756983280E0,-1.285527706E0,-2.861975670E0,3.595897171E0
4.331734591E0,1.995955944E0,-1.436959267E0,-2.861641407E0,3.773285519E0
4.336532455E0,2.248789310E0,-1.560298443E0,-2.855310678E0,3.955298176E0
4.341330320E0,2.453150272E0,-1.710089207E0,-2.814377546E0,4.106467135E0
4.346128184E0,2.652015686E0,-1.814253807E0,-2.777279377E0,4.247114881E0
4.350926049E0,2.854863167E0,-1.920283794E0,-2.708451271E0,4.378748890E0
4.355723914E0,3.054485798E0,-1.994464874E0,-2.677402973E0,4.525070199E0
4.360521778E0,3.229362488E0,-2.136977196E0,-2.593489408E0,4.660648123E0
4.365319643E0,3.386692524E0,-2.228016853E0,-2.507317543E0,4.766590670E0
4.370117455E0,3.564762592E0,-2.293760300E0,-2.404911518E0,4.873650384E0
4.374915320E0,3.713380814E0,-2.417683125E0,-2.284290791E0,4.985215459E0
4.379713184E0,3.830220222E0,-2.561324596E0,-2.205413103E0,5.108308683E0
4.384511049E0,3.932132721E0,-2.688741922E0,-2.096921921E0,5.204621254E0
4.389308914E0,4.023951054E0,-2.852326393E0,-1.954556346E0,5.305491348E0
4.394106778E0,4.108199596E0,-3.013760567E0,-1.810007095E0,5.407049321E0
4.398904643E0,4.177796841E0,-3.184853315E0,-1.661436915E0,5.509777646E0
4.403702507E0,4.211355209E0,-3.382189989E0,-1.507089376E0,5.607676900E0
4.408500372E0,4.254438877E0,-3.629493952E0,-1.385840178E0,5.761425996E0
4.413298236E0,4.287960052E0,-3.840308905E0,-1.243290067E0,5.889001960E0
4.418096049E0,4.335942745E0,-4.071802139E0,-1.125544190E0,6.053661857E0
4.422893914E0,4.348182678E0,-4.320954323E0,-1.035547614E0,6.216888106E0
4.427691778E0,4.379719257E0,-4.603909492E0,-9.379208088E-1,6.423209387E0
4.432489643E0,4.440023899E0,-4.883842468E0,-8.929086924E-1,6.660556689E0
4.437287507E0,4.502708435E0,-5.159777164E0,-8.291069269E-1,6.898195556E0
4.442085372E0,4.675228596E0,-5.399492264E0,-8.091236353E-1,7.187973302E0
4.446883236E0,4.880889893E0,-5.544575691E0,-7.470479012E-1,7.424519264E0
4.451681101E0,5.167401791E0,-5.560809135E0,-7.313493490E-1,7.626238350E0
4.456478966E0,5.481999397E0,-5.492918015E0,-7.521111965E-1,7.796802996E0
4.461276830E0,5.795917034E0,-5.350081444E0,-8.302686214E-1,7.931290671E0
4.466074643E0,5.980030060E0,-5.277787209E0,-9.268569946E-1,8.029623978E0
4.470872507E0,6.048813343E0,-5.273422718E0,-1.038980126E0,8.091761843E0
4.475670372E0,6.047775269E0,-5.327367306E0,-1.151692271E0,8.141426361E0
4.480468236E0,5.962693214E0,-5.432768822E0,-1.283657074E0,8.168014626E0
4.485266101E0,5.822303772E0,-5.601901054E0,-1.422196746E0,8.203850329E0
4.490063966E0,5.583614349E0,-5.832879066E0,-1.576066613E0,8.226980818E0
4.494861830E0,5.289735794E0,-6.052216053E0,-1.699187636E0,8.215708280E0
4.499659695E0,4.969389915E0,-6.277362823E0,-1.793441415E0,8.204666493E0
4.504457559E0,4.660880566E0,-6.456568718E0,-1.832288265E0,8.171191317E0
4.509255372E0,4.344958782E0,-6.611783981E0,-1.879978895E0,8.131953940E0
4.514053236E0,4.052631855E0,-6.827045441E0,-1.864884257E0,8.155376613E0
4.518851101E0,3.810051441E0,-6.932659149E0,-1.770841479E0,8.106425501E0
4.523648966E0,3.590728283E0,-7.007673264E0,-1.648533463E0,8.044779472E0
4.528446830E0,3.387290955E0,-7.011369228E0,-1.498624563E0,7.929622567E0
4.533244695E0,3.161395073E0,-6.979664326E0,-1.312573314E0,7.773865294E0
4.538042559E0,2.884321690E0,-6.934144497E0,-1.155964971E0,7.598547659E0
4.542840424E0,2.565599442E0,-6.877148628E0,-1.020290256E0,7.410699424E0
4.547638289E0,2.164590836E0,-6.806354523E0,-9.496235847E-1,7.205116260E0
4.552436153E0,1.736352921E0,-6.736325264E0,-8.803963661E-1,7.011996669E0
4.557234018E0,1.249852180E0,-6.619427681E0,-8.161901236E-1,6.785655430E0
4.562031882E0,7.649946213E-1,-6.475170135E0,-7.343627214E-1,6.561427715E0
4.566829695E0,2.795410156E-1,-6.287387371E0,-7.005866766E-1,6.332472252E0
4.571627559E0,-2.181730270E-1,-6.092744827E0,-6.490211487E-1,6.131098389E0
4.576425424E0,-6.297636032E-1,-5.827666283E0,-5.497127771E-1,5.887315232E0
4.581223289E0,-9.764461517E-1,-5.572221279E0,-4.988254309E-1,5.679077732E0
4.586021153E0,-1.217285156E0,-5.330058098E0,-5.295586586E-1,5.492880378E0
4.590819018E0,-1.414363861E0,-5.054481030E0,-6.096343994E-1,5.283924461E0
4.595616882E0,-1.581942558E0,-4.753764629E0,-7.636245489E-1,5.067932800E0
4.600414747E0,-1.664984703E0,-4.452787876E0,-9.393533468E-1,4.845810422E0
4.605212611E0,-1.735065460E0,-4.068805695E0,-1.111184597E0,4.560741512E0
4.610010476E0,-1.997463226E0,-3.684178352E0,-1.570551991E0,4.475451154E0
4.614808289E0,-2.133669853E0,-3.223363400E0,-1.973133445E0,4.340031594E0
4.619606153E0,-2.186070442E0,-2.752072334E0,-2.343740940E0,4.224444071E0
4.624404018E0,-2.189750195E0,-2.333370209E0,-2.621592522E0,4.136710021E0
4.629201882E0,-2.050787926E0,-1.967828751E0,-2.834561825E0,4.014077957E0
4.633999747E0,-1.847583771E0,-1.564984798E0,-2.950642586E0,3.816940513E0
4.638797611E0,-1.586814880E0,-1.201671124E0,-3.042917252E0,3.636116108E0
4.643595476E0,-1.306311131E0,-8.947129250E-1,-3.062702894E0,3.447768700E0
4.648393341E0,-1.115592957E0,-6.609010696E-1,-3.023448467E0,3.289768761E0
4.653191205E0,-9.736051559E-1,-5.575385094E-1,-3.041317701E0,3.241661541E0
4.657989070E0,-8.730192184E-1,-4.958558083E-1,-2.984016895E0,3.148395205E0
4.662786934E0,-7.468566895E-1,-4.684019089E-1,-2.860662699E0,2.993423849E0
4.667584747E0,-5.668106079E-1,-4.864172935E-1,-2.609539986E0,2.714327723E0
4.672382611E0,-3.597140312E-1,-5.227499008E-1,-2.293857098E0,2.380008829E0
4.677180476E0,-2.145290375E-1,-5.789365768E-1,-1.977147222E0,2.071304276E0
4.681978341E0,-1.317639351E-1,-5.871801376E-1,-1.667867899E0,1.773111834E0
4.686776205E0,-8.306264877E-2,-5.612497330E-1,-1.295592427E0,1.414376330E0
4.691574070E0,-2.569150925E-2,-5.293273926E-1,-9.572029114E-1,1.094113776E0
4.696371934E0,1.397418976E-2,-4.958953857E-1,-5.917907953E-1,7.722200833E-1
4.701169799E0,7.182741165E-2,-4.798183441E-1,-2.174656391E-1,5.316729489E-1
4.705967664E0,1.168184280E-1,-4.545741081E-1,1.360090971E-1,4.886539055E-1
4.710765528E0,1.608762741E-1,-4.485893250E-1,4.558831453E-1,6.595020851E-1
4.715563341E0,2.445163727E-1,-4.041914940E-1,7.249109745E-1,8.652484853E-1
4.720361205E0,3.341989517E-1,-3.522777557E-1,9.784894586E-1,1.092350757E0
4.725159070E0,4.131579399E-1,-2.855429649E-1,1.221183538E0,1.320425501E0
4.729956934E0,5.339207649E-1,-2.205896378E-1,1.421861887E0,1.534738544E0
4.734754799E0,6.224017143E-1,-1.263318062E-1,1.602045655E0,1.723338011E0
4.739552664E0,7.502412796E-1,-7.420063019E-3,1.773638725E0,1.925801486E0
4.744350528E0,8.480577469E-1,1.027536392E-1,1.919868469E0,2.101346043E0
4.749148393E0,9.589099884E-1,2.138419151E-1,2.066942453E0,2.288555841E0
4.753946257E0,1.025604725E0,3.281345367E-1,2.226748228E0,2.473447998E0
4.758744122E0,1.100750923E0,4.720458984E-1,2.346522331E0,2.634510766E0
4.763541986E0,1.167671680E0,5.929970741E-1,2.466825485E0,2.792907205E0
4.768339799E0,1.240942001E0,7.195482254E-1,2.580464363E0,2.952369054E0
4.773137664E0,1.289658070E0,8.205671310E-1,2.658620119E0,3.066726152E0
4.777935528E0,1.340266228E0,9.127726555E-1,2.732344627E0,3.177290456E0
4.782733393E0,1.404739380E0,9.652080536E-1,2.796662331E0,3.275093816E0
4.787531257E0,1.466201305E0,9.685811996E-1,2.844295979E0,3.343338963E0
4.792329122E0,1.521962643E0,9.208812714E-1,2.889636278E0,3.393286080E0
4.797126986E0,1.586020947E0,8.583865166E-1,2.927906513E0,3.438739072E0
4.801924851E0,1.677056789E0,8.006591797E-1,2.942418098E0,3.480143512E0
4.806722716E0,1.773105145E0,7.385230064E-1,2.950034142E0,3.520230038E0
4.811520580E0,1.871371269E0,7.058978081E-1,2.964966536E0,3.576499504E0
4.816318445E0,1.947670460E0,6.504659653E-1,2.968097687E0,3.609173045E0
4.821116257E0,1.999135494E0,6.085076332E-1,2.909482002E0,3.582165516E0
4.825914122E0,2.046902180E0,5.660061836E-1,2.880143404E0,3.578463017E0
4.830711986E0,2.097838402E0,5.160827637E-1,2.858570337E0,3.583112021E0
4.835509851E0,2.084738731E0,4.709939957E-1,2.830358982E0,3.546674906E0
4.840307716E0,2.057671070E0,3.712759018E-1,2.802459478E0,3.496517576E0
4.845105580E0,2.047348022E0,2.556242943E-1,2.772367716E0,3.455864647E0
4.849903445E0,2.017668724E0,1.697196960E-1,2.761476278E0,3.424258035E0
4.854701309E0,2.020925045E0,1.161508560E-1,2.738738298E0,3.405630122E0
4.859499174E0,2.025727272E0,9.031295776E-2,2.706554174E0,3.381887477E0
4.864297039E0,1.988837242E0,1.113777161E-1,2.696128845E0,3.352161888E0
4.869094903E0,1.943709373E0,1.506075859E-1,2.642858505E0,3.284111730E0
4.873892716E0,1.892791271E0,1.911063194E-1,2.597026825E0,3.219274569E0
4.878690580E0,1.805174828E0,2.038908005E-1,2.539681196E0,3.122532337E0
4.883488445E0,1.728766441E0,2.126545906E-1,2.437574863E0,2.995935012E0
4.888286309E0,1.596897602E0,1.882529259E-1,2.307840347E0,2.812765220E0
4.893084174E0,1.443314552E0,1.541438103E-1,2.205941677E0,2.640662018E0
4.897882039E0,1.272977352E0,9.570884705E-2,2.129628658E0,2.482931683E0
4.902679903E0,1.138441563E0,1.765155792E-2,2.045532703E0,2.341060616E0
4.907477768E0,9.607071877E-1,-8.010864258E-2,1.946696520E0,2.172326641E0
4.912275632E0,8.089141846E-1,-1.975088120E-1,1.859517455E0,2.037438847E0
4.917073497E0,6.183018684E-1,-3.774676323E-1,1.779142141E0,1.920970008E0
4.921871309E0,3.983106613E-1,-5.888028145E-1,1.660089374E0,1.805889494E0
4.926669174E0,1.367912292E-1,-8.624539375E-1,1.550097346E0,1.779140359E0
4.931467039E0,-2.190246582E-1,-1.181530476E0,1.429919600E0,1.867794456E0
4.936264903E0,-5.665974617E-1,-1.507542610E0,1.337522864E0,2.093486283E0
4.941062768E0,-9.494209290E-1,-1.866515636E0,1.267817378E0,2.447987260E0
4.945860632E0,-1.351252079E0,-2.210375786E0,1.208606243E0,2.858736145E0
4.950658497E0,-1.817933083E0,-2.510357857E0,1.116734982E0,3.294521859E0
4.955456361E0,-2.383363724E0,-2.838051796E0,9.800424576E-1,3.833463689E0
4.960254226E0,-3.016761780E0,-3.236318111E0,8.148379326E-1,4.498729533E0
4.965052091E0,-3.634710789E0,-3.678775787E0,7.402098179E-1,5.224215193E0
4.969849955E0,-4.168019295E0,-3.938563347E0,7.055952549E-1,5.777761742E0
4.974647820E0,-4.645852089E0,-4.047162056E0,6.392540932E-1,6.194522430E0
4.979445632E0,-5.099505424E0,-4.036298752E0,5.392165184E-1,6.525903588E0
4.984243497E0,-5.531636238E0,-3.906545639E0,3.508820534E-1,6.781092575E0
4.989041361E0,-5.963493824E0,-3.704120636E0,2.466733456E-1,7.024572301E0
4.993839226E0,-6.373161793E0,-3.484810829E0,1.623191833E-1,7.265496904E0
4.998637091E0,-6.791002274E0,-3.163391113E0,1.147542000E-1,7.492524524E0
5.003434955E0,-7.192178726E0,-2.812562943E0,6.617879868E-2,7.722844344E0
5.008232820E0,-7.621163845E0,-2.404505730E0,-1.387071609E-2,7.991494138E0
5.013030684E0,-8.024306297E0,-1.983105659E0,-7.202100754E-2,8.266038146E0
5.017828549E0,-8.479202271E0,-1.618510246E0,-1.527941227E-1,8.633643067E0
5.022626414E0,-8.967741966E0,-1.270636559E0,-1.647245884E-1,9.058810486E0
5.027424226E0,-9.373680115E0,-8.874530792E-1,-1.573958397E-1,9.416911665E0
5.032222091E0,-9.702922821E0,-4.406909943E-1,-8.967971802E-2,9.713339399E0
5.037019955E0,-9.973179817E0,4.783248901E-2,7.205796242E-2,9.973554831E0
5.041817820E0,-1.029519653E1,5.683717728E-1,1.438086033E-1,1.031187660E1
5.046615684E0,-1.058118916E1,1.123246193E0,2.930190563E-1,1.064467501E1
5.051413549E0,-1.078197193E1,1.636031151E0,4.575481415E-1,1.091498360E1
5.056211414E0,-1.095120144E1,2.147660732E0,6.776832342E-1,1.118036288E1
5.061009278E0,-1.110902786E1,2.565260410E0,9.576637745E-1,1.144151130E1
5.065807143E0,-1.120868587E1,2.953827858E0,1.225228906E0,1.165593943E1
5.070605007E0,-1.127312279E1,3.342524529E0,1.486946225E0,1.185186807E1
5.075402872E0,-1.132766628E1,3.743787766E0,1.718073249E0,1.205337073E1
5.080200736E0,-1.136914158E1,4.076866150E0,1.915244102E0,1.222891564E1
5.084998549E0,-1.140883446E1,4.363795757E0,2.063290119E0,1.238795315E1
5.089796414E0,-1.134854412E1,4.674413204E0,2.149332762E0,1.246030593E1
5.094594278E0,-1.119081306E1,4.951700687E0,2.177468061E0,1.242960192E1
5.099392143E0,-1.101685715E1,5.155400276E0,2.206418514E0,1.236194063E1
5.104190007E0,-1.075993347E1,5.316847801E0,2.166222334E0,1.219580084E1
5.108987872E0,-1.048295593E1,5.450609684E0,2.034759998E0,1.198923514E1
5.113785736E0,-1.012453270E1,5.418137074E0,1.773494720E0,1.161927946E1
5.118583601E0,-9.738432884E0,5.360646725E0,1.458714724E0,1.121166611E1
5.123381466E0,-9.352008820E0,5.225449562E0,1.092905521E0,1.076846482E1
5.128179330E0,-8.947039604E0,5.007610798E0,7.026709318E-1,1.027713141E1
5.132977143E0,-8.522365570E0,4.723730087E0,2.334316969E-1,9.746734387E0
5.137775007E0,-8.139007568E0,4.375996590E0,-2.710413933E-1,9.244796038E0
5.142572872E0,-7.719180107E0,4.023889542E0,-7.953891754E-1,8.741285518E0
5.147370736E0,-7.326180458E0,3.604972839E0,-1.283618569E0,8.265375122E0
5.152168601E0,-6.968180656E0,3.207469940E0,-1.782506704E0,7.875324452E0
5.156966466E0,-6.617318153E0,2.797603607E0,-2.180911064E0,7.508119509E0
5.161764330E0,-6.295672417E0,2.379915714E0,-2.480424881E0,7.173004780E0
5.166562195E0,-6.027556419E0,1.973263264E0,-2.720759392E0,6.901285095E0
5.171360059E0,-5.784836292E0,1.594172001E0,-2.915235043E0,6.671155121E0
5.176157924E0,-5.539118767E0,1.168339729E0,-3.070331812E0,6.440014897E0
5.180955789E0,-5.307731628E0,7.889194489E-1,-3.168307781E0,6.231579505E0
5.185753601E0,-5.131797314E0,3.315629959E-1,-3.223006487E0,6.069023686E0
5.190551466E0,-4.975723267E0,-6.988334656E-2,-3.228993654E0,5.932040604E0
5.195349330E0,-4.789796829E0,-5.301752090E-1,-3.164283276E0,5.765060977E0
5.200147195E0,-4.607579231E0,-8.915052414E-1,-3.029240847E0,5.585773722E0
5.204945059E0,-4.228481770E0,-1.144388199E0,-2.824373245E0,5.212174849E0
5.209742924E0,-4.122399807E0,-1.477560997E0,-3.047489643E0,5.335218814E0
5.214540789E0,-4.076886177E0,-1.807218552E0,-2.898734093E0,5.318806176E0
5.219338653E0,-3.965336323E0,-2.099821091E0,-2.632232428E0,5.202094609E0
5.224136518E0,-3.814190865E0,-2.331448555E0,-2.296479225E0,5.025686137E0
5.228934382E0,-3.640508175E0,-2.492445946E0,-2.114350557E0,4.892449779E0
5.233732247E0,-3.415987015E0,-2.577915192E0,-1.856721997E0,4.664979163E0
5.238530111E0,-3.060040951E0,-2.609043121E0,-1.639100432E0,4.342534612E0
5.243327924E0,-2.683495998E0,-2.659601212E0,-1.449303031E0,4.046616939E0
5.248125789E0,-2.330384731E0,-2.685987473E0,-1.239124417E0,3.765720518E0
5.252923653E0,-2.144927025E0,-2.639801979E0,-9.346535206E-1,3.527441514E0
5.257721518E0,-1.892964840E0,-2.556395531E0,-5.543264151E-1,3.228893273E0
5.262519382E0,-1.584089279E0,-2.468729019E0,-1.385984421E-1,2.936523683E0
5.267317247E0,-1.275790691E0,-2.364313126E0,1.772054434E-1,2.692400456E0
5.272115111E0,-1.106750965E0,-2.218858719E0,4.738457203E-1,2.524432903E0
5.276912976E0,-9.935793877E-1,-1.926975250E0,6.975259781E-1,2.277493382E0
5.281710841E0,-9.532384872E-1,-1.653735638E0,1.017420769E0,2.163018769E0
5.286508705E0,-1.012097359E0,-1.452151775E0,1.921261430E0,2.612342115E0
5.291306570E0,-9.478025436E-1,-1.444488049E0,2.433151722E0,2.984141868E0
5.296104434E0,-6.514148712E-1,-1.523547649E0,2.549105883E0,3.040309125E0
5.300902247E0,-2.828397751E-1,-1.438482285E0,2.661021709E0,3.038135310E0
5.305700111E0,-3.609895706E-2,-1.270609856E0,2.764920712E0,3.043113386E0
5.310497976E0,1.479082108E-1,-1.155783653E0,2.787750959E0,3.021467872E0
5.315295841E0,3.522605896E-1,-1.217862606E0,2.721133709E0,3.001973603E0
5.320093705E0,5.643758774E-1,-1.331977367E0,2.575696468E0,2.954132044E0
5.324891570E0,7.769021988E-1,-1.431043625E0,2.354474545E0,2.862693358E0
5.329689434E0,9.230065346E-1,-1.505583286E0,2.177290201E0,2.803446935E0
5.334487299E0,9.719314575E-1,-1.476778984E0,2.191831350E0,2.815963706E0
5.339285164E0,1.015193462E0,-1.287843704E0,2.110656500E0,2.672831838E0
5.344083028E0,1.060472488E0,-1.056598663E0,2.017391682E0,2.512144867E0
5.348880841E0,1.048087597E0,-9.984602928E-1,1.816921115E0,2.323061107E0
5.353678705E0,1.023402214E0,-9.437479973E-1,1.667958498E0,2.172578635E0
5.358476570E0,9.834623337E-1,-1.131200314E0,1.392397881E0,2.045870027E0
5.363274434E0,1.090078354E0,-1.433595657E0,9.349036217E-1,2.029165372E0
5.368072299E0,1.141799450E0,-1.809720039E0,6.765235662E-1,2.244209603E0
5.372870164E0,1.317564964E0,-2.180020332E0,6.241565943E-1,2.622601292E0
5.377668028E0,1.564380646E0,-2.405448914E0,5.387346745E-1,2.919538719E0
5.382465893E0,1.779149055E0,-2.564603329E0,5.352168083E-1,3.166862584E0
5.387263757E0,1.942775726E0,-2.485410213E0,3.653647900E-1,3.175709823E0
5.392061622E0,2.069616318E0,-2.516992092E0,2.832436562E-1,3.270900161E0
5.396859486E0,2.200342655E0,-2.692501068E0,2.649928331E-1,3.487304260E0
5.401657299E0,2.256125450E0,-2.839587688E0,2.079392672E-1,3.632712351E0
5.406455164E0,2.270747185E0,-2.967980385E0,1.790066957E-1,3.741289048E0
5.411253028E0,2.234899521E0,-3.068290234E0,1.686679125E-1,3.799688104E0
5.416050893E0,2.220523834E0,-3.102513790E0,8.630895615E-2,3.816250405E0
5.420848757E0,2.199130535E0,-3.164162159E0,5.398154259E-2,3.853700986E0
5.425646622E0,2.201890469E0,-3.293834686E0,9.546577930E-2,3.963178307E0
5.430444486E0,2.231253624E0,-3.379200459E0,4.592263699E-2,4.049641634E0
5.435242351E0,2.263370037E0,-3.458562851E0,5.598402023E-2,4.133719285E0
5.440040216E0,2.315122128E0,-3.436505318E0,3.714585304E-2,4.143759052E0
5.444838080E0,2.343633652E0,-3.389848232E0,5.638563633E-2,4.121512959E0
5.449635945E0,2.380181313E0,-3.376174450E0,9.197807312E-2,4.131861198E0
5.454433809E0,2.396295071E0,-3.347914696E0,1.317183971E-1,4.119236897E0
5.459231674E0,2.406507492E0,-3.352985382E0,2.348827124E-1,4.133879433E0
5.464029486E0,2.465973854E0,-3.339013100E0,2.984069586E-1,4.161620146E0
5.468827351E0,2.526942253E0,-3.334810257E0,3.699159622E-1,4.200385032E0
5.473625216E0,2.580001354E0,-3.321410179E0,4.705686569E-1,4.231974412E0
5.478423080E0,2.610905170E0,-3.310789108E0,5.856198072E-1,4.256888639E0
5.483220945E0,2.653242111E0,-3.343614578E0,6.500931978E-1,4.317646733E0
5.488018809E0,2.680790901E0,-3.405503273E0,7.042865753E-1,4.390912431E0
5.492816674E0,2.715153694E0,-3.472569704E0,7.288116217E-1,4.467881636E0
5.497614539E0,2.725306034E0,-3.554312944E0,7.448149920E-1,4.540394571E0
5.502412403E0,2.747189999E0,-3.641248465E0,7.497817278E-1,4.622544311E0
5.507210268E0,2.754491806E0,-3.766732216E0,7.698144913E-1,4.729493741E0
5.512008132E0,2.763910770E0,-3.875650644E0,7.451694012E-1,4.818210051E0
5.516805945E0,2.794544220E0,-3.984716892E0,7.213081121E-1,4.920135313E0
5.521603809E0,2.822453499E0,-4.067582130E0,6.957670450E-1,4.999555972E0
5.526401674E0,2.850022316E0,-4.181641579E0,6.757680178E-1,5.105430041E0
5.531199539E0,2.903515339E0,-4.288493633E0,6.468164921E-1,5.219190602E0
5.535997403E0,2.918423176E0,-4.378656387E0,6.302947998E-1,5.299726137E0
5.540795268E0,2.973690510E0,-4.476044655E0,6.021010876E-1,5.407433469E0
5.545593132E0,3.057277679E0,-4.597170353E0,5.978807211E-1,5.553231800E0
5.550390997E0,3.178629398E0,-4.658113956E0,5.673719645E-1,5.667770411E0
5.555188861E0,3.337623119E0,-4.713614464E0,5.343867540E-1,5.800298148E0
5.559986726E0,3.512640476E0,-4.734806061E0,5.037231445E-1,5.916989822E0
5.564784591E0,3.686915874E0,-4.781318665E0,4.633048773E-1,6.055494055E0
5.569582403E0,3.853301048E0,-4.886434555E0,3.913140297E-1,6.235246451E0
5.574380268E0,3.990330219E0,-4.997407436E0,3.472117186E-1,6.404480644E0
5.579178132E0,4.107621670E0,-5.128409386E0,3.019030094E-1,6.577559124E0
5.583975997E0,4.272072792E0,-5.262603760E0,2.339729071E-1,6.782355608E0
5.588773861E0,4.430983067E0,-5.378384590E0,1.532285213E-1,6.970230320E0
5.593571726E0,4.584230900E0,-5.535355568E0,-4.343628883E-3,7.187165858E0
5.598369591E0,4.717345715E0,-5.735646248E0,-1.783099174E-1,7.428511486E0
5.603167455E0,4.818254471E0,-5.969446182E0,-3.893873692E-1,7.681242503E0
5.607965320E0,4.877254009E0,-6.310544014E0,-6.316990852E-1,8.000600987E0
5.612763184E0,4.889462471E0,-6.703511238E0,-8.971379995E-1,8.345583429E0
5.617561049E0,4.847654819E0,-7.188649178E0,-1.151326060E0,8.746541370E0
5.622358914E0,4.763743401E0,-7.775000095E0,-1.355325222E0,9.218502271E0
5.627156726E0,4.680620670E0,-8.392340660E0,-1.520454645E0,9.728893768E0
5.631954591E0,4.657947063E0,-8.918168068E0,-1.598477125E0,1.018750812E1
5.636752455E0,4.705082417E0,-9.299262047E0,-1.598558426E0,1.054369310E1
5.641550320E0,4.800261497E0,-9.439035416E0,-1.475251198E0,1.069178498E1
5.646348184E0,4.952822208E0,-9.472758293E0,-1.279058814E0,1.076566714E1
5.651146049E0,5.124299526E0,-9.370548248E0,-1.063173175E0,1.073293796E1
5.655943914E0,5.254765987E0,-9.231662750E0,-8.116019964E-1,1.065339667E1
5.660741778E0,5.322668552E0,-8.952489853E0,-7.570838928E-1,1.044275113E1
5.665539643E0,5.347193241E0,-8.702186584E0,-5.068920255E-1,1.022631246E1
5.670337507E0,5.342628956E0,-8.429948807E0,-4.067408442E-1,9.988651519E0
5.675135372E0,5.265805244E0,-8.116195679E0,-3.928745389E-1,9.682752066E0
5.679933236E0,5.161850929E0,-7.829526424E0,-4.322919250E-1,9.387921248E0
5.684731101E0,4.953915596E0,-7.528915405E0,-5.943103433E-1,9.032112250E0
5.689528914E0,4.713385582E0,-7.164098740E0,-8.165721893E-1,8.614354563E0
5.694326778E0,4.461421967E0,-6.745079994E0,-1.044011116E0,8.154161471E0
5.699124643E0,4.183404446E0,-6.260840416E0,-1.329243422E0,7.646298683E0
5.703922507E0,3.843312263E0,-5.731823921E0,-1.636465073E0,7.092451801E0
5.708720372E0,3.498495102E0,-5.147741318E0,-1.975187898E0,6.529936897E0
5.713518236E0,3.168112278E0,-4.553614616E0,-2.397410393E0,6.043171193E0
5.718316101E0,2.880954742E0,-3.958585501E0,-2.780286312E0,5.630301179E0
5.723113966E0,2.565529823E0,-3.426852942E0,-3.227513313E0,5.361166528E0
5.727911830E0,2.243707657E0,-2.979340553E0,-3.655882120E0,5.222659118E0
5.732709695E0,1.925556660E0,-2.625020981E0,-4.072898865E0,5.214116297E0
5.737507507E0,1.606851101E0,-2.456215382E0,-4.345218182E0,5.243651925E0
5.742305372E0,1.465049744E0,-2.247044086E0,-4.586054802E0,5.312953654E0
5.747103236E0,1.132610321E0,-2.027585030E0,-4.657673836E0,5.204597271E0
5.751901101E0,7.371377945E-1,-1.923260212E0,-4.773702145E0,5.199089741E0
5.756698966E0,4.059867859E-1,-1.886964798E0,-4.796332359E0,5.170132060E0
5.761496830E0,1.061763763E-1,-1.802168369E0,-4.774713516E0,5.104603160E0
5.766294695E0,-2.120885849E-1,-1.738628387E0,-4.656013966E0,4.974562924E0
5.771092559E0,-5.556535721E-1,-1.694104195E0,-4.488510609E0,4.829644645E0
5.775890424E0,-8.025741577E-1,-1.661099434E0,-4.204262257E0,4.591208744E0
5.780688289E0,-1.062927246E0,-1.684628010E0,-3.838784695E0,4.324818354E0
5.785486153E0,-1.272286415E0,-1.673229694E0,-3.416118622E0,4.011019418E0
5.790284018E0,-1.418828964E0,-1.690943718E0,-2.974744320E0,3.704250269E0
5.795081830E0,-1.586326599E0,-1.672635555E0,-2.529075861E0,3.422041275E0
5.799879695E0,-1.700693130E0,-1.708649635E0,-2.090607166E0,3.190999690E0
5.804677559E0,-1.804938316E0,-1.750747204E0,-1.679967880E0,3.024104855E0
5.809475424E0,-1.865585804E0,-1.793756485E0,-1.331599236E0,2.910520442E0
5.814273289E0,-1.916055679E0,-1.837457657E0,-1.012473226E0,2.841236006E0
5.819071153E0,-1.953945160E0,-1.881573677E0,-7.610833645E-1,2.817351430E0
5.823869018E0,-1.926391125E0,-1.864024639E0,-3.914345503E-1,2.709020419E0
5.828666882E0,-1.933567524E0,-1.746731281E0,-1.403942108E-1,2.609494984E0
5.833464747E0,-1.868044853E0,-1.844851017E0,7.592511177E-2,2.626562672E0
5.838262611E0,-1.772735119E0,-1.763821125E0,4.009557962E-1,2.532670589E0
5.843060476E0,-1.599615097E0,-1.532715797E0,5.695494413E-1,2.287438030E0
5.847858341E0,-1.487205505E0,-1.398045063E0,6.494073868E-1,2.141971094E0
5.852656205E0,-1.358937263E0,-1.244923115E0,7.605732083E-1,1.993744129E0
5.857454018E0,-1.257403851E0,-9.995436668E-1,9.480733275E-1,1.865206428E0
5.862251882E0,-1.191556454E0,-7.364249229E-1,1.201708555E0,1.845597979E0
5.867049747E0,-1.165782452E0,-4.987349510E-1,1.365850687E0,1.863688111E0
5.871847611E0,-1.117662430E0,-3.222670555E-1,1.492897630E0,1.892556127E0
5.876645476E0,-1.059007168E0,-1.208238602E-1,1.608909607E0,1.929944225E0
5.881443341E0,-9.898281097E-1,-2.332973480E-2,1.670963407E0,1.942272553E0
5.886241205E0,-8.076090813E-1,7.108259201E-2,1.669720650E0,1.856139060E0
5.891039070E0,-6.801834106E-1,1.389679909E-1,1.579347372E0,1.725195553E0
5.895836934E0,-5.118741989E-1,2.952971458E-1,1.595442891E0,1.701368161E0
5.900634799E0,-3.936133385E-1,3.729281425E-1,1.664961815E0,1.751029613E0
5.905432664E0,-2.539033890E-1,4.057488441E-1,1.666015029E0,1.733408530E0
5.910230476E0,-1.408443451E-1,4.992423058E-1,1.653894901E0,1.733334461E0
5.915028341E0,-4.815578461E-3,5.129165649E-1,1.533287883E0,1.616811159E0
5.919826205E0,1.223788261E-1,4.189476967E-1,1.457242727E0,1.521200222E0
5.924624070E0,2.448897362E-1,4.331512451E-1,1.358981371E0,1.447211578E0
5.929421934E0,3.573708534E-1,5.128593445E-1,1.207759142E0,1.359934108E0
5.934219799E0,4.879994392E-1,4.672651291E-1,1.161464691E0,1.343681652E0
5.939017664E0,6.123218536E-1,5.168542862E-1,1.062339306E0,1.330654428E0
5.943815528E0,6.724615097E-1,5.113110542E-1,9.968684912E-1,1.306671445E0
5.948613393E0,6.919417381E-1,5.681133270E-1,8.959718347E-1,1.266610299E0
5.953411257E0,6.799817085E-1,6.085557938E-1,7.981733084E-1,1.212351396E0
5.958209122E0,6.961388588E-1,6.494727135E-1,7.108011246E-1,1.188133980E0
5.963006986E0,6.590843201E-1,7.027163506E-1,6.698141098E-1,1.173393946E0
5.967804799E0,6.454792023E-1,7.584600449E-1,6.155436039E-1,1.170811244E0
5.972602664E0,6.267747879E-1,8.283133507E-1,5.364036560E-1,1.169050266E0
5.977400528E0,6.176629066E-1,9.451475143E-1,4.330706596E-1,1.209281393E0
5.982198393E0,6.016654968E-1,1.024735451E0,3.088680506E-1,1.227796232E0
5.986996257E0,5.790481567E-1,1.109631062E0,1.910821199E-1,1.266131998E0
5.991794122E0,5.740275383E-1,1.213590622E0,5.462050438E-2,1.343612002E0
5.996591986E0,5.676121712E-1,1.290816307E0,-8.991622925E-2,1.412966823E0
6.001389851E0,5.503559113E-1,1.369702339E0,-1.913113594E-1,1.488481160E0
6.006187716E0,5.199379921E-1,1.395067692E0,-2.775110006E-1,1.514450968E0
6.010985580E0,4.883089066E-1,1.393166065E0,-3.456172943E-1,1.516182241E0
6.015783445E0,4.267377853E-1,1.344916344E0,-3.238375187E-1,1.447679470E0
6.020581309E0,3.016667366E-1,1.257652760E0,-2.673751116E-1,1.320675105E0
6.025379174E0,1.895737648E-1,1.148250103E0,-2.077375650E-1,1.182189243E0
6.030176986E0,3.317070007E-2,1.004795074E0,-1.216505766E-1,1.012675812E0
6.034974851E0,-1.913094521E-1,8.894815445E-1,-5.757629871E-2,9.116423392E-1
6.039772716E0,-4.070668221E-1,6.898384094E-1,1.259684563E-2,8.010862059E-1
6.044570580E0,-6.523156166E-1,5.087714195E-1,8.833384514E-2,8.319656779E-1
6.049368445E0,-9.437327385E-1,2.363142967E-1,1.048625708E-1,9.785050267E-1
6.054166309E0,-1.192984581E0,-4.847526550E-2,1.003553867E-1,1.198179146E0
6.058964174E0,-1.476755619E0,-3.287858963E-1,1.201720238E-1,1.517678701E0
6.063762039E0,-1.740106106E0,-5.783300400E-1,1.354862452E-1,1.838692856E0
6.068559903E0,-2.050251007E0,-8.400282860E-1,1.748960018E-1,2.222558284E0
6.073357768E0,-2.318966389E0,-1.118476868E0,1.854958534E-1,2.581279591E0
6.078155632E0,-2.582523346E0,-1.346508026E0,2.386970520E-1,2.922240062E0
6.082953445E0,-2.803129673E0,-1.545433044E0,3.126711845E-1,3.216156484E0
6.087751309E0,-2.993295670E0,-1.650411606E0,3.972984552E-1,3.441151478E0
6.092549174E0,-3.098587990E0,-1.651673317E0,5.493854284E-1,3.554025411E0
6.097347039E0,-3.167363644E0,-1.520401001E0,7.277615070E-1,3.587958816E0
6.102144903E0,-3.195096493E0,-1.309165001E0,9.651600122E-1,3.585259886E0
6.106942768E0,-3.282316208E0,-1.017942429E0,1.210608840E0,3.643539521E0
6.111740632E0,-3.342739582E0,-7.425146103E-1,1.425314784E0,3.709010393E0
6.116538497E0,-3.505253792E0,-5.116062164E-1,1.637404919E0,3.902517128E0
6.121336361E0,-3.697790623E0,-3.085784912E-1,1.829802036E0,4.137275875E0
6.126134226E0,-3.926943779E0,-1.026315689E-1,1.995070219E0,4.405874018E0
6.130932091E0,-4.316323757E0,3.415870667E-2,2.118826151E0,4.808455246E0
6.135729955E0,-4.754969597E0,3.213787079E-2,2.174759626E0,5.228799876E0
6.140527768E0,-5.270426273E0,-1.511573792E-3,2.217924356E0,5.718092675E0
6.145325632E0,-5.811306000E0,-1.055259705E-1,2.267652035E0,6.238962967E0
6.150123497E0,-6.414458275E0,-1.799907684E-1,2.398091316E0,6.850438935E0
6.154921361E0,-7.011676788E0,-1.799364090E-1,2.482520580E0,7.440355968E0
6.159719226E0,-7.527841568E0,-1.606750488E-1,2.554442883E0,7.951062419E0
6.164517091E0,-7.883190155E0,3.535842896E-2,2.678231716E0,8.325794999E0
6.169314955E0,-8.129695892E0,3.744554520E-1,2.889491796E0,8.636048577E0
6.174112820E0,-8.211976051E0,8.757820129E-1,3.106243372E0,8.823394624E0
6.178910684E0,-8.237421036E0,1.503545284E0,3.356666565E0,9.021250699E0
6.183708549E0,-8.155529022E0,2.255462170E0,3.513478279E0,9.162111812E0
6.188506414E0,-8.057119370E0,2.916520596E0,3.543097734E0,9.272367900E0
6.193304278E0,-8.046998024E0,3.503676414E0,3.505217075E0,9.450739249E0
6.198102143E0,-8.066956520E0,4.005009174E0,3.411761045E0,9.630991611E0
6.202899955E0,-8.144805908E0,4.300912857E0,3.301288843E0,9.784386680E0
6.207697820E0,-8.227146149E0,4.470219135E0,3.083496809E0,9.857826608E0
6.212495684E0,-8.349114418E0,4.500619888E0,2.762125731E0,9.878898192E0
6.217293549E0,-8.503020287E0,4.401301861E0,2.319668531E0,9.851582318E0
6.222091414E0,-8.647706985E0,4.238794804E0,1.944084406E0,9.824951993E0
6.226889278E0,-8.734904289E0,4.060414791E0,1.612748623E0,9.766600193E0
6.231687143E0,-8.757130623E0,3.825075150E0,1.309942245E0,9.645438576E0
6.236485007E0,-8.683374405E0,3.589880943E0,1.036407113E0,9.453167509E0
6.241282872E0,-8.588085175E0,3.342740059E0,8.115041256E-1,9.251359739E0
6.246080736E0,-8.404800415E0,3.133866787E0,6.230151653E-1,8.991659410E0
6.250878601E0,-8.203467369E0,2.898813725E0,5.658638477E-1,8.718956347E0
6.255676466E0,-7.984939575E0,2.618779659E0,5.290234089E-1,8.420043509E0
6.260474278E0,-7.761994839E0,2.260708809E0,5.351481438E-1,8.102206596E0
6.265272143E0,-7.597764492E0,1.868065357E0,5.019125938E-1,7.840128169E0
6.270070007E0,-7.459536552E0,1.422043324E0,4.475576878E-1,7.607049407E0
6.274867872E0,-7.348228455E0,8.918552399E-1,3.811619282E-1,7.411960038E0
6.279665736E0,-7.216948032E0,3.830146790E-1,3.547291756E-1,7.235804857E0
6.284463601E0,-7.035580635E0,-9.717559814E-2,3.298254013E-1,7.043977766E0
6.289261466E0,-6.833885670E0,-5.103197098E-1,2.562849522E-1,6.857703809E0
6.294059330E0,-6.610519409E0,-9.040603638E-1,2.226300240E-1,6.675766333E0
6.298857195E0,-6.363955021E0,-1.220843315E0,1.905820370E-1,6.482800585E0
6.303655059E0,-6.123450756E0,-1.534726143E0,2.127079964E-1,6.316429228E0
6.308452924E0,-5.860731125E0,-1.807415962E0,2.196817398E-1,6.137033636E0
6.313250789E0,-5.573980331E0,-2.014886856E0,2.378168106E-1,5.931743640E0
6.318048653E0,-5.223049641E0,-2.159474373E0,2.575950623E-1,5.657732084E0
6.322846518E0,-4.868178368E0,-2.217235565E0,2.911167145E-1,5.357242118E0
6.327644330E0,-4.567042828E0,-2.226391792E0,3.551166058E-1,5.093211993E0
6.332442195E0,-4.238460541E0,-2.215591431E0,3.943638802E-1,4.798845279E0
6.337240059E0,-3.935057640E0,-2.158567429E0,4.302022457E-1,4.508787636E0
6.342037924E0,-3.654370308E0,-2.119923592E0,4.408198595E-1,4.247684137E0
6.346835789E0,-3.429806709E0,-2.085312366E0,4.426271915E-1,4.038319026E0
6.351633653E0,-3.244644165E0,-2.033181190E0,4.042021036E-1,3.850314383E0
6.356431518E0,-3.065254688E0,-1.970807552E0,3.919582367E-1,3.665173935E0
6.361229382E0,-2.893894196E0,-1.912722588E0,3.433916569E-1,3.485835501E0
6.366027247E0,-2.742465973E0,-1.878129482E0,2.436083555E-1,3.332841880E0
6.370825111E0,-2.556027412E0,-1.843279362E0,1.045643091E-1,3.153076059E0
6.375622976E0,-2.394495487E0,-1.829821110E0,-7.369697094E-2,3.014512428E0
6.380420841E0,-2.238881588E0,-1.830706120E0,-2.766509056E-1,2.905273031E0
6.385218653E0,-2.060661316E0,-1.872393131E0,-5.301853418E-1,2.834303723E0
6.390016518E0,-1.862452030E0,-1.897632122E0,-7.931170464E-1,2.774665725E0
6.394814382E0,-1.706677914E0,-1.954332829E0,-1.069594860E0,2.806456747E0
6.399612247E0,-1.509804726E0,-2.037826538E0,-1.368514895E0,2.881853627E0
6.404410111E0,-1.324714661E0,-2.119430542E0,-1.693901777E0,3.019297598E0
6.409207976E0,-1.175514221E0,-2.211102962E0,-1.937410831E0,3.166128665E0
6.414005841E0,-9.977264404E-1,-2.279450417E0,-2.229865313E0,3.341205107E0
6.418803705E0,-8.775401115E-1,-2.360355854E0,-2.496372223E0,3.545875164E0
6.423601570E0,-7.503948212E-1,-2.456232071E0,-2.738642454E0,3.754508072E0
6.428399434E0,-6.069598198E-1,-2.542938232E0,-2.972745419E0,3.958806689E0
6.433197299E0,-4.639978409E-1,-2.658668995E0,-3.188517570E0,4.177374668E0
6.437995164E0,-4.100441933E-1,-2.698018074E0,-3.347193956E0,4.318697159E0
6.442792976E0,-3.062820435E-1,-2.682584763E0,-3.551009417E0,4.460912191E0
6.447590841E0,-1.671257019E-1,-2.760441780E0,-3.718279123E0,4.633958293E0
6.452388705E0,7.270812988E-3,-2.854661465E0,-3.793778419E0,4.747831046E0
6.457186570E0,1.737213135E-1,-2.881165028E0,-3.954011440E0,4.895456820E0
6.461984434E0,3.179020882E-1,-2.901877403E0,-4.088462830E0,5.023692119E0
6.466782299E0,4.826588631E-1,-2.925721645E0,-4.180034637E0,5.124987443E0
6.471580164E0,6.225624084E-1,-2.947528362E0,-4.271511078E0,5.226979461E0
6.476378028E0,7.902112007E-1,-2.952533722E0,-4.353158951E0,5.319011372E0
6.481175893E0,9.330620766E-1,-2.957154274E0,-4.431979179E0,5.409048501E0
6.485973757E0,1.060769081E0,-2.944360733E0,-4.457862377E0,5.446744729E0
6.490771622E0,1.211692810E0,-2.942639828E0,-4.483562469E0,5.498150693E0
6.495569486E0,1.366692066E0,-2.894282818E0,-4.468719006E0,5.496741743E0
6.500367351E0,1.489991188E0,-2.880371094E0,-4.470908642E0,5.523190696E0
6.505165164E0,1.564961910E0,-2.852860928E0,-4.447422504E0,5.510670393E0
6.509963028E0,1.651572704E0,-2.821388245E0,-4.458460808E0,5.528634262E0
6.514760893E0,1.658999920E0,-2.855181694E0,-4.454567909E0,5.545044499E0
6.519558757E0,1.687828541E0,-2.906489849E0,-4.455476284E0,5.581014007E0
6.524356622E0,1.735647678E0,-2.927435875E0,-4.468924522E0,5.617262683E0
6.529154486E0,1.797623634E0,-3.032622576E0,-4.493003368E0,5.710983250E0
6.533952351E0,1.912008286E0,-3.123812199E0,-4.580414295E0,5.864654589E0
6.538750216E0,2.052545071E0,-3.188910007E0,-4.730864048E0,6.063263391E0
6.543548080E0,2.169121265E0,-3.316166878E0,-4.912930489E0,6.311809234E0
6.548345945E0,2.331159115E0,-3.531396151E0,-5.138023853E0,6.656151344E0
6.553143809E0,2.543443680E0,-3.788391590E0,-5.395764351E0,7.066490609E0
6.557941674E0,2.880117893E0,-3.990792751E0,-5.701923370E0,7.532160114E0
6.562739539E0,3.207307339E0,-4.083112717E0,-5.926860332E0,7.879486228E0
6.567537351E0,3.534752846E0,-4.084148407E0,-6.103599548E0,8.150378724E0
6.572335216E0,3.798062801E0,-4.101139069E0,-6.282083511E0,8.408876022E0
6.577133080E0,3.992634296E0,-4.074403763E0,-6.307515144E0,8.504507155E0
6.581930945E0,4.161710262E0,-4.018733978E0,-6.316978455E0,8.565878349E0
6.586728809E0,4.324529648E0,-3.922623873E0,-6.237162590E0,8.543461353E0
6.591526674E0,4.466866016E0,-3.891637564E0,-6.195350647E0,8.572053696E0
6.596324539E0,4.622357845E0,-3.866256714E0,-6.165347099E0,8.621231808E0
6.601122403E0,4.812561989E0,-3.829730988E0,-6.180655479E0,8.719409068E0
6.605920268E0,5.020751476E0,-3.729542732E0,-6.117120266E0,8.748519573E0
6.610718132E0,5.227898121E0,-3.566015005E0,-6.113552094E0,8.799028411E0
6.615515997E0,5.474758148E0,-3.430202484E0,-6.138670921E0,8.911932818E0
6.620313861E0,5.672871590E0,-3.362708569E0,-6.173487663E0,9.033339965E0
6.625111726E0,5.913107872E0,-3.330014944E0,-6.144140244E0,9.154469049E0
6.629909539E0,6.114223480E0,-3.320146084E0,-6.189220428E0,9.312010970E0
6.634707403E0,6.307324886E0,-3.349470377E0,-6.231964111E0,9.478326630E0
6.639505268E0,6.454197884E0,-3.415163517E0,-6.264825821E0,9.621229378E0
6.644303132E0,6.590713501E0,-3.500076532E0,-6.306753635E0,9.770526168E0
6.649100997E0,6.654613018E0,-3.582199574E0,-6.247955799E0,9.805762585E0
6.653898861E0,6.724770546E0,-3.708991051E0,-6.241508484E0,9.896240784E0
6.658696726E0,6.746162415E0,-3.846571445E0,-6.296697140E0,9.997760453E0
6.663494591E0,6.723425865E0,-4.042310238E0,-6.201128006E0,9.999935798E0
6.668292455E0,6.606302261E0,-4.226647377E0,-6.141656399E0,9.961311206E0
6.673090320E0,6.473752975E0,-4.485549927E0,-6.170598984E0,1.000529498E1
6.677888184E0,6.311558723E0,-4.778215408E0,-6.243904114E0,1.008233379E1
6.682686049E0,6.069676876E0,-5.078523159E0,-6.291447639E0,1.011012800E1
6.687483861E0,5.805631161E0,-5.398652554E0,-6.303063393E0,1.012814942E1
6.692281726E0,5.483608246E0,-5.781871796E0,-6.290328979E0,1.015225293E1
6.697079591E0,5.106008530E0,-6.259274960E0,-6.226534843E0,1.019899908E1
6.701877455E0,4.737388611E0,-6.694725037E0,-6.120724678E0,1.023354605E1
6.706675320E0,4.387225151E0,-7.145691872E0,-5.974466324E0,1.029577120E1
6.711473184E0,4.072154522E0,-7.526257515E0,-5.770039082E0,1.032086942E1
6.716271049E0,3.734573364E0,-7.848494530E0,-5.482876778E0,1.027656763E1
6.721068914E0,3.374312401E0,-8.122448921E0,-5.134231567E0,1.018432592E1
6.725866778E0,3.055611610E0,-8.346305847E0,-4.621976376E0,1.001799627E1
6.730664643E0,2.711171150E0,-8.518299103E0,-4.109806061E0,9.838819770E0
6.735462507E0,2.407630444E0,-8.634305000E0,-3.500991583E0,9.623141340E0
6.740260372E0,2.161365509E0,-8.737802505E0,-2.968864679E0,9.478124866E0
6.745058236E0,1.976843357E0,-8.726492882E0,-2.337879658E0,9.247987293E0
6.749856101E0,1.743879795E0,-8.641511917E0,-1.788514853E0,8.995311575E0
6.754653914E0,1.589065075E0,-8.504705429E0,-1.292722940E0,8.747929746E0
6.759451778E0,1.397534847E0,-8.333208084E0,-8.297141790E-1,8.490222979E0
6.764249643E0,1.248234749E0,-8.096414566E0,-3.932000101E-1,8.201501391E0
6.769047507E0,1.088622093E0,-7.768507004E0,1.450187294E-3,7.844412102E0
6.773845372E0,9.667053223E-1,-7.393071175E0,3.506934941E-1,7.464248556E0
6.778643236E0,8.445205688E-1,-6.968314171E0,6.845650077E-1,7.052605662E0
6.783441101E0,6.841611862E-1,-6.520989895E0,9.376839399E-1,6.623491293E0
6.788238966E0,5.530872345E-1,-6.092340946E0,1.228656769E0,6.239560974E0
6.793036830E0,4.016475677E-1,-5.644756794E0,1.423072815E0,5.835215186E0
6.797834695E0,3.499774933E-1,-5.226731777E0,1.604441047E0,5.478634902E0
6.802632559E0,2.884788513E-1,-4.881655216E0,1.629790306E0,5.154609019E0
6.807430424E0,2.844429016E-1,-4.511770248E0,1.602845430E0,4.796466617E0
6.812228289E0,3.142242432E-1,-4.232110023E0,1.538812041E0,4.514137196E0
6.817026101E0,3.278532028E-1,-4.006965160E0,1.419488192E0,4.263590534E0
6.821823966E0,3.565778732E-1,-3.903344631E0,1.262685299E0,4.117963241E0
6.826621830E0,3.502206802E-1,-3.849375248E0,1.102794051E0,4.019514777E0
6.831419695E0,2.752370834E-1,-3.878259659E0,9.240674376E-1,3.996317563E0
6.836217559E0,2.078952789E-1,-4.008568764E0,7.391846776E-1,4.081450474E0
6.841015424E0,1.504459381E-1,-4.132472515E0,6.131432056E-1,4.180419555E0
6.845813289E0,9.076213837E-2,-4.335880280E0,4.795273542E-1,4.363260484E0
6.850611153E0,3.571891785E-2,-4.463080883E0,3.341959715E-1,4.475718239E0
6.855409018E0,-1.249599457E-2,-4.516398907E0,2.610486746E-1,4.523954205E0
6.860206882E0,-1.473464966E-1,-4.632004261E0,1.576936245E-1,4.637029409E0
6.865004747E0,-2.637529373E-1,-4.754733086E0,1.317775249E-1,4.763865830E0
6.869802611E0,-4.264464378E-1,-4.939370155E0,1.472282410E-1,4.959930468E0
6.874600476E0,-6.068882942E-1,-5.178476334E0,2.277407646E-1,5.218888425E0
6.879398341E0,-8.076543808E-1,-5.392900944E0,2.941807508E-1,5.460973219E0
6.884196153E0,-9.427914619E-1,-5.553831100E0,4.512964487E-1,5.651332951E0
6.888994018E0,-1.143980980E0,-5.708828449E0,6.434931755E-1,5.857772462E0
6.893791882E0,-1.279814243E0,-5.759578228E0,8.676859140E-1,5.963517813E0
6.898589747E0,-1.402880669E0,-5.808760643E0,1.151665330E0,6.085729817E0
6.903387611E0,-1.491548538E0,-5.810571194E0,1.496479273E0,6.182791025E0
6.908185476E0,-1.550308704E0,-5.750589371E0,1.824499726E0,6.229087770E0
6.912983341E0,-1.585998535E0,-5.669542313E0,2.137456179E0,6.263211660E0
6.917781205E0,-1.598183155E0,-5.584256649E0,2.441828728E0,6.300844329E0
6.922579070E0,-1.605603218E0,-5.420517921E0,2.786989212E0,6.302958440E0
6.927376934E0,-1.543403625E0,-5.245148659E0,3.112478971E0,6.291359515E0
6.932174799E0,-1.463923454E0,-4.991066456E0,3.405822754E0,6.217189468E0
6.936972664E0,-1.362088680E0,-4.696476936E0,3.695331573E0,6.129246008E0
6.941770528E0,-1.283047676E0,-4.437708855E0,3.949514627E0,6.077675297E0
6.946568393E0,-1.197753906E0,-4.193106651E0,4.160877228E0,6.027408823E0
6.951366205E0,-1.079600334E0,-3.910109520E0,4.338914871E0,5.939753833E0
6.956164070E0,-9.761495590E-1,-3.648460865E0,4.505012035E0,5.878713132E0
6.960961934E0,-9.205937386E-1,-3.389148235E0,4.654552937E0,5.830838845E0
6.965759799E0,-8.458185196E-1,-3.129823685E0,4.749499321E0,5.750560761E0
6.970557664E0,-7.731895447E-1,-2.854026794E0,4.799914360E0,5.637594246E0
6.975355528E0,-6.738953590E-1,-2.581134796E0,4.846896648E0,5.532521930E0
6.980153393E0,-5.885910988E-1,-2.308960438E0,4.879051208E0,5.429813853E0
6.984951257E0,-4.934272766E-1,-2.071173191E0,4.885079861E0,5.328905526E0
6.989749122E0,-3.527464867E-1,-1.827233791E0,4.839401722E0,5.184884033E0
6.994546986E0,-2.051343918E-1,-1.586778641E0,4.809714317E0,5.068855728E0
6.999344851E0,-6.059408188E-2,-1.380824566E0,4.765675545E0,4.962057187E0
7.004142716E0,4.709720612E-2,-1.206795216E0,4.743530273E0,4.894859783E0
7.008940580E0,1.463561058E-1,-1.066935062E0,4.717353344E0,4.838718127E0
7.013738393E0,2.440104485E-1,-9.275231361E-1,4.694579124E0,4.791546037E0
7.018536257E0,3.303303719E-1,-8.218774796E-1,4.687239170E0,4.770200392E0
7.023334122E0,4.195451736E-1,-6.995806694E-1,4.733469963E0,4.803245690E0
7.028131986E0,4.733648300E-1,-5.749421120E-1,4.740010738E0,4.798159490E0
7.032929851E0,4.893879890E-1,-4.813642502E-1,4.730815411E0,4.780358417E0
7.037727716E0,5.345125198E-1,-3.900980949E-1,4.691624165E0,4.738060517E0
7.042525580E0,5.464763641E-1,-3.728394508E-1,4.653692245E0,4.700478400E0
7.047323445E0,5.465264320E-1,-3.457298279E-1,4.576667786E0,4.622132438E0
7.052121309E0,5.821776390E-1,-3.301906586E-1,4.530197144E0,4.579371445E0
7.056919174E0,5.765585899E-1,-3.141365051E-1,4.450049400E0,4.498226452E0
7.061717039E0,6.010203362E-1,-2.638974190E-1,4.401026726E0,4.449708253E0
7.066514903E0,6.050963402E-1,-2.152795792E-1,4.340273380E0,4.387534603E0
7.071312768E0,5.982246399E-1,-1.968798637E-1,4.282194138E0,4.328258429E0
7.076110580E0,5.635499954E-1,-1.655507088E-1,4.241130829E0,4.281610251E0
7.080908497E0,5.321650505E-1,-1.522784233E-1,4.221634388E0,4.257767639E0
7.085706309E0,4.970736504E-1,-1.236758232E-1,4.197215080E0,4.228355751E0
7.090504174E0,4.487190247E-1,-8.209609985E-2,4.189235210E0,4.213998123E0
7.095302039E0,4.230613708E-1,-3.478908539E-2,4.161728382E0,4.183320969E0
7.100099903E0,4.055957794E-1,-5.657672882E-3,4.098133087E0,4.118159145E0
7.104897768E0,3.747520447E-1,3.868198395E-2,4.044079304E0,4.061589936E0
7.109695632E0,3.470811844E-1,8.866453171E-2,3.966294527E0,3.982438829E0
7.114493497E0,2.699594498E-1,8.684873581E-2,3.886441231E0,3.896773826E0
7.119291361E0,2.006745338E-1,6.438779831E-2,3.811771631E0,3.817593355E0
7.124089226E0,1.439609528E-1,5.710411072E-2,3.754281282E0,3.757474362E0
7.128887091E0,7.823657990E-2,2.750873566E-3,3.687825680E0,3.688656500E0
7.133684955E0,3.450202942E-2,-2.219247818E-2,3.626869440E0,3.627101437E0
7.138482820E0,-3.996229172E-2,-2.264833450E-2,3.566893101E0,3.567188855E0
7.143280684E0,-1.382608414E-1,-6.322050095E-2,3.453352928E0,3.456697751E0
7.148078549E0,-2.724556923E-1,-1.225328445E-1,3.358433723E0,3.371694452E0
7.152876361E0,-4.162611961E-1,-1.625061035E-1,3.275217056E0,3.305560222E0
7.157674226E0,-6.244959831E-1,-2.741932869E-1,3.199000120E0,3.270898800E0
7.162472091E0,-8.490891457E-1,-3.430242538E-1,3.158500433E0,3.288577656E0
7.167269955E0,-1.101863384E0,-5.149736404E-1,3.084391594E0,3.315534990E0
7.172067820E0,-1.368385315E0,-7.112526894E-1,3.010364294E0,3.382403279E0
7.176865684E0,-1.660684586E0,-9.342589378E-1,2.936506987E0,3.500540864E0
7.181663549E0,-1.985965729E0,-1.236664295E0,2.865408897E0,3.699184586E0
7.186461414E0,-2.270466328E0,-1.489284039E0,2.825997353E0,3.919087308E0
7.191259278E0,-2.564783573E0,-1.696876526E0,2.811162949E0,4.166550353E0
7.196057143E0,-2.859463215E0,-1.869117737E0,2.856769085E0,4.453230355E0
7.200855007E0,-3.147472858E0,-1.967751503E0,2.933886528E0,4.731418554E0
7.205652872E0,-3.452458858E0,-2.004901886E0,3.085112095E0,5.045495058E0
7.210450736E0,-3.783725739E0,-2.047445774E0,3.226029873E0,5.377349106E0
7.215248601E0,-4.150530338E0,-2.018639088E0,3.410646439E0,5.738842652E0
7.220046414E0,-4.523677826E0,-1.927883625E0,3.647360802E0,6.122388191E0
7.224844278E0,-4.962358952E0,-1.794115067E0,3.889574289E0,6.555352270E0
7.229642143E0,-5.322212696E0,-1.593359947E0,4.126564503E0,6.920496984E0
7.234440007E0,-5.614260197E0,-1.266053200E0,4.348027706E0,7.213054360E0
7.239237872E0,-5.820665836E0,-8.389267921E-1,4.527233124E0,7.421575890E0
7.244035736E0,-5.990737438E0,-4.534378052E-1,4.599629402E0,7.566447749E0
7.248833601E0,-6.116600990E0,-1.386356354E-1,4.651751995E0,7.685754624E0
7.253631466E0,-6.223943233E0,2.005329132E-1,4.588900089E0,7.735353053E0
7.258429330E0,-6.314566135E0,4.557986259E-1,4.558073997E0,7.801124049E0
7.263227195E0,-6.409487724E0,6.264762878E-1,4.515181541E0,7.865168134E0
7.268025059E0,-6.555697441E0,7.404756546E-1,4.425686836E0,7.944317284E0
7.272822924E0,-6.692912102E0,7.755522728E-1,4.348447800E0,8.019074261E0
7.277620736E0,-6.820695400E0,7.907953262E-1,4.244154930E0,8.072180255E0
7.282418601E0,-6.986444950E0,7.594242096E-1,4.144789696E0,8.158824658E0
7.287216466E0,-7.115470886E0,7.147641182E-1,4.198612213E0,8.292717178E0
7.292014330E0,-7.281588554E0,6.857895851E-1,4.256613731E0,8.462304632E0
7.296812195E0,-7.446361542E0,5.965857506E-1,4.367853642E0,8.653459436E0
7.301610059E0,-7.557608604E0,5.559144020E-1,4.528111458E0,8.827812980E0
7.306407924E0,-7.591983795E0,5.770483017E-1,4.704143047E0,8.949869524E0
7.311205789E0,-7.557411194E0,6.662096977E-1,4.908079624E0,9.035903104E0
7.316003653E0,-7.488554001E0,8.224782944E-1,5.020912647E0,9.053423407E0
7.320801518E0,-7.413000107E0,9.708266258E-1,5.050620556E0,9.022407823E0
7.325599382E0,-7.331929684E0,1.181893349E0,5.101097107E0,9.009731210E0
7.330397247E0,-7.272693634E0,1.421008110E0,5.142309666E0,9.019683223E0
7.335195111E0,-7.197961807E0,1.710485458E0,5.089890003E0,8.980166754E0
7.339992976E0,-7.091704369E0,2.067547321E0,4.991260529E0,8.915139059E0
7.344790789E0,-6.985643864E0,2.432557106E0,4.798693657E0,8.817256664E0
7.349588653E0,-6.889805794E0,2.743221283E0,4.507934570E0,8.678488404E0
7.354386518E0,-6.825842857E0,3.056358337E0,4.213239193E0,8.583987506E0
7.359184382E0,-6.800725937E0,3.342421055E0,3.884668589E0,8.515415540E0
7.363982247E0,-6.811667442E0,3.523873806E0,3.530824661E0,8.442939224E0
7.368780111E0,-6.903544426E0,3.623574734E0,3.119762182E0,8.397745862E0
7.373577976E0,-7.013515949E0,3.666856289E0,2.736446142E0,8.373970295E0
7.378375841E0,-7.066817284E0,3.674332619E0,2.384336948E0,8.314186033E0
7.383173705E0,-7.101125717E0,3.664453506E0,2.085613012E0,8.258570554E0
7.387971570E0,-7.106482506E0,3.641555309E0,1.816744804E0,8.189235640E0
7.392769434E0,-7.128115654E0,3.562341690E0,1.611453056E0,8.130011811E0
7.397567299E0,-7.134706974E0,3.409970760E0,1.433878660E0,8.036663002E0
7.402365164E0,-7.133244514E0,3.198801994E0,1.314901114E0,7.927450816E0
7.407163028E0,-7.121095657E0,2.928797245E0,1.232791424E0,7.797924811E0
7.411960893E0,-7.112498283E0,2.628636837E0,1.137184381E0,7.667499708E0
7.416758757E0,-7.107176781E0,2.286127090E0,1.054538250E0,7.539919747E0
7.421556570E0,-7.081198692E0,1.917854309E0,9.730882645E-1,7.400570305E0
7.426354434E0,-7.034400940E0,1.583198071E0,9.267997742E-1,7.269681598E0
7.431152299E0,-6.981026173E0,1.212440968E0,8.970522881E-1,7.142089493E0
7.435950164E0,-6.913732052E0,8.697500229E-1,8.509466648E-1,7.019990471E0
7.440748028E0,-6.849299431E0,5.332984924E-1,8.488078117E-1,6.922267308E0
7.445545893E0,-6.771072865E0,2.124738693E-1,8.598437309E-1,6.828755679E0
7.450343757E0,-6.626492977E0,-7.381629944E-2,9.297599792E-1,6.691809295E0
7.455141622E0,-6.454215050E0,-3.112554550E-1,9.917712212E-1,6.537383423E0
7.459939486E0,-6.247536182E0,-5.308628082E-1,1.110527873E0,6.367636597E0
7.464737351E0,-6.035741806E0,-7.539272308E-1,1.207071543E0,6.201258512E0
7.469535216E0,-5.788204193E0,-8.893575668E-1,1.367188454E0,6.013606982E0
7.474333080E0,-5.526988029E0,-1.006242752E0,1.502066255E0,5.815180495E0
7.479130893E0,-5.302666187E0,-1.116255760E0,1.663867950E0,5.668575850E0
7.483928809E0,-5.086922646E0,-1.195108414E0,1.794524193E0,5.524978118E0
7.488726622E0,-4.877762318E0,-1.311776161E0,1.905412912E0,5.398510933E0
7.493524486E0,-4.680287361E0,-1.403745651E0,1.976814508E0,5.270994900E0
7.498322351E0,-4.477996826E0,-1.415829659E0,2.024947166E0,5.114434497E0
7.503120216E0,-4.264051437E0,-1.426741600E0,2.059013605E0,4.945428523E0
7.507918080E0,-4.064931393E0,-1.333542824E0,2.018807650E0,4.730495536E0
7.512715945E0,-3.892631531E0,-1.217554092E0,1.939912677E0,4.516445438E0
7.517513809E0,-3.735127926E0,-1.086030960E0,1.774334431E0,4.275383789E0
7.522311674E0,-3.616177082E0,-9.988036156E-1,1.669834137E0,4.106420752E0
7.527109539E0,-3.523618221E0,-9.105792046E-1,1.492169738E0,3.933396800E0
7.531907403E0,-3.457235813E0,-8.264093399E-1,1.277158856E0,3.777110881E0
7.536705268E0,-3.381071568E0,-7.680463791E-1,1.065537930E0,3.627245686E0
7.541503132E0,-3.304550648E0,-7.334270477E-1,7.332873344E-1,3.463478098E0
7.546300997E0,-3.218033791E0,-6.487512589E-1,4.385446310E-1,3.311939170E0
7.551098809E0,-3.147770405E0,-6.147694588E-1,1.123354435E-1,3.209208510E0
7.555896674E0,-3.074631214E0,-5.886917114E-1,-2.208579779E-1,3.138262781E0
7.560694539E0,-3.001072407E0,-5.826807022E-1,-5.772106647E-1,3.111129143E0
7.565492403E0,-2.929575920E0,-6.136331558E-1,-9.440716505E-1,3.138507926E0
7.570290268E0,-2.793332100E0,-6.768794060E-1,-1.299176812E0,3.154160798E0
7.575088132E0,-2.649904251E0,-7.031569481E-1,-1.610780954E0,3.179785766E0
7.579885997E0,-2.520953178E0,-7.188415527E-1,-1.918849349E0,3.248679875E0
7.584683861E0,-2.353853703E0,-7.599463463E-1,-2.201171398E0,3.311087620E0
7.589481726E0,-2.186882019E0,-7.859172821E-1,-2.435632706E0,3.366366827E0
7.594279591E0,-2.027284622E0,-8.326067924E-1,-2.645683050E0,3.435513908E0
7.599077455E0,-1.863086224E0,-8.402891159E-1,-2.845415354E0,3.503364756E0
7.603875320E0,-1.708592892E0,-8.712205887E-1,-2.982040405E0,3.545543677E0
7.608673184E0,-1.547159195E0,-9.037885666E-1,-3.134555101E0,3.610536114E0
7.613471049E0,-1.390835762E0,-9.642095566E-1,-3.228783369E0,3.645430870E0
7.618268914E0,-1.187119007E0,-1.021335125E0,-3.307797670E0,3.659768080E0
7.623066726E0,-1.026978970E0,-1.044033527E0,-3.366914272E0,3.671621376E0
7.627864591E0,-8.268752098E-1,-1.101517200E0,-3.408561230E0,3.676323219E0
7.632662455E0,-6.132521629E-1,-1.179322720E0,-3.449506760E0,3.696752247E0
7.637460320E0,-4.388494492E-1,-1.277293205E0,-3.506464243E0,3.757573453E0
7.642258184E0,-2.320528030E-1,-1.390479088E0,-3.588718414E0,3.855668613E0
7.647056049E0,-3.378677368E-2,-1.487450600E0,-3.667260408E0,3.957581299E0
7.651853914E0,1.964917183E-1,-1.611085892E0,-3.751401663E0,4.087446780E0
7.656651778E0,4.274549484E-1,-1.734679699E0,-3.824001789E0,4.220760722E0
7.661449643E0,6.661210060E-1,-1.853146553E0,-3.901543856E0,4.370344815E0
7.666247507E0,8.859786987E-1,-1.999514580E0,-3.955161572E0,4.519548635E0
7.671045372E0,1.127515793E0,-2.147084236E0,-3.992015839E0,4.670915653E0
7.675843236E0,1.337895393E0,-2.312062263E0,-4.007356644E0,4.816067199E0
7.680641101E0,1.579041481E0,-2.510542870E0,-4.008385658E0,4.986316585E0
7.685438914E0,1.786150455E0,-2.679737091E0,-3.978609324E0,5.118657683E0
7.690236830E0,2.030786991E0,-2.838240147E0,-3.949292660E0,5.270352497E0
7.695034643E0,2.293576241E0,-2.951953411E0,-3.913569927E0,5.412074509E0
7.699832507E0,2.545726776E0,-3.027642250E0,-3.850314617E0,5.520168934E0
7.704630372E0,2.794359207E0,-3.079267025E0,-3.795776367E0,5.630119627E0
7.709428236E0,2.989311695E0,-3.113764286E0,-3.740836143E0,5.711861999E0
7.714226101E0,3.164172649E0,-3.147703648E0,-3.661945820E0,5.773203097E0
7.719023966E0,3.328612804E0,-3.188104153E0,-3.612021685E0,5.855798147E0
7.723821830E0,3.501865387E0,-3.222946167E0,-3.565130711E0,5.946477963E0
7.728619695E0,3.655359268E0,-3.280805349E0,-3.547652006E0,6.058974325E0
7.733417559E0,3.825053215E0,-3.332804441E0,-3.554863453E0,6.194810063E0
7.738215424E0,3.951337337E0,-3.383715153E0,-3.550895214E0,6.298527749E0
7.743013289E0,4.089284420E0,-3.452370882E0,-3.578749657E0,6.438055675E0
7.747811153E0,4.207955837E0,-3.545864582E0,-3.592926025E0,6.571846421E0
7.752609018E0,4.340943336E0,-3.680719376E0,-3.652999878E0,6.762831676E0
7.757406882E0,4.459656239E0,-3.763495922E0,-3.672708035E0,6.895014114E0
7.762204695E0,4.585742474E0,-3.875414848E0,-3.680652142E0,7.042377047E0
7.767002559E0,4.690587997E0,-3.985114098E0,-3.683863163E0,7.173116334E0
7.771800424E0,4.793402195E0,-4.111481667E0,-3.703789234E0,7.321136578E0
7.776598289E0,4.896610260E0,-4.225506783E0,-3.695026398E0,7.448820020E0
7.781396153E0,5.014616966E0,-4.324629784E0,-3.633710384E0,7.553320941E0
7.786194018E0,5.123572826E0,-4.358464241E0,-3.593855858E0,7.626467660E0
7.790991882E0,5.235487461E0,-4.439219475E0,-3.575426817E0,7.739552663E0
7.795789747E0,5.297833920E0,-4.478248119E0,-3.537762165E0,7.787009156E0
7.800587611E0,5.296419144E0,-4.528285503E0,-3.457192421E0,7.778791987E0
7.805385476E0,5.276753902E0,-4.613254547E0,-3.370160580E0,7.777160896E0
7.810183341E0,5.222191811E0,-4.680659294E0,-3.276983976E0,7.740702986E0
7.814981205E0,5.163847446E0,-4.751938343E0,-3.187478065E0,7.707545322E0
7.819779070E0,5.061148643E0,-4.839149475E0,-3.089883327E0,7.653755432E0
7.824576934E0,5.000154972E0,-4.930130959E0,-3.048904419E0,7.655296152E0
7.829374747E0,4.925810814E0,-5.053292274E0,-3.014278650E0,7.673672574E0
7.834172611E0,4.864344120E0,-5.184315681E0,-3.000259876E0,7.716251171E0
7.838970476E0,4.806077003E0,-5.327539444E0,-2.985303402E0,7.771299061E0
7.843768341E0,4.750859737E0,-5.453794479E0,-2.971971750E0,7.819664862E0
7.848566205E0,4.689000130E0,-5.622462749E0,-2.991364002E0,7.908670443E0
7.853364070E0,4.606041431E0,-5.749519348E0,-2.993107319E0,7.951809972E0
7.858161934E0,4.523370743E0,-5.880107880E0,-3.024842739E0,8.011630617E0
7.862959799E0,4.390686512E0,-5.978265762E0,-3.067008257E0,8.026476763E0
7.867757664E0,4.231897354E0,-6.082484245E0,-3.090329170E0,8.028430992E0
7.872555528E0,4.068448544E0,-6.176148415E0,-3.149074554E0,8.038268056E0
7.877353393E0,3.814201832E0,-6.335988045E0,-3.206710339E0,8.060761212E0
7.882151257E0,3.516947746E0,-6.583727360E0,-3.221974373E0,8.129914284E0
7.886949122E0,3.178968430E0,-6.847844124E0,-3.199235916E0,8.199629252E0
7.891746986E0,2.850302219E0,-7.073615074E0,-3.128488302E0,8.243039004E0
7.896544799E0,2.573739052E0,-7.220779896E0,-2.968962669E0,8.220616421E0
7.901342664E0,2.313050270E0,-7.260831356E0,-2.768245697E0,8.107592600E0
7.906140528E0,2.120461464E0,-7.210773468E0,-2.492933989E0,7.918732897E0
7.910938393E0,2.002693176E0,-6.963281631E0,-2.141194344E0,7.555314967E0
7.915736257E0,1.925899982E0,-6.636013985E0,-1.773607135E0,7.133824684E0
7.920534122E0,1.904110909E0,-6.164891243E0,-1.384020567E0,6.599017754E0
7.925331986E0,1.872646332E0,-5.634385109E0,-9.666941166E-1,6.015612800E0
