"Time (s)","Linear Acceleration x (m/s^2)","Linear Acceleration y (m/s^2)","Linear Acceleration z (m/s^2)","Absolute acceleration (m/s^2)"
1.278257100E-2,0.000000000E0,0.000000000E0,0.000000000E0,0.000000000E0
1.767600900E-2,1.623027325E-1,-2.901489735E-1,-6.166172028E-2,3.381283359E-1
2.257001900E-2,1.725318432E-1,-3.564488888E-1,-5.010652542E-2,3.991662700E-1
2.746387300E-2,7.525968552E-2,1.977434158E-1,-2.194614410E-1,3.048438992E-1
3.235772700E-2,1.576468945E-1,5.664393902E-1,-4.916152954E-1,7.664148516E-1
3.725163400E-2,4.873886108E-1,7.381973267E-1,-5.086712837E-1,1.020406500E0
4.214548800E-2,8.890409470E-1,9.219007492E-1,-4.766554832E-1,1.366563298E0
4.703934200E-2,1.074499369E0,1.275229454E0,-5.002808571E-1,1.740988222E0
5.193324800E-2,1.187090039E0,1.516095161E0,-5.524086952E-1,2.003218078E0
5.682710200E-2,1.323582888E0,1.648582935E0,-2.378759384E-1,2.127506126E0
6.172095600E-2,1.539622903E0,1.531424999E0,1.867151260E-1,2.179578801E0
6.661486300E-2,1.897590041E0,1.325154305E0,5.440115929E-1,2.377568192E0
7.150871700E-2,2.146939516E0,1.084897041E0,7.772784233E-1,2.527946325E0
7.640257100E-2,2.234832287E0,9.048171043E-1,8.969140053E-1,2.572474310E0
8.129647700E-2,2.351105213E0,7.028336525E-1,7.249641418E-1,2.558758268E0
8.619033100E-2,2.278889179E0,7.138080597E-1,4.182066917E-1,2.424408108E0
9.108418600E-2,1.802495003E0,7.158212662E-1,-2.584505081E-2,1.939602095E0
9.597809200E-2,1.236467957E0,2.869849205E-1,-1.427955627E-1,1.277342525E0
1.008719460E-1,7.237282395E-1,-3.094606400E-1,-3.438634872E-1,8.589473501E-1
1.057658000E-1,2.973919809E-1,-7.633557320E-1,-7.696151733E-1,1.124038024E0
1.106597060E-1,1.502602696E-1,-1.498234510E0,-1.780419827E0,2.331776052E0
1.155535610E-1,-4.184420109E-1,-1.732614517E0,-2.004034519E0,2.682014380E0
1.204474150E-1,-8.529655337E-1,-1.908065796E0,-2.095168114E0,2.959390935E0
1.253412690E-1,-9.272817373E-1,-1.858143330E0,-2.425529480E0,3.193077091E0
1.302351750E-1,-9.744196534E-1,-1.757567167E0,-2.450221062E0,3.168930302E0
1.351290290E-1,-2.121927977E0,-2.069712877E0,1.830786228E0,3.483973012E0
1.400228840E-1,-1.403743029E0,-1.730245113E0,-2.517370224E0,3.361754823E0
1.449167900E-1,-1.381312728E0,-1.455779791E0,-1.087317467E0,2.282450202E0
1.498106440E-1,-1.213700891E0,-1.447639704E0,-7.084054947E-1,2.017565094E0
1.547044980E-1,-8.823210001E-1,-1.271351099E0,-1.341579914E0,2.048087066E0
1.595984040E-1,-7.307807207E-1,-1.249290705E0,-1.473020077E0,2.065080113E0
1.644922590E-1,-7.083758116E-1,-1.232914448E0,-1.495965481E0,2.063925155E0
1.693861130E-1,-7.597556114E-1,-1.257225990E0,-1.686711311E0,2.236703116E0
1.742800190E-1,-1.064912200E0,-1.207647085E0,-1.807939053E0,2.420969453E0
1.791738730E-1,-1.368212342E0,-1.232671738E0,-1.789895773E0,2.568114387E0
1.840677270E-1,-1.588891387E0,-1.023024559E0,-1.620555878E0,2.489449024E0
1.889616340E-1,-1.449346900E0,-6.405558586E-1,-1.473953724E0,2.164129808E0
1.938554880E-1,-6.357218027E-1,-7.858443260E-1,-2.166522503E0,2.390713967E0
1.987493420E-1,1.629316807E-1,-6.553769112E-1,-2.367006063E0,2.461459594E0
2.036432480E-1,8.521453142E-1,-6.270058155E-1,-2.239515305E0,2.476836032E0
2.085371020E-1,1.295268059E0,-6.307194233E-1,-2.020372868E0,2.481417510E0
2.134309560E-1,1.376287699E0,-8.151535988E-1,-2.628803492E0,3.077214815E0
2.183248630E-1,1.548140645E0,-1.111363888E0,-2.603511810E0,3.226475305E0
2.232187170E-1,1.467172980E0,-1.375041485E0,-2.484385014E0,3.196170292E0
2.281125710E-1,9.656816721E-1,-1.427212596E0,-2.771223783E0,3.263304789E0
2.330064770E-1,3.549137115E-1,-1.357951045E0,-2.621751785E0,2.973815261E0
2.379003310E-1,-2.783946991E-1,-5.056171417E-1,4.731521606E-1,7.463412555E-1
2.427941860E-1,-7.411408424E-1,3.651256561E-1,1.024751663E-1,8.325308720E-1
2.476880400E-1,-1.157774210E0,1.136448622E0,1.031893730E0,1.922696352E0
2.525819460E-1,-2.844633102E0,2.167264462E0,4.145219803E0,5.474652496E0
2.573821020E-1,-3.642623663E0,2.333460569E0,4.727715015E0,6.408200578E0
2.621800710E-1,-2.171298027E0,1.375670910E0,1.476904392E0,2.964498635E0
2.669779880E-1,-1.693862200E0,3.275251389E-1,2.514853477E-1,1.743469744E0
2.717759040E-1,-2.179757357E0,-2.514626980E-1,-3.433151245E-1,2.220909925E0
2.765738730E-1,-2.348420858E0,-7.009096146E-1,-1.616817951E0,2.936061155E0
2.813717900E-1,-1.826062560E0,-9.706794024E-1,-2.893166065E0,3.556280762E0
2.861697060E-1,-9.401855469E-1,-9.198538065E-1,-3.530000925E0,3.767092568E0
2.909676230E-1,4.213786125E-2,-5.440069437E-1,-3.749469995E0,3.788963500E0
2.957655920E-1,9.517421126E-1,-2.029016018E-1,-4.021582603E0,4.137645314E0
3.005635090E-1,1.444867373E0,4.389357567E-2,-4.255893707E0,4.494685708E0
3.053614250E-1,1.516964674E0,1.825361252E-1,-4.483421803E0,4.736620348E0
3.101593940E-1,1.447301030E0,2.417690754E-1,-4.671039581E0,4.896094702E0
3.149573110E-1,1.240518332E0,-1.128582954E-1,-4.826185226E0,4.984344146E0
3.197552270E-1,1.024987459E0,-1.479351521E0,-4.937129498E0,5.254933671E0
3.245531960E-1,4.550459385E-1,-2.534705877E0,-5.251026630E0,5.848511038E0
3.293511130E-1,7.027864456E-2,-2.569855452E0,-5.466837883E0,6.041143316E0
3.341490290E-1,-1.935927868E-1,-2.174619675E0,-5.580031395E0,5.991927842E0
3.389469980E-1,-1.526710987E-1,-2.417620897E0,-6.030636787E0,6.498982946E0
3.437449150E-1,-5.669944286E-1,-3.050739288E0,-6.500001907E0,7.202674342E0
3.485428310E-1,-1.600497961E0,-3.719340801E0,-6.952192307E0,8.045375540E0
3.533408000E-1,-2.793481827E0,-4.187807560E0,-7.443243504E0,8.985719044E0
3.581387170E-1,-3.955420971E0,-4.422416210E0,-7.771058083E0,9.777139864E0
3.629366340E-1,-5.005110741E0,-4.517189980E0,-7.974946499E0,1.044298379E1
3.677346020E-1,-6.155170918E0,-4.734052181E0,-8.169710159E0,1.127127070E1
3.725325190E-1,-7.376914024E0,-5.344531536E0,-8.398046494E0,1.238991779E1
3.773304360E-1,-8.507957458E0,-6.129347801E0,-8.318017960E0,1.338445618E1
3.821284040E-1,-9.416677475E0,-6.852900505E0,-7.876772881E0,1.405985814E1
3.869263210E-1,-1.033917618E1,-7.711935043E0,-7.170921326E0,1.475786634E1
3.917242380E-1,-1.136381912E1,-8.876225471E0,-6.204207420E0,1.569764165E1
3.965222060E-1,-1.225973701E1,-1.023639393E1,-4.949356556E0,1.672067710E1
4.013201230E-1,-1.307563972E1,-1.159627724E1,-3.252420425E0,1.777707059E1
4.061180400E-1,-1.379327965E1,-1.291137695E1,-1.639774203E0,1.896436336E1
4.109160090E-1,-1.440020847E1,-1.394318485E1,-2.791603804E-1,2.004635474E1
4.157139250E-1,-1.527282333E1,-1.469905567E1,1.083778381E0,2.122488977E1
4.205118420E-1,-1.610984612E1,-1.538403988E1,2.588849545E0,2.242538666E1
4.253098110E-1,-1.662154579E1,-1.573170853E1,4.051269054E0,2.324166988E1
4.301077270E-1,-1.702515221E1,-1.552986336E1,5.007921696E0,2.358202161E1
4.349056440E-1,-1.733554840E1,-1.482523251E1,5.185325623E0,2.339222860E1
4.397036130E-1,-1.726173782E1,-1.378025913E1,4.622727394E0,2.256618583E1
4.445015290E-1,-1.703799820E1,-1.282517719E1,3.634115934E0,2.163296908E1
4.492994460E-1,-1.671466064E1,-1.177469635E1,2.647605419E0,2.061633258E1
4.540974150E-1,-1.649086380E1,-1.075700474E1,1.767474651E0,1.976830055E1
4.588953310E-1,-1.626053238E1,-9.925947189E0,1.211612105E0,1.908919445E1
4.636932480E-1,-1.615309715E1,-9.328538895E0,8.629906178E-1,1.867321446E1
4.684912170E-1,-1.616936302E1,-8.804439545E0,5.630676746E-1,1.841964987E1
4.732891340E-1,-1.612649155E1,-8.575284958E0,-4.563713074E-2,1.826475635E1
4.780870500E-1,-1.599854279E1,-8.628200531E0,-9.200036526E-1,1.820015446E1
4.828850190E-1,-1.589342499E1,-8.962381363E0,-2.281048536E0,1.838826854E1
4.876829360E-1,-1.536049461E1,-8.433870316E0,-2.849423409E0,1.775370882E1
4.924808520E-1,-1.489747620E1,-9.121974945E0,-3.478285551E0,1.781133612E1
4.972788210E-1,-1.420896149E1,-9.508068085E0,-3.575350285E0,1.746657021E1
5.020767380E-1,-1.485131168E1,-8.957376480E0,-4.638936043E0,1.795315515E1
5.068746540E-1,-1.319978523E1,-7.817090511E0,-3.187533617E0,1.566849083E1
5.116726230E-1,-1.306316757E1,-7.260939598E0,-2.958970785E0,1.523558660E1
5.164705400E-1,-1.292174911E1,-7.337645054E0,-2.809238911E0,1.512297783E1
5.212684560E-1,-1.266837692E1,-6.725101471E0,-1.161510944E0,1.438971408E1
5.260664250E-1,-1.273844814E1,-7.744477272E0,1.275115490E0,1.496231629E1
5.308643420E-1,-1.349198532E1,-8.209395409E0,3.314990282E0,1.613744098E1
5.356622590E-1,-1.458288765E1,-7.504202843E0,5.221618652E0,1.721159417E1
5.404602270E-1,-1.585046577E1,-6.089275360E0,7.370573997E0,1.851058888E1
5.452581440E-1,-1.684652328E1,-4.840762138E0,9.199686050E0,1.979577097E1
5.500560610E-1,-1.784288406E1,-2.615689278E0,1.025314331E1,2.074457254E1
5.548540290E-1,-1.847619820E1,-4.754829407E-1,1.094488430E1,2.147990866E1
5.596519460E-1,-1.870279884E1,2.026237488E0,1.108745289E1,2.183648173E1
5.644498630E-1,-1.858178139E1,4.952093124E0,1.056806087E1,2.194287439E1
5.692478310E-1,-1.805811691E1,6.868971348E0,1.006911087E1,2.178681591E1
5.740457480E-1,-1.722401810E1,8.072083473E0,9.616469383E0,2.131435700E1
5.788436650E-1,-1.604784393E1,9.157866478E0,8.924663544E0,2.051948909E1
5.836416340E-1,-1.457338810E1,1.082654476E1,7.025203705E0,1.946666893E1
5.884395500E-1,-1.288460827E1,1.229522228E1,3.710168600E0,1.819205794E1
5.932374670E-1,-1.152853203E1,1.128530788E1,3.677639008E0,1.654660852E1
5.980354360E-1,-1.062588501E1,9.751719475E0,5.342735767E0,1.538019150E1
6.028333520E-1,-9.266407013E0,9.835065842E0,4.939056396E0,1.438711566E1
6.076312690E-1,-7.419354916E0,1.265864754E1,1.716536999E0,1.477276833E1
6.124292380E-1,-6.674493790E0,1.191933060E1,1.817880869E-1,1.366207730E1
6.172271540E-1,-6.371426105E0,9.490695953E0,1.839499950E0,1.157808880E1
6.220250710E-1,-4.829635620E0,1.055180359E1,1.967039347E0,1.177009698E1
6.268230400E-1,-4.133428574E0,1.188426208E1,1.701920629E0,1.269714342E1
6.316209560E-1,-4.244414806E0,1.178985596E1,1.501535535E0,1.262023651E1
6.364188730E-1,-4.259489059E0,1.121548271E1,1.470490336E0,1.208687889E1
6.412168420E-1,-3.885942936E0,1.111980820E1,1.219247818E0,1.184218105E1
6.460147590E-1,-3.411653042E0,1.145186520E1,1.105753183E0,1.200030346E1
6.508126750E-1,-2.915044785E0,1.172634029E1,1.234610796E0,1.214614369E1
6.556106440E-1,-2.488549709E0,1.160891724E1,1.395857096E0,1.195442412E1
6.604085610E-1,-2.132088661E0,1.119077110E1,1.469241142E0,1.148641935E1
6.652064770E-1,-1.755299568E0,1.078080654E1,1.516162515E0,1.102749360E1
6.700044460E-1,-1.273107529E0,1.046947956E1,1.756400228E0,1.069185423E1
6.748023630E-1,-8.581161499E-1,1.028512287E1,2.160874844E0,1.054464300E1
6.796002790E-1,-5.615496635E-1,1.023980618E1,2.460602283E0,1.054625678E1
6.843982480E-1,-4.074239731E-1,1.021454716E1,2.673016787E0,1.056636109E1
6.891961650E-1,-3.492660522E-1,1.002625847E1,2.853645563E0,1.043029907E1
6.939940810E-1,-3.404350281E-1,9.782616615E0,2.910898685E0,1.021218953E1
6.987920500E-1,-3.279881477E-1,9.607312202E0,2.681028366E0,9.979776404E0
7.035899670E-1,-2.050709724E-1,9.440364838E0,2.367817402E0,9.734942302E0
7.083878840E-1,1.479072571E-1,8.866171837E0,2.050409555E0,9.101376761E0
7.131858520E-1,2.862911224E-1,8.531945229E0,1.724369526E0,8.709161972E0
7.179837690E-1,5.070791245E-1,9.298045158E0,1.174681187E0,9.385661878E0
7.227816860E-1,8.657956123E-1,1.015792847E1,7.352598906E-1,1.022123867E1
7.275796540E-1,1.348046064E0,1.028807259E1,2.371630818E-1,1.037872401E1
7.323775710E-1,1.492223740E0,1.001399326E1,-1.244038790E-1,1.012532810E1
7.371754880E-1,1.409878731E0,1.023451328E1,-9.825160503E-1,1.037778194E1
7.419734560E-1,1.659621954E0,9.283377647E0,-1.212910414E0,9.508238388E0
7.467713730E-1,1.690995932E0,8.626331329E0,-1.448931336E0,8.909122373E0
7.515692900E-1,1.727030754E0,9.162137985E0,-1.903397441E0,9.515793688E0
7.563672590E-1,2.006083488E0,9.266195297E0,-1.829846025E0,9.655831540E0
7.611651750E-1,2.258949280E0,9.356770515E0,-1.906991839E0,9.812676709E0
7.659630920E-1,2.104178667E0,9.319132805E0,-1.986599326E0,9.758093102E0
7.707610610E-1,1.806377172E0,9.115723610E0,-2.215675354E0,9.553461817E0
7.755589770E-1,1.689654112E0,8.788064957E0,-2.366738081E0,9.256698431E0
7.803568940E-1,1.662117958E0,8.320484161E0,-2.404300928E0,8.818943006E0
7.851548630E-1,1.660654068E0,7.695228577E0,-2.248420715E0,8.187167428E0
7.899527790E-1,1.631415606E0,6.393310070E0,-2.067078829E0,6.914386843E0
7.947506960E-1,1.274631977E0,5.731722355E0,-2.309567928E0,6.309630088E0
7.995486650E-1,7.857384682E-1,5.358699322E0,-2.547066689E0,5.985030666E0
8.043465810E-1,5.391654968E-1,4.016450405E0,-2.626935244E0,4.829426681E0
8.091444980E-1,1.742048264E-1,2.583587170E0,-2.715677738E0,3.752356002E0
8.139424670E-1,-4.274916649E-1,8.916435242E-1,-2.968837023E0,3.129180494E0
8.187403840E-1,-1.170009613E0,-1.221817493E0,-3.447929621E0,3.840570160E0
8.235383000E-1,-1.948624611E0,-3.720869064E0,-3.869551182E0,5.710992104E0
8.283362690E-1,-2.783088207E0,-6.434192181E0,-4.138072014E0,8.140518962E0
8.331341860E-1,-3.545532703E0,-9.184397697E0,-4.081040859E0,1.065733821E1
8.379321020E-1,-4.382491589E0,-1.181639481E1,-3.730532408E0,1.314345049E1
8.427300710E-1,-5.334606647E0,-1.426888752E1,-3.174215317E0,1.556068193E1
8.475279880E-1,-6.177642345E0,-1.631691360E1,-2.331551552E0,1.760230289E1
8.523259040E-1,-6.828657627E0,-1.785091019E1,-1.265880346E0,1.915432099E1
8.571238730E-1,-7.445850372E0,-1.915622330E1,-7.860404253E-2,2.055256085E1
8.619217900E-1,-8.123004913E0,-2.034217644E1,1.118200064E0,2.193257218E1
8.667197060E-1,-8.782817841E0,-2.150503349E1,2.287885666E0,2.334178176E1
8.715176750E-1,-9.441202164E0,-2.244554138E1,3.475036383E0,2.459704259E1
8.763155920E-1,-1.009149551E1,-2.301169968E1,4.647635460E0,2.555341697E1
8.811135090E-1,-1.043539429E1,-2.297521210E1,5.722509384E0,2.587479350E1
8.859114770E-1,-1.029730225E1,-2.223589134E1,6.422047138E0,2.533203479E1
8.907093940E-1,-9.911262512E0,-2.104245758E1,6.520652771E0,2.415651171E1
8.955073110E-1,-9.547227859E0,-1.979534149E1,6.205160618E0,2.283657424E1
9.003052790E-1,-9.310785294E0,-1.862208557E1,5.578426361E0,2.155438782E1
9.051031960E-1,-9.544006348E0,-1.622664261E1,6.348379612E0,1.986690492E1
9.099011650E-1,-9.391739845E0,-1.910071945E1,3.314532757E0,2.154131817E1
9.146990810E-1,-8.749665260E0,-1.976421738E1,3.061530113E0,2.183011446E1
9.194969980E-1,-8.037777901E0,-1.929674911E1,2.602587700E0,2.106522876E1
9.242949670E-1,-7.271165371E0,-1.874338531E1,2.045555592E0,2.020813293E1
9.290928840E-1,-5.950309277E0,-1.466057873E1,-1.735765576E0,1.591702332E1
9.338908000E-1,-5.203666687E0,-1.340139389E0,-7.269007683E0,9.039501826E0
9.386887690E-1,-8.225559235E0,-7.440992355E0,-7.639533997E0,1.346813542E1
9.434866860E-1,-7.121154308E0,-2.458758926E1,-6.536869049E0,2.641952008E1
9.482846020E-1,-3.934419155E0,-2.591119385E1,-3.453840017E0,2.643479963E1
9.530825710E-1,-2.462107658E0,-2.290766907E1,-1.514485031E-1,2.304010011E1
9.578804880E-1,-2.207560062E0,-1.854022980E1,1.038565040E0,1.870005507E1
9.626784040E-1,-2.439044476E0,-1.529475594E1,1.174101353E0,1.553245026E1
9.674763730E-1,-2.511625767E0,-1.441173744E1,8.751261234E-1,1.465511125E1
9.722742900E-1,-2.448253632E0,-1.165509701E1,1.594778746E-1,1.191052750E1
9.770722060E-1,-2.215991497E0,-9.731844902E0,-7.635960579E-1,1.001012000E1
9.818701750E-1,-5.421764851E0,-7.091906548E0,-2.014192343E0,9.151373851E0
9.866680920E-1,-2.650203228E0,-3.577516556E0,-6.490652561E-1,4.499276338E0
9.914660090E-1,-5.805916786E0,-2.191099167E0,4.294952154E-1,6.220454278E0
9.962639770E-1,-2.313257217E0,1.406051636E0,8.547442436E0,8.965874880E0
1.001061894E0,8.472723961E-1,1.531980515E0,4.291579247E0,4.634920413E0
1.005859811E0,8.204250336E-1,1.818759918E0,-2.149229527E0,2.932605059E0
1.010657779E0,1.079331875E0,3.016055584E0,-1.964401364E0,3.757714904E0
1.015455696E0,1.750672817E0,4.197540760E0,-1.235316992E0,4.712771140E0
1.020253613E0,2.251509190E0,5.486988544E0,-6.780311465E-1,5.969594890E0
1.025051581E0,2.660044909E0,7.009806633E0,-4.199331403E-1,7.509299021E0
1.029849498E0,2.949223757E0,8.440738678E0,-5.869174004E-2,8.941332950E0
1.034647415E0,3.308876514E0,9.674467087E0,3.568953276E-1,1.023090179E1
1.039445384E0,3.653835773E0,1.072278214E1,5.620729327E-1,1.134215582E1
1.044243300E0,3.896703005E0,1.150549507E1,6.201182008E-1,1.216327496E1
1.049041217E0,4.109268188E0,1.214778328E1,4.979153872E-1,1.283365277E1
1.053839186E0,4.283337116E0,1.250671864E1,2.009019852E-1,1.322139741E1
1.058637102E0,4.324654579E0,1.257387447E1,-3.107035160E-1,1.330043207E1
1.063435019E0,4.331391811E0,1.241050339E1,-8.811482787E-1,1.317414026E1
1.068232988E0,4.368995667E0,1.226051140E1,-1.383294106E0,1.308899406E1
1.073030904E0,4.388087273E0,1.215457439E1,-1.885897636E0,1.305931080E1
1.077828873E0,4.460375309E0,1.209991837E1,-2.575267315E0,1.315047429E1
1.082626790E0,4.711610794E0,1.198733902E1,-3.148102760E0,1.325919017E1
1.087424706E0,5.026350975E0,1.187453079E1,-3.605078697E0,1.338899840E1
1.092222675E0,5.305891037E0,1.175495243E1,-4.293823719E0,1.359295069E1
1.097020592E0,5.558601379E0,1.162248039E1,-5.078555584E0,1.384817051E1
1.101818509E0,5.886086941E0,1.154221058E1,-5.691085815E0,1.415122264E1
1.106616477E0,6.158643246E0,1.148108768E1,-6.183880806E0,1.442167268E1
1.111414394E0,6.289397240E0,1.145856285E1,-6.096966267E0,1.442318196E1
1.116212311E0,6.185240269E0,1.133147907E1,-5.509784698E0,1.403628664E1
1.121010279E0,5.920514107E0,1.107145882E1,-4.668538570E0,1.339495950E1
1.125808196E0,5.564476490E0,1.070764542E1,-3.924149990E0,1.268920888E1
1.130606113E0,5.250551701E0,1.033592510E1,-3.328979015E0,1.206158125E1
1.135404081E0,4.931214333E0,1.007525826E1,-2.813360929E0,1.156471804E1
1.140201998E0,4.666597366E0,9.853368759E0,-2.357815266E0,1.115460890E1
1.144999915E0,4.340091228E0,9.553089142E0,-1.850190878E0,1.065462859E1
1.149797884E0,3.924742460E0,9.163171768E0,-8.490623236E-1,1.000441038E1
1.154595800E0,3.519103050E0,8.525248528E0,1.564317584E0,9.354733467E0
1.159393717E0,3.380861759E0,8.386277199E0,1.331169128E0,9.139577821E0
1.164191686E0,3.462270021E0,8.395944595E0,9.926055670E-1,9.135888854E0
1.168989602E0,3.537900925E0,8.421649933E0,3.739813566E-1,9.142253147E0
1.173787519E0,3.528452873E0,8.312085152E0,-1.191169024E-1,9.030776715E0
1.178585488E0,3.265674591E0,8.002770424E0,-2.819605470E-1,8.648032536E0
1.183383404E0,2.749925375E0,7.646816730E0,2.138280869E-1,8.129060101E0
1.188181321E0,2.156883240E0,7.461548328E0,1.434859157E0,7.898459949E0
1.192979290E0,1.668358326E0,7.377761364E0,2.562195778E0,7.986214964E0
1.197777206E0,1.349257231E0,7.285804749E0,3.518135548E0,8.202482773E0
1.202575123E0,1.286253929E0,7.073841095E0,4.157507896E0,8.305332559E0
1.207373092E0,1.459045410E0,6.777964592E0,4.432198048E0,8.228851503E0
1.212171009E0,1.728512287E0,6.498404980E0,4.371313572E0,8.020311986E0
1.216968977E0,1.984868050E0,6.232580662E0,4.016603470E0,7.675797438E0
1.221766894E0,2.140199661E0,6.040063858E0,3.443401814E0,7.274602535E0
1.226564811E0,2.387991428E0,5.951839447E0,2.617044926E0,6.926457970E0
1.231362727E0,2.489200115E0,5.989304066E0,2.028368473E0,6.795745659E0
1.236160696E0,2.477116585E0,5.975811958E0,1.688121557E0,6.685520887E0
1.240958613E0,2.453908682E0,5.916339874E0,1.486993313E0,6.575400706E0
1.245756581E0,2.371511698E0,5.913349152E0,1.201999187E0,6.483561365E0
1.250554498E0,2.347595930E0,5.861384392E0,6.106386185E-1,6.343493766E0
1.255352415E0,3.010584831E0,5.886878967E0,-2.022160053E0,6.914339902E0
1.260150384E0,4.254688740E0,6.180300713E0,-6.460318565E0,9.901222608E0
1.264948300E0,4.846374035E0,6.349059105E0,-8.270744324E0,1.149796088E1
1.269746217E0,4.847007275E0,6.199227333E0,-7.290847778E0,1.072755146E1
1.274544186E0,4.762456417E0,5.754531384E0,-5.811881065E0,9.464332205E0
1.279342102E0,4.522107601E0,5.020436287E0,-4.678595543E0,8.218484892E0
1.284140019E0,4.225176811E0,4.132407188E0,-3.527263641E0,6.882622832E0
1.288937988E0,4.145788670E0,3.300209522E0,-2.999815226E0,6.089157411E0
1.293735904E0,4.252180576E0,2.523487568E0,-2.681265116E0,5.624785487E0
1.298533821E0,4.181155682E0,1.970880032E0,-2.364578724E0,5.192076990E0
1.303331790E0,3.566209793E0,9.935555458E-1,-2.895336151E-1,3.713332011E0
1.308129706E0,3.265383482E0,2.655758858E-1,2.027796745E0,3.852949451E0
1.312927623E0,4.249061584E0,-2.083296776E-1,-1.172696829E0,4.412838481E0
1.317725592E0,4.798665524E0,-1.528096199E0,-4.400984764E0,6.688118995E0
1.322523509E0,5.066237450E0,-2.658502102E0,-6.953898430E0,9.005059616E0
1.327321477E0,3.941547871E0,-3.885095119E0,-4.685805321E0,7.251657411E0
1.332119394E0,1.589071751E0,-5.531423092E0,5.768842697E-1,5.783993941E0
1.336917311E0,-3.028264046E-1,-7.573675632E0,3.090612173E0,8.185606271E0
1.341715279E0,-1.861143112E0,-9.409378052E0,3.758999348E0,1.030195734E1
1.346513196E0,-3.442230701E0,-1.092078590E1,3.981703281E0,1.212297315E1
1.351311113E0,-4.872618675E0,-1.236570549E1,4.511332512E0,1.403585430E1
1.356109081E0,-6.131997108E0,-1.348722076E1,5.420320511E0,1.577613346E1
1.360906998E0,-6.914082527E0,-1.449605846E1,6.061832905E0,1.716642264E1
1.365704915E0,-7.725183964E0,-1.614727783E1,7.058714867E0,1.924158269E1
1.370502884E0,-8.040829659E0,-1.722739029E1,7.624704361E0,2.048350640E1
1.375300800E0,-8.282739639E0,-1.743340302E1,7.906912327E0,2.085777023E1
1.380098769E0,-8.698921204E0,-1.770217133E1,8.439441681E0,2.145372405E1
1.384896686E0,-9.213117599E0,-1.787670135E1,8.794000626E0,2.194977071E1
1.389694602E0,-9.841682434E0,-1.780288315E1,9.058172226E0,2.226773104E1
1.394492519E0,-1.025846195E1,-1.751536560E1,8.633800507E0,2.205825435E1
1.399290488E0,-1.095180511E1,-1.718367767E1,7.401064873E0,2.167940439E1
1.404088404E0,-1.171579170E1,-1.664697647E1,6.264788628E0,2.129857219E1
1.408886373E0,-1.215814495E1,-1.534260750E1,4.887149811E0,2.017672736E1
1.413684290E0,-1.257270336E1,-1.417099762E1,3.332512617E0,1.923527186E1
1.418482206E0,-1.305677223E1,-1.279421806E1,1.698245049E0,1.835906733E1
1.423280175E0,-1.394287014E1,-1.128441811E1,5.757784843E-1,1.794639910E1
1.428078092E0,-1.493140125E1,-9.387574196E0,-6.676685810E-1,1.764990295E1
1.432876009E0,-1.606699944E1,-7.159112453E0,-1.793788791E0,1.768103617E1
1.437673977E0,-1.668403244E1,-5.745758533E0,-1.962983012E0,1.775454820E1
1.442471894E0,-1.615695190E1,-5.216100216E0,-1.725512505E0,1.706552635E1
1.447269863E0,-1.448353386E1,-6.357544899E0,-1.331451416E0,1.587337056E1
1.452067779E0,-1.279704857E1,-8.077621460E0,-4.509580135E-1,1.513987396E1
1.456865696E0,-1.078758335E1,-8.814088821E0,2.659263611E-1,1.393308412E1
1.461663613E0,-8.797563553E0,-8.379530907E0,5.268681049E-1,1.216105475E1
1.466461581E0,-7.468352318E0,-8.510973930E0,6.875138283E-1,1.134396927E1
1.471259498E0,-5.133257389E0,-8.959400177E0,4.552927017E-1,1.033578610E1
1.476057467E0,-3.077204704E0,-8.477930069E0,1.007215500E0,9.075184302E0
1.480855384E0,-1.299483299E0,-7.687186718E0,3.890514374E-3,7.796249843E0
1.485653300E0,2.238821983E-1,-7.320537090E0,-7.000193596E-1,7.357337401E0
1.490451269E0,1.143785954E0,-6.842737198E0,1.663191319E-1,6.939665750E0
1.495249186E0,2.187245846E0,-6.114655495E0,4.727544785E-1,6.511263549E0
1.500047102E0,2.692435265E0,-4.826141834E0,8.250780106E-1,5.587629764E0
1.504845071E0,2.868648529E0,-3.964338779E0,1.614182949E0,5.152738392E0
1.509642988E0,3.183963299E0,-2.969440460E0,2.253753901E0,4.902510130E0
1.514440904E0,3.049343109E0,-2.293290138E0,2.443598747E0,4.530877166E0
1.519238873E0,2.681945562E0,-2.447751045E0,2.960969210E0,4.685259421E0
1.524036790E0,2.770709276E0,-1.934975624E0,3.172529221E0,4.635288795E0
1.528834706E0,2.877302885E0,-3.823499680E-1,2.778961182E0,4.018418674E0
1.533632675E0,2.548344612E0,5.799674988E-1,2.340609312E0,3.508400563E0
1.538430592E0,2.290607452E0,1.638935566E0,1.835135460E0,3.361653529E0
1.543228561E0,1.674558640E0,2.842863083E0,1.079518795E0,3.471509466E0
1.548026477E0,1.141321182E0,4.001984119E0,8.799555302E-1,4.253564701E0
1.552824394E0,9.411745071E-1,4.808704853E0,7.810258865E-1,4.961799397E0
1.557622363E0,7.727942467E-1,5.691231728E0,3.488485813E-1,5.754044218E0
1.562420279E0,7.248392105E-1,6.713921547E0,-1.304302216E-1,6.754194731E0
1.567218196E0,8.599514961E-1,7.807733536E0,-1.032754183E0,7.922550141E0
1.572016165E0,1.011487007E0,8.806575775E0,-2.271463633E0,9.150870444E0
1.576814081E0,1.144898891E0,9.805448532E0,-4.252079010E0,1.074885065E1
1.581611998E0,1.253465176E0,1.077512360E1,-6.013590813E0,1.240313420E1
1.586409967E0,1.611900806E0,1.157867146E1,-6.560302258E0,1.340527592E1
1.591207884E0,2.263995409E0,1.198643970E1,-6.444854736E0,1.379625183E1
1.596005852E0,2.838361025E0,1.197255325E1,-6.555930138E0,1.394197062E1
1.600803769E0,3.490194559E0,1.161575508E1,-6.455429077E0,1.373971574E1
1.605601686E0,3.962365150E0,1.115146160E1,-6.092819214E0,1.331081813E1
1.610399654E0,4.390768528E0,1.078770542E1,-5.679421902E0,1.295798093E1
1.615197571E0,4.754351139E0,1.043085861E1,-5.468361855E0,1.270077350E1
1.619995488E0,5.106547356E0,1.014227581E1,-5.127609730E0,1.245933249E1
1.624793456E0,5.361084461E0,1.010154533E1,-4.753318787E0,1.238452600E1
1.629591373E0,5.441421986E0,1.003215694E1,-4.424601555E0,1.224052062E1
1.634389290E0,5.362658024E0,9.523338318E0,-3.968007088E0,1.162743110E1
1.639187259E0,5.323382854E0,9.105446815E0,-3.397125006E0,1.108097582E1
1.643985175E0,5.240196228E0,8.884903908E0,-2.856773853E0,1.070337941E1
1.648783144E0,5.175669670E0,8.743813515E0,-2.466535330E0,1.045588962E1
1.653581061E0,5.192232609E0,8.591217041E0,-2.258821726E0,1.028934232E1
1.658378977E0,5.287665367E0,8.431914330E0,-2.003445148E0,1.015235819E1
1.663176946E0,5.302868843E0,8.344407082E0,-1.995469213E0,1.008620072E1
1.667974863E0,5.391580582E0,8.197042465E0,-1.992514849E0,1.001153144E1
1.672772779E0,5.527163506E0,7.811013699E0,-1.827982664E0,9.741816670E0
1.677570748E0,5.803933144E0,7.313716888E0,-1.648810863E0,9.481280078E0
1.682368665E0,6.160346031E0,6.899266720E0,-1.303333044E0,9.340686352E0
1.687166634E0,6.664817810E0,6.603419304E0,-1.147827148E0,9.452113526E0
1.691964550E0,6.783570290E0,6.242360115E0,-1.685221672E0,9.371438404E0
1.696762467E0,6.741956234E0,6.028520584E0,-1.687443972E0,9.200244641E0
1.701560436E0,6.715985775E0,6.141919136E0,-1.066563606E0,9.163252345E0
1.706358352E0,6.912971497E0,6.166397572E0,-7.504525185E-1,9.293912680E0
1.711156269E0,6.869821548E0,5.916496754E0,-7.985322475E-1,9.101485356E0
1.715954238E0,6.878088474E0,5.710291862E0,-8.903374672E-1,8.983776212E0
1.720752154E0,6.915789604E0,5.667409897E0,-1.132494926E0,9.012781233E0
1.725550071E0,6.517277718E0,5.885430813E0,-9.994378090E-1,8.838103905E0
1.730348040E0,5.903404236E0,6.474668980E0,-7.424483299E-1,8.793335516E0
1.735145956E0,5.545168877E0,6.975470543E0,-5.506541729E-1,8.928006899E0
1.739943925E0,5.192875862E0,7.287825108E0,-9.321472645E-1,8.997069136E0
1.744741842E0,4.558012009E0,7.442790508E0,-1.584333658E0,8.870215170E0
1.749539759E0,3.941478729E0,7.556906700E0,-1.865989327E0,8.724907427E0
1.754337727E0,3.590419769E0,7.822566509E0,-2.040456057E0,8.845740321E0
1.759135644E0,3.240410328E0,7.951999664E0,-2.201056004E0,8.864491259E0
1.763933561E0,3.142091990E0,7.783005714E0,-2.402586222E0,8.730426139E0
1.768731529E0,3.233796358E0,7.371792316E0,-2.580615282E0,8.453421560E0
1.773529446E0,3.364758492E0,6.884954929E0,-2.558668137E0,8.079046152E0
1.778327363E0,3.711578608E0,6.169136524E0,-2.537473917E0,7.633664591E0
1.783125331E0,4.298011780E0,5.412825584E0,-2.683316231E0,7.414295116E0
1.787923248E0,4.750748158E0,4.704756737E0,-2.818234921E0,7.255810918E0
1.792721217E0,5.263429642E0,4.057795525E0,-3.080868244E0,7.325376799E0
1.797519134E0,5.848415375E0,3.980292320E0,-3.812543869E0,8.036303883E0
1.802317050E0,6.389725685E0,4.045709133E0,-4.664082527E0,8.885382521E0
1.807115019E0,6.331849575E0,3.594620943E0,-5.641561985E0,9.210908771E0
1.811912936E0,5.720555305E0,3.128263474E0,-6.634095192E0,9.301720506E0
1.816710852E0,4.689331055E0,2.425788403E0,-7.717303753E0,9.350457333E0
1.821508821E0,3.026672602E0,1.544388294E0,-7.556894302E0,8.285682455E0
1.826306738E0,1.376354218E0,8.559532166E-1,-7.400765419E0,7.576168928E0
1.831104706E0,-7.027029991E-1,8.167743683E-2,-7.093463898E0,7.128652943E0
1.835902623E0,-3.287458897E0,-1.422849655E0,-5.851990700E0,6.861317824E0
1.840700540E0,-5.847075939E0,-3.364785671E0,-4.684856415E0,8.213279447E0
1.845498509E0,-7.933485508E0,-5.762478828E0,-3.032561302E0,1.026366322E1
1.850296425E0,-8.482976913E0,-7.899164200E0,2.866583586E0,1.194047712E1
1.855094342E0,-9.406171799E0,-1.015273666E1,6.241161823E0,1.518243164E1
1.859892311E0,-1.044044971E1,-1.198166561E1,6.842465401E0,1.730267707E1
1.864690227E0,-1.030520153E1,-1.299045944E1,6.992477894E0,1.799566509E1
1.869488144E0,-1.059152603E1,-1.414178085E1,7.226781845E0,1.908917927E1
1.874286113E0,-1.088080883E1,-1.495876789E1,6.836563110E0,1.972042933E1
1.879084029E0,-1.126593208E1,-1.595087051E1,6.624300480E0,2.062117486E1
1.883881946E0,-1.180109406E1,-1.730722427E1,7.253280640E0,2.216790276E1
1.888679915E0,-1.263482094E1,-1.902401733E1,7.836560249E0,2.414463941E1
1.893477831E0,-1.240664101E1,-1.982598877E1,9.086567879E0,2.509103999E1
1.898275800E0,-1.263452911E1,-2.033465767E1,9.723276138E0,2.583934456E1
1.903073717E0,-1.260378742E1,-1.997798347E1,9.998806000E0,2.565056340E1
1.907871634E0,-1.332548809E1,-1.919560242E1,9.509067535E0,2.522820149E1
1.912669602E0,-1.407991028E1,-1.865413666E1,7.934329510E0,2.468145605E1
1.917467519E0,-1.480438423E1,-1.781439972E1,6.151937485E0,2.396599601E1
1.922265488E0,-1.502247047E1,-1.682320976E1,5.251078606E0,2.315747897E1
1.927063404E0,-1.501321220E1,-1.582702255E1,4.411093712E0,2.225643573E1
1.931861321E0,-1.489080143E1,-1.461610794E1,3.473572731E0,2.115259526E1
1.936659290E0,-1.443702698E1,-1.315319252E1,2.205189705E0,1.965444181E1
1.941457206E0,-1.388014221E1,-1.267603302E1,1.672559977E-1,1.879808861E1
1.946255123E0,-1.246553421E1,-1.341337395E1,-3.941481113E-1,1.831566260E1
1.951053092E0,-1.123098946E1,-1.589560890E1,5.997015238E-1,1.947216342E1
1.955851009E0,-1.033222008E1,-1.355979729E1,1.307308674E-2,1.704766979E1
1.960648977E0,-1.088004112E1,-9.710004807E0,-1.329448938E0,1.464332348E1
1.965446894E0,-9.770559311E0,-9.255449295E0,-3.074460506E0,1.380505264E1
1.970244811E0,-7.118678093E0,-9.440448761E0,-4.053454399E0,1.249912570E1
1.975042779E0,-6.665705204E0,-8.566568375E0,-4.479911804E0,1.174254356E1
1.979840696E0,-7.546371937E0,-7.243965149E0,-3.413726568E0,1.100346716E1
1.984638613E0,-6.233523369E0,-6.857295036E0,-2.289519072E0,9.545742841E0
1.989436581E0,-5.744190216E0,-6.569746017E0,-1.490328074E0,8.853155468E0
1.994234498E0,-5.509716988E0,-5.912031174E0,-4.777696133E-1,8.095514665E0
1.999032467E0,-5.336037159E0,-4.710846901E0,2.675236464E-1,7.122986732E0
2.003830384E0,-4.827267170E0,-3.518246651E0,8.942065239E-1,6.039881881E0
2.008628300E0,-4.559250355E0,-2.310565948E0,1.718687415E0,5.392528649E0
2.013426269E0,-3.591129303E0,-1.892361641E0,1.431159616E0,4.304121292E0
2.018224186E0,-2.244868279E0,-1.198103905E0,2.221612930E0,3.377935844E0
2.023022102E0,-1.106599331E0,2.043819427E-2,2.708781004E0,2.926170591E0
2.027820071E0,-4.222397804E-1,1.119039536E0,2.185149670E0,2.491067039E0
2.032617988E0,1.033549309E-1,2.348817825E0,1.360290885E0,2.716250855E0
2.037415956E0,8.115935326E-1,3.492722034E0,7.233601809E-1,3.658010555E0
2.042213873E0,1.577356339E0,4.522748470E0,4.223442078E-1,4.808500949E0
2.047011790E0,2.333296299E0,5.565850735E0,5.520772934E-2,6.035396749E0
2.051809759E0,2.891113520E0,6.731707096E0,-6.613020897E-1,7.356068125E0
2.056607675E0,3.354666233E0,7.759758949E0,-1.669174552E0,8.617063779E0
2.061405592E0,3.667755365E0,8.466587067E0,-2.525482178E0,9.566273371E0
2.066203561E0,3.877299786E0,9.177529335E0,-3.502239943E0,1.056059577E1
2.071001477E0,3.903868914E0,9.877793312E0,-4.132163525E0,1.139674377E1
2.075799446E0,3.601551294E0,1.072666550E1,-4.709041119E0,1.225592072E1
2.080597363E0,3.342687130E0,1.148424721E1,-4.970892906E0,1.295265484E1
2.085395279E0,3.333507061E0,1.203081226E1,-5.017111778E0,1.345452057E1
2.090193248E0,3.370913506E0,1.206359482E1,-5.313733578E0,1.360621705E1
2.094991165E0,3.617520571E0,1.217287064E1,-5.267955303E0,1.374833036E1
2.099789081E0,3.730741501E0,1.229869270E1,-4.699502945E0,1.368435612E1
2.104587050E0,3.966954231E0,1.217438316E1,-3.792519093E0,1.335423275E1
2.109384967E0,4.329168797E0,1.189700985E1,-3.330241680E0,1.309087680E1
2.114182936E0,4.686467171E0,1.151838875E1,-3.057060003E0,1.280554059E1
2.118980852E0,4.809479237E0,1.089720058E1,-2.439302921E0,1.215854719E1
2.123778769E0,5.113332748E0,1.066957092E1,-2.017019033E0,1.200226151E1
2.128576738E0,5.411228180E0,1.050530815E1,-1.605687857E0,1.192564980E1
2.133374654E0,5.555266857E0,1.034701538E1,-1.376724482E0,1.182442757E1
2.138172571E0,5.622129440E0,1.029279137E1,-1.297853708E0,1.179975923E1
2.142970540E0,5.762194633E0,1.026391983E1,-1.265301108E0,1.183857779E1
2.147768456E0,5.829693794E0,1.027226830E1,-1.181051731E0,1.187011832E1
2.152566425E0,5.710351467E0,1.017193222E1,-1.026518464E0,1.171025444E1
2.157364342E0,5.579370022E0,1.011074924E1,-9.432916641E-1,1.158647571E1
2.162162259E0,5.423274040E0,1.002594757E1,-9.079035521E-1,1.143485089E1
2.166960227E0,5.269114971E0,9.902674675E0,-9.662902355E-1,1.125878569E1
2.171758144E0,5.138834000E0,9.757375717E0,-1.030286312E0,1.107589661E1
2.176556113E0,5.030537605E0,9.515727043E0,-1.157370687E0,1.082565826E1
2.181354029E0,4.887055397E0,9.220775604E0,-1.204299927E0,1.050506314E1
2.186151946E0,4.765872478E0,8.917954445E0,-1.326327562E0,1.019816634E1
2.190949915E0,4.619224548E0,8.664557457E0,-1.449231744E0,9.925324378E0
2.195747831E0,4.532897472E0,8.424719810E0,-1.582781076E0,9.696816968E0
2.200545748E0,4.534927368E0,8.265447617E0,-1.624625206E0,9.566744357E0
2.205343717E0,4.607830048E0,8.205903053E0,-1.646974802E0,9.554133591E0
2.210141634E0,4.636107445E0,8.138815880E0,-1.652381659E0,9.511266020E0
2.214939550E0,4.685814857E0,8.009757996E0,-1.645868301E0,9.424540652E0
2.219737519E0,4.677272320E0,7.864702225E0,-1.608436108E0,9.290720325E0
2.224535436E0,4.710197926E0,7.756620407E0,-1.554466844E0,9.206926295E0
2.229333404E0,4.747952461E0,7.676305294E0,-1.383784771E0,9.131460772E0
2.234131321E0,4.771132469E0,7.595260620E0,-1.218228102E0,9.051837859E0
2.238929238E0,4.763354301E0,7.577857971E0,-1.265135884E0,9.039582094E0
2.243727206E0,4.670530796E0,7.535232544E0,-1.478330255E0,8.987716493E0
2.248525123E0,4.027734756E0,7.727273941E0,-1.509554744E0,8.843764207E0
2.253323092E0,3.462457418E0,8.245897293E0,-1.243670702E0,9.029404762E0
2.258121009E0,3.489058971E0,8.628744125E0,-7.633863091E-1,9.338710636E0
2.262918925E0,3.457301378E0,8.766083717E0,-3.910617828E-1,9.431335318E0
2.267716894E0,3.257964611E0,8.665555000E0,-4.164352417E-1,9.267124429E0
2.272514811E0,3.068263531E0,8.564073563E0,-5.370594263E-1,9.112959448E0
2.277312727E0,3.000339508E0,8.523681641E0,-4.880790710E-1,9.049497613E0
2.282110696E0,2.927085876E0,8.572912216E0,-3.806104660E-1,9.066836269E0
2.286908613E0,2.843316078E0,8.568409920E0,-3.708541989E-1,9.035464997E0
2.291706581E0,2.808259726E0,8.419792175E0,-4.756231308E-1,8.888500454E0
2.296504498E0,2.780896664E0,8.242193222E0,-6.324529052E-1,8.721647324E0
2.301302415E0,2.720410585E0,8.009677887E0,-7.926314473E-1,8.496107239E0
2.306100384E0,2.674550772E0,7.705808640E0,-9.840826392E-1,8.215906965E0
2.310898300E0,2.586050749E0,7.457417488E0,-1.150758624E0,7.976526780E0
2.315696269E0,2.397868395E0,7.116458893E0,-1.382047653E0,7.635693533E0
2.320494186E0,2.064855099E0,6.542526245E0,-1.654432058E0,7.057295635E0
2.325292102E0,1.575437784E0,5.712438583E0,-1.918291807E0,6.228467086E0
2.330090071E0,1.037602663E0,4.772504807E0,-2.121547937E0,5.324883761E0
2.334887988E0,4.731278419E-1,3.708687782E0,-2.264864206E0,4.371249809E0
2.339685956E0,-2.636218071E-1,2.385262489E0,-2.437257767E0,3.420409189E0
2.344483873E0,-1.141693115E0,6.956477165E-1,-2.576804161E0,2.902982707E0
2.349281790E0,-2.156689644E0,-1.318461895E0,-2.688564062E0,3.690261333E0
2.354079759E0,-3.197070599E0,-3.696680069E0,-2.625229836E0,5.547840628E0
2.358877675E0,-4.051525593E0,-6.173055172E0,-2.076743126E0,7.670354085E0
2.363675644E0,-4.910202503E0,-8.298725128E0,-6.960356236E-1,9.667646713E0
2.368473561E0,-5.763861179E0,-1.007515335E1,8.826199770E-1,1.164086890E1
2.373271477E0,-6.631245136E0,-1.159712029E1,2.455209970E0,1.358288139E1
2.378069446E0,-7.287153244E0,-1.291608620E1,3.930171967E0,1.534190786E1
2.382867363E0,-7.721382618E0,-1.411668968E1,5.295451164E0,1.693937662E1
2.387665279E0,-8.107682228E0,-1.529977417E1,6.344240189E0,1.844090519E1
2.392463248E0,-8.811065674E0,-1.692604065E1,6.914505005E0,2.029620925E1
2.397261165E0,-9.519662857E0,-1.872472763E1,7.108046055E0,2.217574631E1
2.402059134E0,-1.016332150E1,-2.008900452E1,7.096232891E0,2.360545970E1
2.406857050E0,-1.027072144E1,-2.086480713E1,6.837535381E0,2.424004508E1
2.411654967E0,-9.827565193E0,-2.115879250E1,6.750722885E0,2.428678235E1
2.416452936E0,-9.108944893E0,-2.123720169E1,6.510519505E0,2.400788364E1
2.421250852E0,-8.249557495E0,-2.100461197E1,5.967825413E0,2.334231914E1
2.426048821E0,-7.222046375E0,-2.048727989E1,5.213299751E0,2.233976467E1
2.430846738E0,-6.315350056E0,-2.003321075E1,4.445238113E0,2.147028927E1
2.435644654E0,-5.615165234E0,-1.995371819E1,3.105142355E0,2.096003004E1
2.440442623E0,-5.168388844E0,-1.999854851E1,1.557215333E0,2.071422471E1
2.445240540E0,-4.806109905E0,-2.009038162E1,-6.426294148E-2,2.065735355E1
2.450038509E0,-4.281929016E0,-1.978042221E1,-2.257528543E0,2.036409718E1
2.454836425E0,-4.094599247E0,-1.933263016E1,-3.569669485E0,2.008130653E1
2.459634342E0,-4.001177311E0,-1.853546906E1,-4.633304119E0,1.952025973E1
2.464432311E0,-4.093225002E0,-1.741681671E1,-5.232156277E0,1.864069351E1
2.469230227E0,-4.259155750E0,-1.653466225E1,-5.890630245E0,1.806197630E1
2.474028144E0,-4.759849548E0,-1.609584618E1,-4.703964233E0,1.743157226E1
2.478826113E0,-5.595658779E0,-1.625975800E1,-2.830318689E0,1.742704310E1
2.483624029E0,-5.907041073E0,-1.635455322E1,-2.647356033E0,1.758900336E1
2.488421998E0,-5.905898094E0,-1.555124378E1,-2.389716148E0,1.680570019E1
2.493219915E0,-6.062169075E0,-1.420091724E1,-1.578951359E0,1.552124453E1
2.498017884E0,-6.632742405E0,-1.193875599E1,-1.137724042E0,1.370480143E1
2.502815800E0,-7.678800583E0,-9.852213860E0,-3.197228312E-1,1.249529187E1
2.507613717E0,-7.249115944E0,-9.547721863E0,1.878543347E-1,1.198932709E1
2.512411686E0,-5.231674671E0,-9.776486397E0,-1.026974440E0,1.113574347E1
2.517209602E0,-4.749371529E0,-7.777548790E0,2.762258053E-3,9.113001851E0
2.522007571E0,-4.233407021E0,-5.829665184E0,3.750095367E-1,7.214385858E0
2.526805488E0,-3.282638073E0,-4.823587418E0,4.425042868E-2,5.834780749E0
2.531603404E0,-2.598966599E0,-3.186638832E0,4.013010859E-1,4.131626434E0
2.536401373E0,-2.321391106E0,-1.381718636E0,8.237644434E-1,2.824285912E0
2.541199290E0,-1.879605770E0,2.845106125E-1,7.874603271E-1,2.057658355E0
2.545997206E0,-1.201922894E0,1.429920197E0,-2.390111089E-1,1.883193224E0
2.550795175E0,-6.609244347E-1,2.638015747E0,-7.005096674E-1,2.808320136E0
2.555593092E0,-3.323144913E-1,3.827333450E0,-6.682551503E-1,3.899420368E0
2.560391061E0,5.640840530E-2,4.924063683E0,-8.294453621E-1,4.993752564E0
2.565188977E0,5.334453583E-1,5.888072968E0,-9.197592735E-1,5.983303798E0
2.569986894E0,1.050452471E0,6.760534763E0,-9.047323465E-1,6.901218827E0
2.574784863E0,1.475527763E0,7.561051846E0,-8.952584267E-1,7.755525439E0
2.579582779E0,1.887229204E0,8.237475395E0,-9.082939029E-1,8.499566622E0
2.584380748E0,2.404846191E0,8.811592102E0,-1.294216275E0,9.225098175E0
2.589178665E0,2.677138805E0,9.274024963E0,-1.354900241E0,9.747326088E0
2.593976581E0,3.022580862E0,9.636729240E0,-1.429844379E0,1.020034315E1
2.598774550E0,3.269284248E0,9.959487915E0,-1.502172351E0,1.058943534E1
2.603572467E0,3.482203007E0,1.018728065E1,-1.487789989E0,1.086829996E1
2.608370436E0,3.687614202E0,1.034176826E1,-1.569788694E0,1.109120850E1
2.613168352E0,3.906904936E0,1.047566891E1,-1.658737779E0,1.130287380E1
2.617966269E0,4.147108555E0,1.048872852E1,-1.717741132E0,1.140888119E1
2.622764238E0,4.469416618E0,1.019769096E1,-1.739022136E0,1.126910750E1
2.627562154E0,4.808406830E0,1.000955200E1,-1.617324829E0,1.122174884E1
2.632360123E0,4.946018219E0,9.848042488E0,-1.567646265E0,1.113124215E1
2.637158040E0,4.994254112E0,9.713468552E0,-1.218250513E0,1.098991264E1
2.641955956E0,5.074519157E0,9.615674019E0,-7.431837916E-1,1.089790134E1
2.646753925E0,5.205156803E0,9.571713448E0,-1.467031240E-1,1.089646170E1
2.651551842E0,5.399627209E0,9.629672050E0,4.049292207E-1,1.104764796E1
2.656349811E0,5.504321575E0,9.675016403E0,7.989674807E-1,1.115983187E1
2.661147727E0,5.568906784E0,9.679389000E0,1.064183712E0,1.121765489E1
2.665945644E0,5.631245613E0,9.712265015E0,1.198990822E0,1.129055348E1
2.670743613E0,5.665009022E0,9.771142960E0,1.306937099E0,1.136994488E1
2.675541529E0,5.629847527E0,9.874891281E0,1.410362244E0,1.145416006E1
2.680339498E0,5.562359333E0,1.001347351E1,1.457839012E0,1.154706836E1
2.685137415E0,5.456112862E0,1.010283279E1,1.438912749E0,1.157181351E1
2.689935331E0,5.247258663E0,1.012602520E1,1.342989564E0,1.148362882E1
2.694733300E0,5.017879009E0,1.009955025E1,1.166700959E0,1.133760187E1
2.699531217E0,4.742459774E0,1.012109947E1,1.035138845E0,1.122493170E1
2.704329186E0,4.464755535E0,1.014252758E1,8.151115179E-1,1.111167469E1
2.709127102E0,4.173295975E0,1.016604233E1,6.669848561E-1,1.100952700E1
2.713925019E0,3.904583454E0,1.025347996E1,5.760477185E-1,1.098687645E1
2.718722988E0,3.649592876E0,1.033523846E1,4.916831851E-1,1.097171064E1
2.723520904E0,3.435087204E0,1.038963985E1,4.542788863E-1,1.095220570E1
2.728318873E0,3.215859652E0,1.039754581E1,3.343659937E-1,1.088864146E1
2.733116790E0,2.996936798E0,1.037330055E1,2.610115409E-1,1.080070005E1
2.737914706E0,2.799813271E0,1.023099899E1,1.767012775E-1,1.060865298E1
2.742712675E0,2.629058838E0,1.008798027E1,1.458532810E-1,1.042595653E1
2.747510592E0,2.482044458E0,9.932397842E0,6.079574674E-2,1.023800604E1
2.752308561E0,2.320206404E0,9.785900116E0,-1.158096269E-2,1.005720304E1
2.757106477E0,2.148098469E0,9.636630058E0,-1.335130036E-1,9.874046366E0
2.761904394E0,1.989425063E0,9.482276917E0,-1.234011799E-1,9.689510589E0
2.766702363E0,1.839480758E0,9.339524269E0,-1.296010166E-1,9.519831903E0
2.771500279E0,1.719714642E0,9.153410912E0,-1.113708764E-1,9.314223169E0
2.776298248E0,1.561138630E0,9.095845222E0,-1.092522070E-1,9.229490245E0
2.781096165E0,1.454876900E0,8.996877670E0,-1.585149020E-2,9.113765735E0
2.785894081E0,1.358022451E0,8.834990501E0,3.970915079E-2,8.938839911E0
2.790692050E0,1.282709599E0,8.691409111E0,1.361136734E-1,8.786607035E0
2.795489967E0,1.186118126E0,8.532557487E0,2.801460028E-1,8.619158617E0
2.800287936E0,1.087531805E0,8.420508385E0,4.449818730E-1,8.502099491E0
2.805085852E0,1.020359516E0,8.350419998E0,6.704654694E-1,8.439204443E0
2.809883769E0,9.584105015E-1,8.248145103E0,9.459078312E-1,8.357343475E0
2.814681738E0,9.639065266E-1,8.161520958E0,1.205403566E0,8.306174685E0
2.819479654E0,9.316730499E-1,8.033240318E0,1.447957158E0,8.215688931E0
2.824277623E0,9.310901165E-1,7.832387924E0,1.662996292E0,8.060942009E0
2.829075540E0,9.263861179E-1,7.614048958E0,1.849926353E0,7.890130562E0
2.833873456E0,9.391846657E-1,7.273160458E0,1.927171707E0,7.582540581E0
2.838671425E0,9.121007919E-1,6.829071522E0,1.856754065E0,7.135522501E0
2.843469342E0,8.572468758E-1,6.277128220E0,1.658416390E0,6.548859123E0
2.848267311E0,7.294521332E-1,5.641292095E0,1.457243443E0,5.871953284E0
2.853065227E0,5.218722820E-1,4.888118744E0,1.213353515E0,5.063425943E0
2.857863144E0,3.280806541E-1,3.900567532E0,9.132139087E-1,4.019455638E0
2.862661113E0,1.147770882E-1,2.705176830E0,6.097831726E-1,2.775426270E0
2.867459029E0,-1.681694984E-1,1.256841660E0,4.274714589E-1,1.338156861E0
2.872256998E0,-5.424070358E-1,-5.036144257E-1,3.890489936E-1,8.361770157E-1
2.877054915E0,-9.793059826E-1,-2.549306870E0,3.739001751E-1,2.756411991E0
2.881852884E0,-1.407108068E0,-4.886895180E0,4.046678543E-1,5.101514842E0
2.886650800E0,-1.842419624E0,-7.334377289E0,4.991431832E-1,7.578703333E0
2.891448717E0,-2.304831743E0,-1.000127029E1,6.899167895E-1,1.028657582E1
2.896246686E0,-2.571044922E0,-1.247339153E1,8.493819833E-1,1.276390293E1
2.901044602E0,-2.609655142E0,-1.450902939E1,1.217927217E0,1.479207830E1
2.905842571E0,-2.279901028E0,-1.589767647E1,1.770234227E0,1.615759249E1
2.910640488E0,-1.661393166E0,-1.666550255E1,2.273619652E0,1.690173212E1
2.915438404E0,-9.699716568E-1,-1.686006546E1,2.541771650E0,1.707815141E1
2.920236373E0,-5.590686798E-1,-1.704757309E1,2.416146278E0,1.722701567E1
2.925034290E0,-8.448224068E-1,-1.778199768E1,1.651644230E0,1.787850931E1
2.929832259E0,-1.741468906E0,-1.916105270E1,5.159199834E-1,1.924694334E1
2.934630175E0,-2.769780636E0,-2.054492569E1,-5.204262137E-1,2.073732142E1
2.939428092E0,-3.467519760E0,-2.135710144E1,-1.307729006E0,2.167624576E1
2.944226061E0,-3.701117039E0,-2.134649658E1,-1.930957198E0,2.175085698E1
2.949023977E0,-3.598440647E0,-2.086396599E1,-2.390006542E0,2.130647749E1
2.953821946E0,-3.297456264E0,-2.014238167E1,-2.688837290E0,2.058685510E1
2.958619863E0,-3.070445061E0,-1.940437317E1,-2.866234064E0,1.985378122E1
2.963417831E0,-3.053610802E0,-1.889352036E1,-3.334131002E0,1.942694211E1
2.968215748E0,-3.342916012E0,-1.873095703E1,-3.737469673E0,1.939052651E1
2.973013665E0,-3.824772835E0,-1.998451614E1,-3.547289848E0,2.065412884E1
2.977811634E0,-4.222075939E0,-2.162227821E1,-2.437235117E0,2.216503903E1
2.982609550E0,-4.745226383E0,-2.200606537E1,-1.186196446E0,2.254309536E1
2.987407519E0,-5.443450928E0,-2.112632370E1,-2.046053112E-2,2.181635005E1
2.992205436E0,-6.876225471E0,-1.996052551E1,1.767695427E0,2.118560366E1
2.997003352E0,-6.922394276E0,-1.893959427E1,2.461446047E0,2.031468656E1
3.001801321E0,-6.359562397E0,-1.915450859E1,1.883405447E0,2.027033422E1
3.006599238E0,-6.627564907E0,-1.879698563E1,2.345353842E0,2.006868132E1
3.011397206E0,-6.358569622E0,-1.785611153E1,2.252305031E0,1.908782346E1
3.016195123E0,-6.223859787E0,-1.663196945E1,2.269143343E0,1.790273303E1
3.020993092E0,-6.343450069E0,-1.519271851E1,2.323392153E0,1.662697223E1
3.025791009E0,-6.459552288E0,-1.360883522E1,2.269340992E0,1.523404478E1
3.030588925E0,-6.441803455E0,-1.215352917E1,2.467719793E0,1.397478959E1
3.035386894E0,-6.232443810E0,-1.082689857E1,2.399734259E0,1.272099890E1
3.040184811E0,-5.945265293E0,-9.187270164E0,2.233069181E0,1.116864855E1
3.044982779E0,-5.598624229E0,-7.503044128E0,2.096534967E0,9.593525073E0
3.049780696E0,-5.213345528E0,-5.886850357E0,1.946637630E0,8.100825685E0
3.054578665E0,-4.863037586E0,-4.259882927E0,1.894824624E0,6.736920474E0
3.059376581E0,-4.542388916E0,-2.722634315E0,1.935575485E0,5.638482698E0
3.064174498E0,-4.215131283E0,-1.351530075E0,1.899081349E0,4.816687165E0
3.068972467E0,-3.912226677E0,-4.598712921E-2,1.809312463E0,4.310596708E0
3.073770384E0,-3.597684383E0,1.206005096E0,1.740829110E0,4.174717620E0
3.078568352E0,-3.314349651E0,2.378190994E0,1.612787247E0,4.386546332E0
3.083366269E0,-2.997451544E0,3.465840816E0,1.413927197E0,4.795410143E0
3.088164186E0,-2.649432659E0,4.466702938E0,1.164087296E0,5.322220193E0
3.092962154E0,-2.318162680E0,5.407213211E0,9.139587879E-1,5.953751220E0
3.097760071E0,-2.048975229E0,6.292244434E0,6.212222576E-1,6.646544712E0
3.102558040E0,-1.829748392E0,7.090810776E0,3.291242123E-1,7.330477432E0
3.107355956E0,-1.597905159E0,7.795783997E0,3.583399951E-2,7.957941511E0
3.112153925E0,-1.348401308E0,8.366636276E0,-3.153173923E-1,8.480460702E0
3.116951842E0,-1.128611326E0,8.913395882E0,-7.282125354E-1,9.014027023E0
3.121749759E0,-9.311368465E-1,9.390727997E0,-1.072816610E0,9.497564089E0
3.126547727E0,-7.414004803E-1,9.832196236E0,-1.322400093E0,9.948391804E0
3.131345644E0,-5.259561539E-1,1.021405315E1,-1.555324793E0,1.034517022E1
3.136143561E0,-3.063499928E-1,1.054362965E1,-1.768912673E0,1.069537416E1
3.140941529E0,-1.186792850E-1,1.082594872E1,-2.017543077E0,1.101298009E1
3.145739446E0,1.040399075E-1,1.113998604E1,-2.157445908E0,1.134745285E1
3.150537415E0,3.781900406E-1,1.135443878E1,-2.190955400E0,1.157007318E1
3.155335331E0,6.531751156E-1,1.159145737E1,-2.177891016E0,1.181235501E1
3.160133300E0,8.784193993E-1,1.174367809E1,-2.225453138E0,1.198491708E1
3.164931217E0,1.118003368E0,1.181143188E1,-2.247326136E0,1.207519480E1
3.169729134E0,1.340033054E0,1.187398052E1,-2.226687670E0,1.215504998E1
3.174527102E0,1.503409266E0,1.194583607E1,-2.149450064E0,1.223042822E1
3.179325019E0,1.689101934E0,1.205813789E1,-2.049570560E0,1.234716544E1
3.184122988E0,1.853540301E0,1.212976265E1,-1.910507083E0,1.241840533E1
3.188920904E0,1.960629702E0,1.221818542E1,-1.856879592E0,1.251303823E1
3.193718873E0,2.067574978E0,1.222550583E1,-1.804959416E0,1.252979399E1
3.198516790E0,2.138367414E0,1.219252014E1,-1.716572762E0,1.249707104E1
3.203314706E0,2.158357143E0,1.209075546E1,-1.723029017E0,1.240216522E1
3.208112675E0,2.098371506E0,1.202083015E1,-1.693061829E0,1.231949589E1
3.212910592E0,1.936296463E0,1.195426083E1,-1.727203012E0,1.223261322E1
3.217708561E0,1.757741690E0,1.182195282E1,-1.803652525E0,1.208724066E1
3.222506477E0,1.617642283E0,1.164077663E1,-1.912439704E0,1.190721936E1
3.227304394E0,1.504256845E0,1.148241806E1,-2.031670332E0,1.175739757E1
3.232102363E0,1.461063027E0,1.134191799E1,-2.156076193E0,1.163711620E1
3.236900279E0,1.459882140E0,1.122384262E1,-2.328188658E0,1.155536072E1
3.241698248E0,1.553824186E0,1.111600590E1,-2.468701363E0,1.149236456E1
3.246496165E0,1.645411253E0,1.110416126E1,-2.553597450E0,1.151219508E1
3.251294134E0,1.771051526E0,1.112818050E1,-2.573493719E0,1.155836904E1
3.256092050E0,1.935685158E0,1.113769817E1,-2.664656878E0,1.161445625E1
3.260889967E0,2.101066589E0,1.117803097E1,-2.726830244E0,1.169608739E1
3.265687936E0,2.233716965E0,1.120843410E1,-2.640722752E0,1.172995751E1
3.270485852E0,2.352721691E0,1.118584824E1,-2.571495056E0,1.171627445E1
3.275283821E0,2.400566816E0,1.107925034E1,-2.454885960E0,1.159909368E1
3.280081738E0,2.303081751E0,1.088633537E1,-2.219732046E0,1.134652783E1
3.284879706E0,2.100703239E0,1.067176342E1,-1.814464927E0,1.102686590E1
3.289677623E0,1.903248668E0,1.038060379E1,-1.321670294E0,1.063607554E1
3.294475540E0,1.732259750E0,1.011085892E1,-7.930896282E-1,1.028878919E1
3.299273509E0,1.561421752E0,9.883987427E0,-3.681504428E-1,1.001333012E1
3.304071425E0,1.343101621E0,9.721388817E0,7.178693265E-2,9.813993879E0
3.308869394E0,1.130079985E0,9.594293594E0,4.945124984E-1,9.673266923E0
3.313667311E0,9.727330208E-1,9.459639549E0,8.874555826E-1,9.550841185E0
3.318465227E0,8.616440296E-1,9.341332436E0,1.266707420E0,9.466122215E0
3.323263196E0,7.657120228E-1,9.256155014E0,1.615109444E0,9.427157528E0
3.328061113E0,6.899187565E-1,9.129997253E0,1.891776681E0,9.349420129E0
3.332859081E0,6.128375530E-1,8.960577011E0,2.101358652E0,9.224056506E0
3.337656998E0,5.321123600E-1,8.791024208E0,2.346606731E0,9.114373996E0
3.342454967E0,4.932975769E-1,8.564001083E0,2.429197788E0,8.915517873E0
3.347252884E0,5.130314827E-1,8.303548813E0,2.609763384E0,8.719116303E0
3.352050800E0,6.294720173E-1,7.988244534E0,2.677987337E0,8.448662730E0
3.356848769E0,8.019444942E-1,7.701791763E0,2.741755486E0,8.214495388E0
3.361646686E0,8.678977489E-1,7.432236195E0,2.863047123E0,8.011767607E0
3.366444654E0,8.131675720E-1,7.117486477E0,2.947978973E0,7.746640257E0
3.371242571E0,7.502210140E-1,6.707493782E0,2.998335838E0,7.385345097E0
3.376040540E0,7.554652691E-1,6.116428852E0,2.982818604E0,6.846797536E0
3.380838456E0,7.735414505E-1,5.311196327E0,2.820420265E0,6.063162811E0
3.385636373E0,6.677699089E-1,4.287457466E0,2.595331669E0,5.056080957E0
3.390434342E0,5.310463905E-1,2.973969936E0,2.365414619E0,3.836885947E0
3.395232259E0,3.322594166E-1,1.459524155E0,2.136009693E0,2.608283820E0
3.400030227E0,3.593397141E-2,-3.059577942E-1,1.747791052E0,1.774732369E0
3.404828144E0,-3.720750809E-1,-2.489516258E0,1.161635160E0,2.772278361E0
3.409626113E0,-9.894590378E-1,-5.081160545E0,5.369889736E-1,5.204380735E0
3.414424029E0,-1.791998386E0,-7.970534325E0,-7.891935110E-2,8.169877839E0
3.419221946E0,-2.750735283E0,-1.087299061E1,-5.526970625E-1,1.122915595E1
3.424019915E0,-3.528883934E0,-1.338700104E1,-8.164577484E-1,1.386836046E1
3.428817831E0,-4.191731453E0,-1.518791389E1,-6.342207193E-1,1.576849952E1
3.433615800E0,-4.570672989E0,-1.609943771E1,-8.514270186E-2,1.673589542E1
3.438413717E0,-4.604350090E0,-1.609860992E1,8.915780187E-1,1.676783208E1
3.443211686E0,-4.337963581E0,-1.556673145E1,2.136141062E0,1.630043419E1
3.448009602E0,-4.417873383E0,-1.545131493E1,2.994405270E0,1.634708540E1
3.452807519E0,-5.197144508E0,-1.658677864E1,2.987319469E0,1.763676882E1
3.457605488E0,-6.275482655E0,-1.892488480E1,2.615348339E0,2.010902767E1
3.462403404E0,-7.025008202E0,-2.109321404E1,2.598927498E0,2.238367357E1
3.467201373E0,-7.210217476E0,-2.193796921E1,2.865770102E0,2.326960179E1
3.471999290E0,-6.532562733E0,-2.132215500E1,2.982204676E0,2.249893807E1
3.476797259E0,-5.866848946E0,-2.028719902E1,2.361458540E0,2.125010228E1
3.481595175E0,-5.594946384E0,-1.943902969E1,1.640817523E0,2.029461955E1
3.486393144E0,-5.486565590E0,-1.889758682E1,9.597169161E-1,1.970132600E1
3.491191061E0,-5.359410286E0,-1.921628952E1,1.269161701E0,1.998999332E1
3.495989029E0,-5.201724529E0,-1.965439606E1,1.294855714E0,2.037228200E1
3.500786946E0,-5.318547249E0,-1.959892464E1,1.087700605E0,2.033686024E1
3.505584863E0,-5.403648376E0,-1.913589287E1,7.661426067E-2,1.988435771E1
3.510382831E0,-5.815488815E0,-1.835362244E1,-2.632227540E-1,1.925473066E1
3.515180748E0,-5.996063709E0,-1.800389481E1,-2.067545652E-1,1.897724310E1
3.519978717E0,-5.747879505E0,-1.793114090E1,-6.215012074E-2,1.882997067E1
3.524776634E0,-5.222309589E0,-1.769811630E1,-5.289550424E-1,1.846010920E1
3.529574550E0,-4.822790146E0,-1.686651230E1,-5.126367211E-1,1.754996690E1
3.534372519E0,-4.491563797E0,-1.561390781E1,-8.181475401E-1,1.626768662E1
3.539170436E0,-4.340138912E0,-1.418019772E1,-9.306180477E-1,1.485869654E1
3.543968404E0,-4.197160721E0,-1.275035000E1,-1.166692734E0,1.347400294E1
3.548766321E0,-4.070606232E0,-1.154240322E1,-1.743080735E0,1.236265496E1
3.553564290E0,-3.951805115E0,-1.056605434E1,-2.400000572E0,1.153335471E1
3.558362206E0,-3.808259964E0,-9.642307281E0,-2.845095158E0,1.075041860E1
3.563160123E0,-3.586155891E0,-8.738201141E0,-3.059260845E0,9.928532126E0
3.567958092E0,-3.291957855E0,-7.873330116E0,-3.172344208E0,9.104399014E0
3.572756009E0,-2.915786743E0,-6.921471596E0,-3.018505573E0,8.094439899E0
3.577553977E0,-2.474101543E0,-5.830755234E0,-2.573748350E0,6.836890054E0
3.582351894E0,-2.040873051E0,-4.773965836E0,-2.151355743E0,5.619986134E0
3.587149863E0,-1.668615818E0,-3.815992355E0,-1.667316198E0,4.486203262E0
3.591947779E0,-1.297974110E0,-2.961612701E0,-1.147572041E0,3.431152601E0
3.596745748E0,-9.982728958E-1,-2.050751686E0,-7.294110060E-1,2.394613052E0
3.601543665E0,-7.551498413E-1,-1.174362183E0,-5.088976622E-1,1.486053380E0
3.606341581E0,-4.656329155E-1,-3.587636948E-1,-3.137874603E-1,6.663242236E-1
3.611139550E0,-2.085242271E-1,4.677629471E-1,-1.583642960E-1,5.360632222E-1
3.615937467E0,1.906681061E-2,1.233316422E0,-8.789825439E-2,1.236591704E0
3.620735436E0,1.124501228E-1,2.078856468E0,-3.144886494E-1,2.105514748E0
3.625533352E0,2.969942093E-1,2.877363205E0,-2.929949760E-1,2.907450882E0
3.630331321E0,5.368931293E-1,3.664604187E0,-2.417591810E-1,3.711606873E0
3.635129238E0,7.365753651E-1,4.311417103E0,-1.090092659E-1,4.375242133E0
3.639927154E0,9.389541149E-1,4.884870052E0,1.113021374E-2,4.974305393E0
3.644725123E0,1.177156448E0,5.425788879E0,9.199738503E-2,5.552778204E0
3.649523040E0,1.391125679E0,5.905630112E0,9.036254883E-2,6.067937299E0
3.654321009E0,1.552029610E0,6.424934387E0,3.504669666E-2,6.609826477E0
3.659118925E0,1.667251587E0,6.871294498E0,-7.852518559E-2,7.071108975E0
3.663916894E0,1.746797800E0,7.285326004E0,-2.116346359E-1,7.494802650E0
3.668714811E0,1.805552483E0,7.695591450E0,-3.328337669E-1,7.911569114E0
3.673512727E0,1.844133139E0,8.118657112E0,-4.273059368E-1,8.336426735E0
3.678310696E0,1.867738247E0,8.518587112E0,-5.399546623E-1,8.737638330E0
3.683108613E0,1.884051085E0,8.952638626E0,-6.249355674E-1,9.170056233E0
3.687906581E0,1.917196155E0,9.372951508E0,-6.676137447E-1,9.590285145E0
3.692704498E0,2.034122467E0,9.879943848E0,-6.845127344E-1,1.011036608E1
3.697502467E0,2.158092022E0,1.042814350E1,-6.687152982E-1,1.067008520E1
3.702300384E0,2.312723875E0,1.095542049E1,-5.178974867E-1,1.120884239E1
3.707098300E0,2.497673512E0,1.149055004E1,-4.715566635E-1,1.176832524E1
3.711896269E0,2.581390381E0,1.198573494E1,-5.177298784E-1,1.227148983E1
3.716694186E0,2.592659473E0,1.238847351E1,-5.606263876E-1,1.266927232E1
3.721492154E0,2.565363884E0,1.268211746E1,-6.904773712E-1,1.295738994E1
3.726290071E0,2.548013449E0,1.298860455E1,-9.920809269E-1,1.327329820E1
3.731088040E0,2.517041683E0,1.307138729E1,-1.079427242E0,1.335521725E1
3.735885956E0,2.529882908E0,1.304324913E1,-1.166743994E0,1.333746404E1
3.740683925E0,2.512280941E0,1.285916901E1,-1.114406705E0,1.314958879E1
3.745481842E0,2.454494476E0,1.270604515E1,-1.287143946E0,1.300480165E1
3.750279759E0,2.379911900E0,1.245512009E1,-1.323287725E0,1.274931714E1
3.755077727E0,2.283382893E0,1.237197876E1,-1.392507076E0,1.265775540E1
3.759875644E0,2.166535854E0,1.214358902E1,-1.272931099E0,1.240084616E1
3.764673613E0,2.073813677E0,1.177286911E1,-1.106101155E0,1.200519096E1
3.769471529E0,2.026095152E0,1.146805668E1,-1.188903093E0,1.170618965E1
3.774269498E0,1.893541574E0,1.110025215E1,-1.167673230E0,1.132097868E1
3.779067415E0,1.692139149E0,1.072472191E1,-1.131650329E0,1.091620939E1
3.783865384E0,1.499934912E0,1.037041855E1,-1.119677305E0,1.053798192E1
3.788663300E0,1.440318823E0,1.003039360E1,-1.153820276E0,1.019875558E1
3.793461217E0,1.445520401E0,9.645027161E0,-1.139240026E0,9.819060342E0
3.798259186E0,1.532191992E0,9.369760513E0,-1.278760076E0,9.579940068E0
3.803057102E0,1.595470190E0,9.228299141E0,-1.416024804E0,9.471650142E0
3.807855071E0,1.609688759E0,9.198762894E0,-1.454959869E0,9.451203357E0
3.812652988E0,1.623657942E0,9.204152107E0,-1.531565905E0,9.470922618E0
3.817450956E0,1.626320362E0,9.255949974E0,-1.516779661E0,9.519356511E0
3.822248873E0,1.656832695E0,9.308188438E0,-1.478224754E0,9.569358129E0
3.827046842E0,1.663399816E0,9.262481689E0,-1.416186929E0,9.516619747E0
3.831844759E0,1.403486490E0,9.101742744E0,-1.512141466E0,9.332634522E0
3.836642675E0,1.359286547E0,8.980715752E0,-1.391532183E0,9.188975848E0
3.841440644E0,1.400313377E0,8.934448242E0,-1.216750860E0,9.125005512E0
3.846238561E0,1.651718020E0,8.940855980E0,-1.399875045E0,9.199278679E0
3.851036529E0,1.771440744E0,8.820705414E0,-1.670265436E0,9.150553696E0
3.855834446E0,2.067656755E0,8.686661720E0,-2.101360798E0,9.173277141E0
3.860632415E0,2.391477585E0,8.483997345E0,-2.276956081E0,9.103949966E0
3.865430331E0,2.691696882E0,8.261013031E0,-2.402683496E0,9.014569118E0
3.870228300E0,2.998278141E0,8.085177422E0,-2.683364391E0,9.031069162E0
3.875026217E0,3.250476599E0,7.847004890E0,-3.026822090E0,9.016802972E0
3.879824134E0,3.369160414E0,7.515727520E0,-3.231039047E0,8.847429874E0
3.884622102E0,3.383282661E0,7.433084488E0,-3.167571306E0,8.759614977E0
3.889420019E0,3.085240364E0,7.450404644E0,-2.959579468E0,8.589898026E0
3.894217988E0,2.528631449E0,7.576753616E0,-2.656183481E0,8.417629301E0
3.899015904E0,1.975601554E0,7.715636730E0,-1.600676060E0,8.123805481E0
3.903813873E0,1.663962841E0,7.235694408E0,-1.411105156E0,7.557464103E0
3.908611790E0,1.127290964E0,6.431735039E0,-1.452264309E0,6.689325239E0
3.913409706E0,1.079976082E0,5.029448509E0,-1.151022792E0,5.271295297E0
3.918207675E0,8.748855591E-1,4.274148941E0,-9.051644802E-1,4.455681390E0
3.923005592E0,7.822942734E-1,3.089535236E0,-6.456421614E-1,3.251778914E0
3.927803561E0,7.076349258E-1,1.804030895E0,-5.089174509E-1,2.003564731E0
3.932601477E0,6.682593822E-1,4.423847198E-1,-4.020394087E-1,8.966105779E-1
3.937399446E0,7.076513767E-1,-1.044645309E0,-5.089137554E-1,1.360532067E0
3.942197363E0,5.414505005E-1,-2.942563057E0,-1.042904377E0,3.168516298E0
3.946995331E0,9.851121902E-2,-5.161278725E0,-1.923844695E0,5.509054451E0
3.951793248E0,-4.762644768E-1,-7.632690430E0,-2.853070498E0,8.162401749E0
3.956591165E0,-1.190272331E0,-1.028683567E1,-3.759168386E0,1.101667297E1
3.961389134E0,-1.957539082E0,-1.286047649E1,-4.172601700E0,1.366142086E1
3.966187050E0,-2.622281075E0,-1.485459423E1,-3.912978888E0,1.558354041E1
3.970985019E0,-2.952485561E0,-1.594061565E1,-3.092203617E0,1.650400320E1
3.975782936E0,-3.010360241E0,-1.609153366E1,-1.652865171E0,1.645392621E1
3.980580904E0,-2.965626240E0,-1.579162121E1,1.169546694E-2,1.606768111E1
3.985378821E0,-3.307554722E0,-1.607664108E1,9.745392203E-1,1.644226363E1
3.990176790E0,-4.292197704E0,-1.754162979E1,1.010519624E0,1.808736816E1
3.994974706E0,-5.579668045E0,-1.977266693E1,9.268784523E-1,2.056575203E1
3.999772623E0,-6.766078949E0,-2.166326141E1,1.099402189E0,2.272191463E1
4.004570592E0,-7.465662479E0,-2.250683212E1,1.669077039E0,2.377139934E1
4.009368509E0,-7.697860241E0,-2.235696030E1,2.759649277E0,2.380559577E1
4.014166477E0,-7.559549809E0,-2.163929367E1,4.068718910E0,2.328004075E1
4.018964394E0,-7.186174393E0,-2.062813950E1,5.261707783E0,2.246879637E1
4.023762363E0,-6.806741238E0,-1.990324211E1,6.450474739E0,2.200180441E1
4.028560279E0,-6.539165020E0,-1.909073639E1,7.067659378E0,2.138150379E1
4.033358248E0,-6.552793980E0,-1.826016235E1,7.134248257E0,2.067051369E1
4.038156165E0,-6.684803009E0,-1.750790405E1,6.512900829E0,1.984014044E1
4.042954081E0,-9.745825768E0,-1.680575562E1,7.487687111E0,2.082018252E1
4.047752050E0,-6.818210602E0,-1.729121208E1,6.034439087E0,1.954196679E1
4.052549967E0,-5.941056728E0,-1.629732704E1,4.480453014E0,1.791573283E1
4.057347936E0,-5.681205750E0,-1.554036140E1,3.640058756E0,1.694192903E1
4.062145852E0,-5.315195560E0,-1.498001575E1,2.983144283E0,1.617254852E1
4.066943821E0,-5.029180050E0,-1.413846493E1,2.003291130E0,1.513941934E1
4.071741738E0,-4.725544453E0,-1.356556511E1,1.179879904E0,1.441344663E1
4.076539706E0,-4.323248863E0,-1.262043381E1,6.590807438E-1,1.335665443E1
4.081337623E0,-4.002389908E0,-1.185766029E1,1.000456512E-1,1.251532028E1
4.086135592E0,-3.705651283E0,-1.092562962E1,-4.702237844E-1,1.154652954E1
4.090933509E0,-3.480624199E0,-9.848498344E0,-9.268147945E-1,1.048649847E1
4.095731477E0,-3.255003929E0,-8.693556786E0,-1.271652102E0,9.369636025E0
4.100529394E0,-3.021367550E0,-7.489634514E0,-1.568840742E0,8.227061948E0
4.105327311E0,-2.798153400E0,-6.358922005E0,-1.858528018E0,7.191639445E0
4.110125279E0,-2.524833202E0,-5.289654732E0,-2.135733366E0,6.238316030E0
4.114923196E0,-2.258180141E0,-4.243740082E0,-2.352179050E0,5.351771082E0
4.119721165E0,-2.071397305E0,-3.314667702E0,-2.545855999E0,4.664664139E0
4.124519081E0,-1.992145061E0,-2.435724258E0,-2.745739222E0,4.176179891E0
4.129317050E0,-1.916655064E0,-1.683661461E0,-2.782433987E0,3.774946548E0
4.134114967E0,-1.880147934E0,-1.070513725E0,-2.778469324E0,3.521483732E0
4.138912936E0,-1.733962059E0,-5.460987091E-1,-2.822491646E0,3.357276770E0
4.143710852E0,-1.468701363E0,-8.162117004E-2,-2.912640572E0,3.263007939E0
4.148508769E0,-1.187302589E0,4.711542130E-1,-2.839384079E0,3.113482886E0
4.153306738E0,-7.087912560E-1,9.379272461E-1,-3.001164913E0,3.223210108E0
4.158104654E0,-2.518720627E-1,1.144751549E0,-3.089748621E0,3.304609233E0
4.162902623E0,1.823759079E-1,1.410238266E0,-2.889565229E0,3.220499985E0
4.167700540E0,5.907058716E-1,1.861317158E0,-2.392677069E0,3.088420072E0
4.172498509E0,1.005712748E0,2.311742306E0,-2.188405752E0,3.338372411E0
4.177296425E0,1.331137419E0,2.685347557E0,-2.082584143E0,3.649681499E0
4.182094394E0,1.561926603E0,3.085175991E0,-1.993378758E0,3.991426372E0
4.186892311E0,1.736259937E0,3.451534748E0,-1.668087721E0,4.208349716E0
4.191690279E0,2.143018961E0,3.834821224E0,-1.389073849E0,4.607375635E0
4.196488196E0,2.504337311E0,4.218453407E0,-1.268761635E0,5.067229085E0
4.201286113E0,2.729011297E0,4.781870842E0,-9.489961863E-1,5.586983549E0
4.206084081E0,2.952704430E0,5.431966782E0,-4.692949057E-1,6.200400332E0
4.210881998E0,3.260630846E0,6.171371460E0,1.368986070E-2,6.979808495E0
4.215679967E0,3.580228806E0,6.835372448E0,3.580296636E-1,7.724541413E0
4.220477884E0,3.915473938E0,7.436308861E0,4.466573596E-1,8.416004303E0
4.225275852E0,4.243638039E0,7.934105396E0,3.808239102E-1,9.005749224E0
4.230073769E0,4.491777897E0,8.362858772E0,3.104633093E-2,9.492862550E0
4.234871738E0,4.623634815E0,8.854249954E0,-2.662652135E-1,9.992328974E0
4.239669654E0,4.687248230E0,9.329188347E0,-4.290692210E-1,1.044931345E1
4.244467623E0,4.609309196E0,9.722731590E0,-6.100037694E-1,1.077726057E1
4.249265540E0,4.353066444E0,1.002229881E1,-7.494381070E-1,1.095250284E1
4.254063456E0,3.977752686E0,1.028212166E1,-9.979363680E-1,1.106979761E1
4.258861425E0,3.549743891E0,1.046079063E1,-1.257280588E0,1.111798439E1
4.263659342E0,3.094821453E0,1.067947483E1,-1.555812478E0,1.122718375E1
4.268457311E0,2.731858253E0,1.096609783E1,-1.885800600E0,1.145751260E1
4.273255227E0,2.385894775E0,1.123630524E1,-2.158556223E0,1.168787467E1
4.278053196E0,2.072772980E0,1.155889893E1,-2.431167603E0,1.199229370E1
4.282851113E0,1.839055181E0,1.179724312E1,-2.676920891E0,1.223613397E1
4.287649081E0,1.711929560E0,1.204679108E1,-2.890622854E0,1.250646147E1
4.292446998E0,1.567746162E0,1.224287224E1,-3.038370132E0,1.271131157E1
4.297244915E0,1.471597672E0,1.240944386E1,-3.272363186E0,1.291774970E1
4.302042884E0,1.416553736E0,1.254421234E1,-3.407918453E0,1.307584781E1
4.306840800E0,1.400194168E0,1.260432816E1,-3.397002935E0,1.312894744E1
4.311638769E0,1.422334671E0,1.264264202E1,-3.368411064E0,1.316076086E1
4.316436686E0,1.468410015E0,1.265699100E1,-3.362210035E0,1.317801600E1
4.321234654E0,1.538229108E0,1.262132263E1,-3.282043695E0,1.313147915E1
4.326032571E0,1.607547283E0,1.252397537E1,-3.151332617E0,1.301403337E1
4.330830540E0,1.699633360E0,1.243464661E1,-2.945812702E0,1.289135378E1
4.335628456E0,1.811550736E0,1.234401989E1,-2.808552742E0,1.278845228E1
4.340426373E0,1.968837619E0,1.224999046E1,-2.598377466E0,1.267636199E1
4.345224342E0,2.142041683E0,1.218150902E1,-2.398895741E0,1.259889699E1
4.350022259E0,2.359105110E0,1.218182373E1,-2.181320667E0,1.259842713E1
4.354820227E0,2.580673933E0,1.214370346E1,-1.694688082E0,1.253001913E1
4.359618144E0,2.880040646E0,1.216071796E1,-1.510227680E0,1.258802936E1
4.364416113E0,3.117648602E0,1.206346321E1,-1.249739885E0,1.252232915E1
4.369214029E0,3.336110115E0,1.188097095E1,-1.027644396E0,1.238318031E1
4.374011998E0,3.539876938E0,1.157044220E1,-8.055284023E-1,1.212661278E1
4.378809915E0,3.635300159E0,1.118233776E1,-5.643505454E-1,1.177194022E1
4.383607884E0,3.689149141E0,1.071673203E1,-3.117888570E-1,1.133822645E1
4.388405800E0,3.612770319E0,1.020948219E1,3.760099411E-3,1.082984996E1
4.393203769E0,3.530553818E0,9.689121246E0,2.974607944E-1,1.031660621E1
4.398001686E0,3.480817318E0,9.203223228E0,5.418950915E-1,9.854392791E0
4.402799654E0,3.418096066E0,8.720460892E0,7.737944722E-1,9.398328403E0
4.407597571E0,3.332818031E0,8.255023956E0,9.751892090E-1,8.955673651E0
4.412395488E0,3.301379204E0,7.804403305E0,1.218614101E0,8.561123520E0
4.417193456E0,3.287612438E0,7.397291183E0,1.450088382E0,8.223811082E0
4.421991373E0,3.284121275E0,6.971569061E0,1.551438689E0,7.860991651E0
4.426789342E0,3.242786407E0,6.398386002E0,1.565122128E0,7.341976191E0
4.431587259E0,3.149063826E0,5.651862144E0,1.407762766E0,6.621324995E0
4.436385227E0,2.928677559E0,4.727691650E0,1.185487032E0,5.686264159E0
4.441183144E0,2.651081562E0,3.702715397E0,8.206562400E-1,4.627289857E0
4.445981113E0,2.301725864E0,2.462608814E0,4.678131044E-1,3.403121101E0
4.450779029E0,1.887769699E0,1.014978409E0,8.104258776E-2,2.144859788E0
4.455576946E0,1.385234594E0,-8.237686157E-1,-3.875924945E-1,1.657618037E0
4.460374915E0,7.319471836E-1,-3.043467522E0,-9.401199818E-1,3.268373726E0
4.465172831E0,-5.041551590E-2,-5.612612724E0,-1.425880313E0,5.791122342E0
4.469970800E0,-8.997750282E-1,-8.420902252E0,-1.458972812E0,8.593590141E0
4.474768717E0,-1.737494946E0,-1.143469620E1,-1.143178344E0,1.162230711E1
4.479566686E0,-2.535147667E0,-1.441013241E1,-5.959197283E-1,1.464356548E1
4.484364602E0,-3.336136341E0,-1.699357986E1,2.619495094E-1,1.731993591E1
4.489162571E0,-3.959282398E0,-1.897019577E1,1.300497532E0,1.942255232E1
4.493960488E0,-4.171632767E0,-2.016314697E1,2.654920578E0,2.076062665E1
4.498758456E0,-4.049017906E0,-2.055093765E1,3.574873686E0,2.124888953E1
4.503556373E0,-4.044768333E0,-2.143849754E1,3.656857252E0,2.212107440E1
4.508354342E0,-4.627753258E0,-2.342458725E1,3.245512247E0,2.409690307E1
4.513152259E0,-5.598517895E0,-2.570027542E1,2.744141102E0,2.644575334E1
4.517950227E0,-6.370209694E0,-2.705642700E1,2.726540089E0,2.792962289E1
4.522748144E0,-6.294735909E0,-2.677519989E1,3.156704903E0,2.768573306E1
4.527546113E0,-5.701911449E0,-2.496671486E1,3.806484461E0,2.589088583E1
4.532344029E0,-5.211676598E0,-2.239155579E1,3.930467606E0,2.332363435E1
4.537141946E0,-5.178839684E0,-1.988665009E1,3.453282356E0,2.083805152E1
4.541939915E0,-5.511551380E0,-1.780342674E1,1.723827362E0,1.871659112E1
4.546737831E0,-6.246466637E0,-1.584531212E1,-6.121637821E-1,1.704309262E1
4.551535800E0,-6.898288727E0,-1.583890533E1,-1.096472859E0,1.731067770E1
4.556333717E0,-7.298049927E0,-1.728119659E1,-1.593671799E0,1.882660560E1
4.561131686E0,-7.508842945E0,-1.744244003E1,-2.211082458E0,1.911832425E1
4.565929602E0,-7.755603790E0,-1.711435318E1,-1.580821872E0,1.885601954E1
4.570727571E0,-8.359313965E0,-1.591013527E1,-1.969260216E0,1.808005863E1
4.575525488E0,-8.531032562E0,-1.455961704E1,-2.975671053E0,1.713521471E1
4.580323456E0,-8.352576256E0,-1.321572495E1,-3.956807137E0,1.612691039E1
4.585121373E0,-8.384750366E0,-1.232703018E1,-4.869871140E0,1.568360152E1
4.589919342E0,-8.297293663E0,-1.179129696E1,-6.003075123E0,1.561783202E1
4.594717259E0,-7.976108074E0,-1.070658016E1,-7.488931656E0,1.530794748E1
4.599515227E0,-8.313058853E0,-8.953659058E0,-8.480173111E0,1.487240041E1
4.604313144E0,-7.498237133E0,-7.096754074E0,-9.177213669E0,1.381335329E1
4.609111113E0,-7.217888355E0,-5.669043541E0,-1.041262245E1,1.388015394E1
4.613909029E0,-6.895287514E0,-3.995815277E0,-1.026622677E1,1.299642034E1
4.618706946E0,-6.209400177E0,-2.621889114E0,-8.175844193E0,1.059600780E1
4.623504915E0,-5.465819359E0,-1.620576859E0,-6.520906448E0,8.661620606E0
4.628302831E0,-4.673803329E0,-9.215517044E-1,-5.480949402E0,7.261852481E0
4.633100800E0,-3.962332249E0,-4.449367523E-1,-4.761953354E0,6.210816799E0
4.637898717E0,-3.361923456E0,-3.239822388E-2,-3.897355556E0,5.147131172E0
4.642696686E0,-2.816254139E0,4.833965302E-1,-3.065068245E0,4.190417989E0
4.647494602E0,-2.290751219E0,7.630500793E-1,-2.218215466E0,3.278759891E0
4.652292571E0,-1.712640524E0,8.931589127E-1,-1.679389358E0,2.559534923E0
4.657090488E0,-1.256598711E0,1.287228584E0,-1.323556423E0,2.233338164E0
4.661888404E0,-8.770341873E-1,1.581536770E0,-7.508789301E-1,1.958128363E0
4.666686373E0,-5.853686333E-1,1.909821510E0,-3.190831542E-1,2.022841738E0
4.671484290E0,-2.322826385E-1,2.393490314E0,-2.931052446E-2,2.404913765E0
4.676282259E0,8.996701241E-2,2.900519371E0,1.127242744E-1,2.904102864E0
4.681080175E0,3.342328072E-1,3.437847137E0,2.925428450E-1,3.466422627E0
4.685878144E0,6.133787632E-1,3.957527161E0,4.923508465E-1,4.034930494E0
4.690676061E0,8.919501305E-1,4.411689281E0,6.133242846E-1,4.542548187E0
4.695474029E0,1.186947346E0,4.855360031E0,6.694371700E-1,5.042966504E0
4.700271946E0,1.488962650E0,5.357873917E0,7.061478496E-1,5.605574678E0
4.705069915E0,1.769476414E0,5.871365547E0,6.735743284E-1,6.169090901E0
4.709867831E0,2.066642761E0,6.336178780E0,6.010682583E-1,6.691745429E0
4.714665800E0,2.335149288E0,6.800160408E0,5.130883455E-1,7.208214996E0
4.719463717E0,2.563178301E0,7.265686035E0,4.437235594E-1,7.717316059E0
4.724261686E0,2.839286089E0,7.649091721E0,4.007297456E-1,8.168888172E0
4.729059602E0,3.046245337E0,8.017429352E0,3.417909145E-1,8.583449487E0
4.733857571E0,3.272352457E0,8.354078293E0,2.437960058E-1,8.975430420E0
4.738655488E0,3.433626652E0,8.640089989E0,2.363880277E-1,9.300366998E0
4.743453456E0,3.599233866E0,8.882783890E0,2.387128621E-1,9.587247670E0
4.748251373E0,3.728329182E0,9.151608467E0,2.513126135E-1,9.885116795E0
4.753049290E0,3.863801718E0,9.377299309E0,2.530558705E-1,1.014528183E1
4.757847259E0,4.015005112E0,9.571943283E0,2.707436681E-1,1.038343230E1
4.762645175E0,4.129179478E0,9.797785759E0,3.047010303E-1,1.063670869E1
4.767443144E0,4.258923054E0,1.012411499E1,3.243273497E-1,1.098823544E1
4.772241061E0,4.356422901E0,1.038113499E1,3.635156453E-1,1.126403692E1
4.777039029E0,4.400216103E0,1.062152100E1,3.581887484E-1,1.150247405E1
4.781836946E0,4.409834385E0,1.084755707E1,4.355485141E-1,1.171775730E1
4.786634915E0,4.378604889E0,1.109016228E1,4.192152917E-1,1.193061698E1
4.791432831E0,4.333423615E0,1.130609417E1,3.577609360E-1,1.211339418E1
4.796230800E0,4.239109993E0,1.147602272E1,3.617372811E-1,1.223928122E1
4.801028717E0,4.124905109E0,1.166912556E1,3.455516994E-1,1.238154834E1
4.805826686E0,3.929071903E0,1.175379181E1,3.216466904E-1,1.239728537E1
4.810624602E0,3.821661472E0,1.175633335E1,3.475971818E-1,1.236678188E1
4.815422519E0,3.728662014E0,1.182255268E1,3.233317435E-1,1.240081512E1
4.820220488E0,3.514040947E0,1.183277130E1,2.802174687E-1,1.234671949E1
4.825018404E0,3.373919725E0,1.178463459E1,3.188222647E-1,1.226224263E1
4.829816373E0,3.207774639E0,1.172837734E1,3.052712083E-1,1.216297019E1
4.834614290E0,3.065597773E0,1.161146832E1,3.471367955E-1,1.201434934E1
4.839412259E0,2.911236525E0,1.147942734E1,4.080269337E-1,1.184985384E1
4.844210175E0,2.768387794E0,1.133945847E1,5.162549019E-1,1.168391238E1
4.849008144E0,2.622207165E0,1.113435078E1,6.259619594E-1,1.145607114E1
4.853806061E0,2.500854015E0,1.085478306E1,7.390376329E-1,1.116363573E1
4.858604029E0,2.430055618E0,1.058705330E1,8.334897161E-1,1.089429084E1
4.863401946E0,2.397182226E0,1.031464386E1,9.446591139E-1,1.063159167E1
4.868199915E0,2.354034185E0,1.005919933E1,1.124295354E0,1.039196845E1
4.872997831E0,2.302762508E0,9.811246872E0,1.314228892E0,1.016319231E1
4.877795800E0,2.255047083E0,9.551802635E0,1.559030533E0,9.937441679E0
4.882593717E0,2.287242413E0,9.300093651E0,1.817148924E0,9.748089555E0
4.887391686E0,2.334768772E0,9.058534622E0,2.059213161E0,9.578546527E0
4.892189602E0,2.316420794E0,8.906007767E0,2.193894863E0,9.460230140E0
4.896987571E0,2.229842186E0,8.682377815E0,2.342772961E0,9.265228861E0
4.901785488E0,2.185168266E0,8.449872971E0,2.453058481E0,9.066025010E0
4.906583456E0,2.120403051E0,8.220451355E0,2.684324026E0,8.903792734E0
4.911381373E0,2.086112261E0,8.013159752E0,2.904359341E0,8.774844543E0
4.916179290E0,1.965609312E0,7.837397099E0,3.091360092E0,8.651295884E0
4.920977259E0,1.852511406E0,7.609415531E0,3.178084612E0,8.451936171E0
4.925775175E0,1.689700365E0,7.324415207E0,3.229367495E0,8.181134387E0
4.930573144E0,1.482246161E0,6.932153225E0,3.131226540E0,7.749605258E0
4.935371061E0,1.165860653E0,6.363311768E0,2.846559286E0,7.067804998E0
4.940169029E0,8.004176617E-1,5.508103848E0,2.508128166E0,6.104963827E0
4.944966946E0,3.239531517E-1,4.433678150E0,2.245859146E0,4.980595435E0
4.949764915E0,-2.533645630E-1,3.161539078E0,1.935895443E0,3.715805984E0
4.954562831E0,-9.597320557E-1,1.538719177E0,1.550462008E0,2.385932682E0
4.959360800E0,-1.603549957E0,-4.154872894E-1,9.785429239E-1,1.923940853E0
4.964158717E0,-2.421288013E0,-2.818024635E0,3.387023807E-1,3.730766381E0
4.968956686E0,-3.256757736E0,-5.764559746E0,-5.050635934E-1,6.640158827E0
4.973754602E0,-4.113791466E0,-9.114275932E0,-1.306018353E0,1.008459171E1
4.978552571E0,-4.714424133E0,-1.231536961E1,-1.584393024E0,1.328173274E1
4.983350488E0,-5.014265060E0,-1.494506264E1,-1.279922128E0,1.581568690E1
4.988148404E0,-4.884215355E0,-1.656369209E1,-4.836257696E-1,1.727557088E1
4.992946373E0,-4.334443092E0,-1.719265175E1,7.627481818E-1,1.774701259E1
4.997744290E0,-3.810729504E0,-1.747924232E1,2.599911690E0,1.807775186E1
5.002542259E0,-3.952316761E0,-1.831858826E1,4.337843418E0,1.923560160E1
5.007340175E0,-4.938771725E0,-2.025101089E1,5.253553867E0,2.149638892E1
5.012138144E0,-6.427217484E0,-2.281257629E1,5.523530960E0,2.433582043E1
5.016936061E0,-7.716831207E0,-2.491449738E1,5.733296871E0,2.670491259E1
5.021734029E0,-8.312946320E0,-2.583343506E1,5.900552750E0,2.777207169E1
5.026531946E0,-8.239938736E0,-2.553603745E1,5.700398445E0,2.743137512E1
5.031329915E0,-7.901727200E0,-2.446554565E1,5.038083076E0,2.619890261E1
5.036127831E0,-7.594329357E0,-2.319657707E1,3.685802460E0,2.468481651E1
5.040925800E0,-7.401498795E0,-2.211853027E1,1.876476288E0,2.339941728E1
5.045723717E0,-7.242531300E0,-2.146417999E1,2.248117328E-1,2.265426721E1
5.050521686E0,-7.106880665E0,-2.116863441E1,-1.318369627E0,2.236865964E1
5.055319602E0,-6.976773739E0,-2.080332947E1,-2.831526041E0,2.212400119E1
5.060117571E0,-6.849905491E0,-1.998831558E1,-4.505698204E0,2.160451993E1
5.064915488E0,-6.897302628E0,-1.779861069E1,-6.830057621E0,2.027345587E1
5.069713456E0,-6.339780331E0,-1.624641418E1,-9.705478668E0,1.995833422E1
5.074511373E0,-5.163119316E0,-1.762728119E1,-9.832651138E0,2.083410357E1
5.079309342E0,-3.784609795E0,-1.939719772E1,-7.400474072E0,2.110311748E1
5.084107259E0,-2.851700306E0,-1.907030106E1,-5.273134708E0,1.999036084E1
5.088905227E0,-2.172530174E0,-1.659615898E1,-5.533885956E0,1.762884778E1
5.093703144E0,-2.261959553E0,-1.376664448E1,-5.641810894E0,1.504882026E1
5.098501113E0,-2.694358349E0,-1.148282909E1,-5.697447777E0,1.309869620E1
5.103299029E0,-2.926090717E0,-9.860385895E0,-5.607046604E0,1.171444358E1
5.108096998E0,-3.390017509E0,-8.242794037E0,-4.507789135E0,9.987794308E0
5.112894915E0,-2.562717915E0,-7.454884529E0,-4.235871792E0,8.949046669E0
5.117692884E0,-2.189152718E0,-7.356104851E0,-4.722262383E0,9.011350077E0
5.122490800E0,-2.644480228E0,-5.167688370E0,-3.772297621E0,6.923041825E0
5.127288717E0,-2.260574341E0,-3.521217346E0,-3.970731020E0,5.768524316E0
5.132086686E0,-1.786431789E0,-2.467900276E0,-4.613052368E0,5.528301951E0
5.136884602E0,-1.387148380E0,-1.210463524E0,-4.253404140E0,4.634743720E0
5.141682571E0,-1.198637486E0,3.304872513E-1,-4.010372639E0,4.198695315E0
5.146480488E0,-1.304339409E0,2.525817394E0,-3.052725792E0,4.171353445E0
5.151278456E0,-7.430262566E-1,3.252420902E0,-2.687405586E0,4.283979287E0
5.156076373E0,-2.833132744E-1,3.860521317E0,-2.633137226E0,4.681591919E0
5.160874342E0,1.453213692E-1,4.331876278E0,-2.380810261E0,4.945151958E0
5.165672259E0,6.269001961E-1,4.378582478E0,-2.053379059E0,4.876612957E0
5.170470227E0,1.027592182E0,4.308357716E0,-1.897582769E0,4.818579901E0
5.175268144E0,1.447980165E0,4.254099369E0,-1.767591000E0,4.828911466E0
5.180066113E0,1.919206619E0,4.229099751E0,-1.481670380E0,4.874831880E0
5.184864029E0,2.357929945E0,4.365993500E0,-1.195124626E0,5.103925522E0
5.189661998E0,2.671863556E0,4.600955486E0,-8.985904455E-1,5.395842014E0
5.194459915E0,2.924977303E0,5.041749001E0,-5.428725481E-1,5.854010233E0
5.199257884E0,3.196092844E0,5.580512047E0,-1.867954135E-1,6.433662775E0
5.204055800E0,3.391907692E0,6.109477043E0,1.921914816E-1,6.990542547E0
5.208853769E0,3.581854820E0,6.626128197E0,4.857358932E-1,7.547926748E0
5.213651686E0,3.772862911E0,7.025374413E0,5.646159649E-1,7.994321195E0
5.218449602E0,3.909920692E0,7.474569321E0,5.796154141E-1,8.455330885E0
5.223247571E0,4.022028923E0,7.999685764E0,4.999688864E-1,8.967812324E0
5.228045488E0,4.071241856E0,8.528668404E0,3.500012159E-1,9.457044773E0
5.232843456E0,4.077380180E0,9.049141884E0,6.129121780E-2,9.925510293E0
5.237641373E0,4.036508560E0,9.484195709E0,-3.671531081E-1,1.031397940E1
5.242439342E0,3.885126352E0,9.823865891E0,-8.718053102E-1,1.060012228E1
5.247237259E0,3.665177822E0,1.012505531E1,-1.348556876E0,1.085213708E1
5.252035227E0,3.487845421E0,1.047808838E1,-1.741463900E0,1.117980761E1
5.256833144E0,3.358977318E0,1.075818157E1,-2.164232731E0,1.147628436E1
5.261631113E0,3.238918304E0,1.107266045E1,-2.610727310E0,1.182836837E1
5.266429029E0,3.166601181E0,1.139266491E1,-2.953214645E0,1.218776655E1
5.271226998E0,3.144999504E0,1.170616150E1,-3.248197079E0,1.254894510E1
5.276024915E0,3.121867657E0,1.194391537E1,-3.423114061E0,1.281096725E1
5.280822884E0,3.133285046E0,1.215633297E1,-3.549056053E0,1.304567765E1
5.285620800E0,3.121864319E0,1.228868389E1,-3.627869129E0,1.318784376E1
5.290418769E0,3.077949047E0,1.231739616E1,-3.616204023E0,1.320109655E1
5.295216686E0,3.003683090E0,1.232649994E1,-3.492442608E0,1.315909831E1
5.300014654E0,2.989670753E0,1.236639500E1,-3.423949718E0,1.317532877E1
5.304812571E0,2.915927410E0,1.232493401E1,-3.241104603E0,1.307330830E1
5.309610540E0,2.824922562E0,1.224545765E1,-2.963675022E0,1.291180817E1
5.314408456E0,2.744617462E0,1.212350845E1,-2.594595432E0,1.269820096E1
5.319206373E0,2.679373741E0,1.201429176E1,-2.403929472E0,1.254197461E1
5.324004342E0,2.619324446E0,1.186054707E1,-2.183433533E0,1.234102181E1
5.328802311E0,2.544981956E0,1.174129295E1,-1.949965239E0,1.217116501E1
5.333600227E0,2.487333059E0,1.163254642E1,-1.706053972E0,1.201722024E1
5.338398144E0,2.424650908E0,1.144106960E1,-1.499691725E0,1.179093215E1
5.343196113E0,2.383083820E0,1.122669125E1,-1.340383887E0,1.155483941E1
5.347994081E0,2.336031437E0,1.100616646E1,-1.187634468E0,1.131385074E1
5.352791998E0,2.293023586E0,1.081279945E1,-9.941190481E-1,1.109787646E1
5.357589967E0,2.261082172E0,1.059386158E1,-8.058821559E-1,1.086240497E1
5.362387884E0,2.261502266E0,1.035643578E1,-6.141959429E-1,1.061825744E1
5.367185800E0,2.298755646E0,1.010765457E1,-3.935592175E-1,1.037322743E1
5.371983769E0,2.305704594E0,9.911983490E0,-2.522460222E-1,1.017975041E1
5.376781686E0,2.334742546E0,9.678525925E0,-1.261039376E-1,9.956946773E0
5.381579654E0,2.335571766E0,9.483737946E0,-1.078379154E-2,9.767102804E0
5.386377571E0,2.303636074E0,9.317848206E0,7.895976305E-2,9.598711840E0
5.391175540E0,2.286864281E0,9.152030945E0,1.235659122E-1,9.434229549E0
5.395973456E0,2.297411203E0,8.971816063E0,1.396668255E-1,9.262347895E0
5.400771425E0,2.321353197E0,8.810466766E0,9.377053380E-2,9.111629833E0
5.405569342E0,2.330711842E0,8.725009918E0,4.576206207E-2,9.031063610E0
5.410367311E0,2.390561819E0,8.645830154E0,1.490208507E-2,8.970250105E0
5.415165227E0,2.534842968E0,8.536849022E0,-2.044297755E-2,8.905259009E0
5.419963196E0,2.766083956E0,8.374116898E0,-5.051295459E-2,8.819274677E0
5.424761113E0,3.046068192E0,8.193504333E0,-1.682730466E-1,8.743017815E0
5.429559081E0,3.343356609E0,7.923451900E0,-3.256655633E-1,8.606113031E0
5.434356998E0,3.657207251E0,7.440056801E0,-5.366741419E-1,8.307684949E0
5.439154967E0,3.898516178E0,6.803522110E0,-8.505634665E-1,7.887318917E0
5.443952884E0,3.894899368E0,5.861113071E0,-1.284639120E0,7.153543541E0
5.448750852E0,3.658303261E0,4.644174576E0,-1.753174782E0,6.166454577E0
5.453548769E0,3.258504391E0,3.114425182E0,-2.227774620E0,5.027969256E0
5.458346738E0,2.658010006E0,1.314645290E0,-2.598796368E0,3.942975018E0
5.463144654E0,1.975051045E0,-8.082580566E-1,-2.797548771E0,3.518577389E0
5.467942623E0,1.158450484E0,-3.264562607E0,-2.982519627E0,4.571083008E0
5.472740540E0,1.603734493E-1,-6.060124397E0,-2.959036350E0,6.745867140E0
5.477538509E0,-6.983242035E-1,-8.937911034E0,-2.475264549E0,9.300583042E0
5.482336425E0,-1.157462835E0,-1.146363258E1,-1.392813802E0,1.160579694E1
5.487134394E0,-1.205073595E0,-1.310413265E1,1.630723476E-1,1.316043645E1
5.491932311E0,-9.439129829E-1,-1.366212845E1,1.795231938E0,1.381186386E1
5.496730279E0,-3.961787224E-1,-1.362770557E1,3.435966492E0,1.405977178E1
5.501528196E0,1.755797863E-1,-1.373404408E1,4.667247295E0,1.450648104E1
5.506326113E0,3.997828960E-1,-1.479532433E1,5.132182121E0,1.566527183E1
5.511124081E0,1.203966141E-1,-1.727717400E1,4.510606766E0,1.785667410E1
5.515921998E0,-4.173560143E-1,-2.054889107E1,3.234663963E0,2.080610874E1
5.520719967E0,-5.764696598E-1,-2.308022308E1,2.047382593E0,2.317802387E1
5.525517884E0,-8.883738518E-2,-2.381824493E1,1.481238127E0,2.386442436E1
5.530315852E0,1.047252893E0,-2.301347351E1,1.072668433E0,2.306224879E1
5.535113769E0,2.269228458E0,-2.143730927E1,7.678077221E-1,2.157074767E1
5.539911738E0,3.230845690E0,-1.985608292E1,1.319254637E-1,2.011764889E1
5.544709654E0,3.640157461E0,-1.857242775E1,-7.963490486E-1,1.894254446E1
5.549507623E0,3.474419594E0,-1.767888069E1,-2.246749640E0,1.815660480E1
5.554305540E0,2.821835041E0,-1.711968994E1,-3.712575436E0,1.774344254E1
5.559103509E0,1.726292014E0,-1.679836273E1,-4.918299675E0,1.758848334E1
5.563901425E0,3.781197071E-1,-1.642218399E1,-6.018060207E0,1.749423191E1
5.568699394E0,-1.044490814E0,-1.583700180E1,-7.102447033E0,1.738810918E1
5.573497311E0,-2.370819330E0,-1.493156338E1,-8.183872223E0,1.719151342E1
5.578295279E0,-3.639223099E0,-1.302859879E1,-9.523836136E0,1.654363279E1
5.583093196E0,-4.534254551E0,-1.064173412E1,-1.143877125E1,1.626811166E1
5.587891165E0,-5.221174240E0,-1.087794971E1,-9.465799332E0,1.533596451E1
5.592689081E0,-4.677662849E0,-1.258041668E1,-8.092592239E0,1.567282561E1
5.597487050E0,-5.102978230E0,-1.301904488E1,-5.989553928E0,1.521218829E1
5.602284967E0,-5.463950157E0,-1.278025818E1,-4.015437603E0,1.446767050E1
5.607082936E0,-5.007129669E0,-1.257685661E1,-4.977121353E0,1.442291256E1
5.611880852E0,-5.225097656E0,-1.188360786E1,-3.584863663E0,1.346748042E1
5.616678821E0,-5.635382652E0,-1.128466129E1,-2.019263268E0,1.277413568E1
5.621476738E0,-5.556603432E0,-1.074190235E1,-6.315947771E-1,1.211045911E1
5.626274706E0,-4.251978397E0,-1.004253483E1,-1.503439665E0,1.100873094E1
5.631072623E0,-3.245769262E0,-1.024472809E1,-1.301083088E0,1.082507685E1
5.635870592E0,-2.583239079E0,-9.604848862E0,-3.845484257E-1,9.953598509E0
5.640668509E0,-2.336823463E0,-8.214653969E0,5.756967068E-1,8.559948039E0
5.645466477E0,-1.892161369E0,-7.393700600E0,1.071336389E0,7.706805101E0
5.650264394E0,-1.355240583E0,-6.705731392E0,1.429992437E0,6.989162247E0
5.655062363E0,-1.000785828E0,-5.784593582E0,1.774172902E0,6.132763217E0
5.659860279E0,-7.733538151E-1,-4.878748894E0,1.906156301E0,5.294685896E0
5.664658248E0,-4.983825684E-1,-4.021241188E0,1.705543041E0,4.396321524E0
5.669456165E0,-1.570720673E-1,-3.199532509E0,1.579977989E0,3.571835712E0
5.674254134E0,1.498959064E-1,-2.382053375E0,1.506858706E0,2.822635334E0
5.679052050E0,3.868377209E-1,-1.370179176E0,1.475989342E0,2.050750822E0
5.683850019E0,5.563788414E-1,-2.882843018E-1,1.456152558E0,1.585258820E0
5.688647936E0,7.068867683E-1,7.606763840E-1,1.395214558E0,1.739235788E0
5.693445904E0,8.289713860E-1,1.750384808E0,1.329617262E0,2.349238727E0
5.698243821E0,9.444288015E-1,2.699777126E0,1.222262621E0,3.110412868E0
5.703041790E0,1.038953900E0,3.522679806E0,1.059848428E0,3.822561564E0
5.707839706E0,1.181775808E0,4.295531750E0,8.626400232E-1,4.537877795E0
5.712637675E0,1.260352731E0,4.987112522E0,6.557869911E-1,5.185541138E0
5.717435592E0,1.389061213E0,5.587813854E0,4.046794176E-1,5.772081094E0
5.722233509E0,1.515135169E0,6.166805744E0,1.704241037E-1,6.352493372E0
5.727031477E0,1.604996920E0,6.661798477E0,-7.707691193E-2,6.852847212E0
5.731829446E0,1.627602220E0,7.098943710E0,-2.936227322E-1,7.289053786E0
5.736627363E0,1.587751508E0,7.473386765E0,-4.330488443E-1,7.652450319E0
5.741425279E0,1.576394916E0,7.780348778E0,-4.640790224E-1,7.951994553E0
5.746223248E0,1.562501550E0,8.043763161E0,-4.679383039E-1,8.207466304E0
5.751021165E0,1.572348714E0,8.325812340E0,-4.063580036E-1,8.482721168E0
5.755819134E0,1.598837495E0,8.659897804E0,-3.032920361E-1,8.811475323E0
5.760617050E0,1.618126988E0,8.940715790E0,-1.919195652E-1,9.087990257E0
5.765415019E0,1.632675886E0,9.263881683E0,-4.104137421E-2,9.406743261E0
5.770212988E0,1.623449683E0,9.538490295E0,1.350585222E-1,9.676602027E0
5.775010904E0,1.671867967E0,9.836254120E0,3.291895390E-1,9.982755299E0
5.779808821E0,1.718353987E0,1.009495258E1,5.555893183E-1,1.025521758E1
5.784606790E0,1.724965811E0,1.034325314E1,7.997130156E-1,1.051655521E1
5.789404706E0,1.742261171E0,1.050220203E1,9.731165171E-1,1.069012055E1
5.794202675E0,1.734528184E0,1.057663345E1,1.099823713E0,1.077419953E1
5.799000592E0,1.711567044E0,1.058805943E1,1.196782589E0,1.079206897E1
5.803798561E0,1.716419220E0,1.060340595E1,1.290605545E0,1.081868640E1
5.808596477E0,1.727489829E0,1.055323410E1,1.350892186E0,1.077867714E1
5.813394446E0,1.730263233E0,1.049258041E1,1.452032685E0,1.073296108E1
5.818192363E0,1.774897099E0,1.041180325E1,1.534681559E0,1.067291685E1
5.822990331E0,1.793908715E0,1.026801014E1,1.601485491E0,1.054584736E1
5.827788248E0,1.861056805E0,1.011390114E1,1.659867525E0,1.041679840E1
5.832586217E0,1.947023988E0,9.971163750E0,1.755242944E0,1.030998966E1
5.837384134E0,1.998715162E0,9.820809364E0,1.894709229E0,1.019966087E1
5.842182102E0,2.058850765E0,9.749038696E0,2.046825409E0,1.017212447E1
5.846980019E0,2.105660439E0,9.679408073E0,2.211251736E0,1.014960003E1
5.851777988E0,2.141317844E0,9.573846817E0,2.380297899E0,1.009502863E1
5.856575904E0,2.151484489E0,9.470762253E0,2.586798668E0,1.005065921E1
5.861373873E0,2.126629353E0,9.403705597E0,2.746596098E0,1.002477040E1
5.866171790E0,2.066933870E0,9.358360291E0,2.904621601E0,1.001438713E1
5.870969759E0,2.010909557E0,9.308484077E0,3.108037233E0,1.001756101E1
5.875767675E0,1.899227500E0,9.239754677E0,3.332241058E0,1.000419722E1
5.880565644E0,1.777808070E0,9.173713684E0,3.535956383E0,9.991026566E0
5.885363561E0,1.644691229E0,9.079277039E0,3.692446709E0,9.938432647E0
5.890161529E0,1.524194717E0,8.970840454E0,3.817931175E0,9.867915000E0
5.894959446E0,1.383297920E0,8.855551720E0,3.967034340E0,9.801615726E0
5.899757415E0,1.284575462E0,8.740550041E0,4.091594696E0,9.735938388E0
5.904555331E0,1.170939445E0,8.630578041E0,4.157970905E0,9.651253730E0
5.909353300E0,1.099960566E0,8.492162704E0,4.189951897E0,9.533228076E0
5.914151217E0,1.035913229E0,8.332464218E0,4.228181839E0,9.401095565E0
5.918949186E0,9.929945469E-1,8.149145126E0,4.248859882E0,9.243777083E0
5.923747102E0,9.471750259E-1,7.915915966E0,4.214021206E0,9.017585089E0
5.928545071E0,9.674088955E-1,7.664038658E0,4.152411461E0,8.770170435E0
5.933342988E0,9.863524437E-1,7.379251480E0,4.085824966E0,8.492361816E0
5.938140956E0,9.798030853E-1,7.068791389E0,4.036087036E0,8.198647715E0
5.942938873E0,9.380450249E-1,6.711174965E0,3.938919544E0,7.838040894E0
5.947736842E0,8.896923065E-1,6.318398476E0,3.849523544E0,7.452016050E0
5.952534759E0,8.348078728E-1,5.739902496E0,3.782295227E0,6.924531900E0
5.957332727E0,7.398378849E-1,4.999832153E0,3.777907372E0,6.310171611E0
5.962130644E0,5.470952988E-1,4.091325760E0,3.771892071E0,5.591549833E0
5.966928613E0,3.112468719E-1,3.041038036E0,3.740378857E0,4.830654298E0
5.971726529E0,3.427433968E-2,1.830292702E0,3.687889576E0,4.117241264E0
5.976524498E0,-3.225595951E-1,3.066234589E-1,3.650080681E0,3.677111858E0
5.981322415E0,-6.308071613E-1,-1.507744789E0,3.607680559E0,3.960627607E0
5.986120384E0,-9.603099823E-1,-3.399508476E0,3.574866295E0,5.025785726E0
5.990918300E0,-1.287717581E0,-5.373027802E0,3.486775875E0,6.533395008E0
5.995716269E0,-1.544416904E0,-7.219826698E0,3.421667099E0,8.137501267E0
6.000514186E0,-1.664629459E0,-8.669372559E0,3.414452553E0,9.465067249E0
6.005312154E0,-1.645282030E0,-9.649631500E0,3.339848518E0,1.034296520E1
6.010110071E0,-1.638518810E0,-1.033725548E1,3.337760925E0,1.098563802E1
6.014908040E0,-1.599232674E0,-1.088041973E1,3.382635593E0,1.150579429E1
6.019705956E0,-1.741910458E0,-1.131526089E1,3.334194183E0,1.192418684E1
6.024503925E0,-2.089271307E0,-1.181903362E1,2.918243408E0,1.235195349E1
6.029301842E0,-2.563424826E0,-1.238980770E1,2.176848888E0,1.283811329E1
6.034099811E0,-3.165288687E0,-1.301878738E1,1.355915666E0,1.346649118E1
6.038897727E0,-3.943489313E0,-1.370463181E1,3.842103481E-1,1.426589144E1
6.043695696E0,-4.731064796E0,-1.427905369E1,-7.629203796E-1,1.506175275E1
6.048493613E0,-5.348676682E0,-1.456702232E1,-1.889736414E0,1.563258089E1
6.053291581E0,-5.777288437E0,-1.440324593E1,-2.871703148E0,1.578218090E1
6.058089498E0,-5.902336121E0,-1.386869335E1,-3.834519386E0,1.555254853E1
6.062887467E0,-5.860847473E0,-1.318006420E1,-4.540049553E0,1.512202617E1
6.067685384E0,-5.756926537E0,-1.253421688E1,-5.288041115E0,1.477200646E1
6.072483352E0,-5.626139641E0,-1.204592705E1,-5.902974606E0,1.454657743E1
6.077281269E0,-5.485810757E0,-1.188671875E1,-6.131163597E0,1.445611875E1
6.082079238E0,-5.402439117E0,-1.211976051E1,-6.228919983E0,1.465859432E1
6.086877154E0,-5.237726212E0,-1.260466099E1,-6.335754871E0,1.504835686E1
6.091675123E0,-4.978045464E0,-1.332293987E1,-5.970979214E0,1.542511771E1
6.096473040E0,-4.762634277E0,-1.405305004E1,-5.420020580E0,1.579707327E1
6.101271009E0,-5.153279305E0,-1.461686134E1,-4.256677151E0,1.607259231E1
6.106068925E0,-4.836115837E0,-1.452400208E1,-4.419601917E0,1.593322107E1
6.110866894E0,-4.318007469E0,-1.487623692E1,-4.747294426E0,1.620137086E1
6.115664811E0,-4.053823471E0,-1.500831509E1,-4.418765545E0,1.616194590E1
6.120462779E0,-4.033535480E0,-1.473650360E1,-3.820796490E0,1.574904545E1
6.125260696E0,-4.095993042E0,-1.421933174E1,-3.853243828E0,1.529097911E1
6.130058665E0,-4.080278397E0,-1.376809978E1,-3.950029850E0,1.489335353E1
6.134856581E0,-4.051779747E0,-1.320173454E1,-3.706769466E0,1.429835144E1
6.139654550E0,-4.101778984E0,-1.232275963E1,-3.469844818E0,1.344302119E1
6.144452467E0,-4.114589214E0,-1.154773617E1,-3.123523235E0,1.265055147E1
6.149250436E0,-4.097037315E0,-1.078585911E1,-2.659634590E0,1.184036011E1
6.154048352E0,-4.081917286E0,-9.819839478E0,-2.311795235E0,1.088281642E1
6.158846321E0,-4.005998611E0,-8.662141800E0,-2.156031609E0,9.784129892E0
6.163644238E0,-3.873408079E0,-7.564054489E0,-1.875928640E0,8.702719042E0
6.168442206E0,-3.671656132E0,-6.489745140E0,-1.479703903E0,7.601800732E0
6.173240123E0,-3.488756180E0,-5.305430412E0,-1.025270700E0,6.431966383E0
6.178038092E0,-3.288495541E0,-4.176218987E0,-6.224243045E-1,5.351861355E0
6.182836009E0,-3.008907080E0,-3.161701202E0,-2.756441832E-1,4.373311791E0
6.187633977E0,-2.681734324E0,-2.297366142E0,-3.957748413E-2,3.531452470E0
6.192431894E0,-2.322061777E0,-1.542157173E0,1.793951392E-1,2.793278049E0
6.197229863E0,-1.997695446E0,-8.000383377E-1,3.932995200E-1,2.187586101E0
6.202027779E0,-1.711747885E0,-1.815128326E-2,6.190488338E-1,1.820338361E0
6.206825748E0,-1.453019142E0,7.487325668E-1,6.992976665E-1,1.777887035E0
6.211623665E0,-1.179015398E0,1.464969635E0,7.060749531E-1,2.008670003E0
6.216421634E0,-9.213581085E-1,2.145133972E0,6.969777346E-1,2.436447924E0
6.221219550E0,-7.111372948E-1,2.868127823E0,6.961681843E-1,3.035872791E0
6.226017519E0,-5.838642120E-1,3.662470341E0,7.420104742E-1,3.782217069E0
6.230815436E0,-5.246007442E-1,4.460968494E0,7.462548018E-1,4.553278168E0
6.235613404E0,-4.301714897E-1,5.230014801E0,7.307735085E-1,5.298314095E0
6.240411321E0,-3.409917355E-1,5.924147606E0,7.410677075E-1,5.980048626E0
6.245209290E0,-2.639927864E-1,6.579232216E0,7.532272339E-1,6.627468597E0
6.250007206E0,-1.941020489E-1,7.188072205E0,7.838530540E-1,7.233289932E0
6.254805175E0,-1.358227730E-1,7.812797546E0,8.279784918E-1,7.857722425E0
6.259603092E0,-7.678222656E-2,8.338580132E0,8.470976353E-1,8.381848753E0
6.264401061E0,-1.399517059E-4,8.798995018E0,8.792830110E-1,8.842819231E0
6.269198977E0,1.061856747E-1,9.239491463E0,9.077430964E-1,9.284582673E0
6.273996946E0,1.707046032E-1,9.648085594E0,9.109189510E-1,9.692495501E0
6.278794863E0,2.295162678E-1,1.002475643E1,9.055805206E-1,1.006819226E1
6.283592831E0,2.853155136E-1,1.036465740E1,9.062325954E-1,1.040811153E1
6.288390748E0,3.453292847E-1,1.063675117E1,8.865779638E-1,1.067922040E1
6.293188717E0,4.571805000E-1,1.081007957E1,8.803666830E-1,1.085549998E1
6.297986634E0,6.039338112E-1,1.093734169E1,9.261820316E-1,1.099308839E1
6.302784602E0,8.041477203E-1,1.104502964E1,9.811203480E-1,1.111764051E1
6.307582519E0,9.785377979E-1,1.119058037E1,1.045603156E0,1.128183988E1
6.312380488E0,1.155376554E0,1.132386875E1,1.143763423E0,1.143997785E1
6.317178404E0,1.396520972E0,1.149272346E1,1.245060205E0,1.164401728E1
6.321976373E0,1.574879885E0,1.163500595E1,1.302221417E0,1.181310250E1
6.326774290E0,1.740649223E0,1.173635292E1,1.361315131E0,1.194257169E1
6.331572259E0,1.884215355E0,1.183259678E1,1.406223655E0,1.206391640E1
6.336370175E0,1.936360121E0,1.184958267E1,1.504260182E0,1.210061563E1
6.341168144E0,1.983434677E0,1.183991051E1,1.609909654E0,1.211236158E1
6.345966061E0,2.030336142E0,1.173667622E1,1.739684343E0,1.203737243E1
6.350764029E0,2.065086365E0,1.164039803E1,1.895692825E0,1.197318250E1
6.355561946E0,2.092269897E0,1.149862385E1,2.019955397E0,1.186069827E1
6.360359915E0,2.104544640E0,1.137367821E1,2.169289351E0,1.176841027E1
6.365157831E0,2.084953785E0,1.118444633E1,2.333471298E0,1.161395542E1
6.369955800E0,2.045077324E0,1.099102497E1,2.480504036E0,1.145154450E1
6.374753717E0,2.025319576E0,1.077447319E1,2.593069553E0,1.126566472E1
6.379551686E0,2.003892422E0,1.054934311E1,2.696889400E0,1.107146952E1
6.384349602E0,2.014071703E0,1.033971786E1,2.765031576E0,1.089089757E1
6.389147571E0,1.960012555E0,1.017918968E1,2.873509884E0,1.075707260E1
6.393945488E0,1.913434148E0,1.003194904E1,2.981224537E0,1.063902870E1
6.398743456E0,1.857630253E0,9.900362968E0,3.059502125E0,1.052751302E1
6.403541373E0,1.771161914E0,9.743745804E0,3.103716850E0,1.037837440E1
6.408339342E0,1.694887757E0,9.705373764E0,3.143075943E0,1.034146270E1
6.413137259E0,1.619619250E0,9.648673058E0,3.077688217E0,1.025632600E1
6.417935227E0,1.478923917E0,9.602085114E0,3.054078102E0,1.018403886E1
6.422733144E0,1.345027924E0,9.539058685E0,3.029808521E0,1.009863755E1
6.427531113E0,1.196541190E0,9.421234131E0,2.998307705E0,9.958976477E0
6.432329029E0,1.057697415E0,9.348875046E0,2.981576443E0,9.869649767E0
6.437126998E0,9.263023138E-1,9.223843575E0,2.953525305E0,9.729369866E0
6.441924915E0,7.689484358E-1,9.070063591E0,3.012281179E0,9.588074528E0
6.446722884E0,6.407968998E-1,8.856470108E0,3.131360769E0,9.415577715E0
6.451520800E0,5.299518108E-1,8.621388435E0,3.257885456E0,9.231630686E0
6.456318769E0,3.694155216E-1,8.391219139E0,3.401008844E0,9.061781703E0
6.461116686E0,3.075702190E-1,8.122954369E0,3.565160751E0,8.876224327E0
6.465914654E0,1.983513832E-1,7.804835320E0,3.747374058E0,8.660116048E0
6.470712571E0,1.517813206E-1,7.448973179E0,3.999548435E0,8.456159097E0
6.475510540E0,1.032447815E-1,7.098546028E0,4.222976685E0,8.260359997E0
6.480308456E0,8.135485649E-2,6.739326477E0,4.362142563E0,8.028289215E0
6.485106425E0,1.665568352E-2,6.376220703E0,4.438120842E0,7.768744073E0
6.489904342E0,-4.077672958E-2,5.892260551E0,4.517361641E0,7.424752746E0
6.494702311E0,-8.407878876E-2,5.223196983E0,4.448936462E0,6.861624561E0
6.499500227E0,-2.904162407E-1,4.230659008E0,4.025425911E0,5.846953993E0
6.504298196E0,-7.962148190E-1,2.714303970E0,3.243029833E0,4.303329708E0
6.509096113E0,-1.603977203E0,6.126480103E-1,2.217585564E0,2.804597330E0
6.513894081E0,-2.640097618E0,-2.235969543E0,9.714427590E-1,3.593518647E0
6.518691998E0,-3.797987223E0,-5.710950851E0,-5.301342010E-1,6.879004931E0
6.523489967E0,-5.018065453E0,-9.417325020E0,-1.898477316E0,1.083841352E1
6.528287884E0,-6.091443062E0,-1.267655754E1,-2.761882305E0,1.433278701E1
6.533085852E0,-6.668225288E0,-1.473208427E1,-3.074557781E0,1.646063307E1
6.537883769E0,-6.517635345E0,-1.528666306E1,-3.006285667E0,1.688784745E1
6.542681738E0,-5.756523609E0,-1.432742596E1,-2.587082148E0,1.565585171E1
6.547479654E0,-4.717993736E0,-1.258723068E1,-1.671652675E0,1.354593163E1
6.552277623E0,-3.874404669E0,-1.078628159E1,-8.543733358E-1,1.149281670E1
6.557075540E0,-3.569586039E0,-9.691973686E0,-5.210080147E-1,1.034155442E1
6.561873509E0,-3.861317158E0,-9.944538116E0,-8.379496336E-1,1.070073680E1
6.566671425E0,-4.501711845E0,-1.151924706E1,-1.447805166E0,1.245209228E1
6.571469394E0,-4.972392559E0,-1.338979912E1,-2.104931593E0,1.443752559E1
6.576267311E0,-4.946555614E0,-1.451155758E1,-2.578512669E0,1.554678241E1
6.581065279E0,-4.476605415E0,-1.467726898E1,-2.684675455E0,1.557785939E1
6.585863196E0,-3.844543695E0,-1.449001884E1,-2.584512949E0,1.521252344E1
6.590661165E0,-3.422273874E0,-1.405050087E1,-2.419108629E0,1.466221742E1
6.595459081E0,-3.129002094E0,-1.385384846E1,-2.418559313E0,1.440726207E1
6.600257050E0,-3.031728983E0,-1.382833195E1,-2.643885374E0,1.440153724E1
6.605054967E0,-3.053531408E0,-1.372785854E1,-3.031429768E0,1.438637274E1
6.609852936E0,-3.115051508E0,-1.369845104E1,-3.319848299E0,1.443511342E1
6.614650904E0,-3.306471586E0,-1.369709873E1,-3.655075073E0,1.455688297E1
6.619448821E0,-3.712196589E0,-1.331532574E1,-4.035309315E0,1.440007029E1
6.624246790E0,-4.312111855E0,-1.242512703E1,-4.719705582E0,1.397332141E1
6.629044706E0,-5.022157669E0,-1.082265091E1,-6.003013611E0,1.335619754E1
6.633842675E0,-5.087228775E0,-1.087955666E1,-7.564252853E0,1.419375112E1
6.638640592E0,-4.119984627E0,-1.414538765E1,-6.675750732E0,1.617503981E1
6.643438561E0,-3.033060312E0,-1.640104485E1,-4.728415012E0,1.733642510E1
6.648236477E0,-2.588340998E0,-1.640645981E1,-3.158302307E0,1.690698986E1
6.653034446E0,-2.522759199E0,-1.566511917E1,-2.537203789E0,1.606853060E1
6.657832363E0,-2.755951881E0,-1.493109608E1,-1.973844051E0,1.531107316E1
6.662630331E0,-2.811158419E0,-1.478307819E1,-1.137073398E0,1.509088958E1
6.667428248E0,-2.724668026E0,-1.498144722E1,-3.397321701E-1,1.523098797E1
6.672226217E0,-2.650062323E0,-1.485660267E1,5.162607431E-1,1.509993372E1
6.677024134E0,-2.602185488E0,-1.452351856E1,1.454034567E0,1.482626646E1
6.681822102E0,-2.284633160E0,-1.398948383E1,1.901122570E0,1.430172974E1
6.686620019E0,-1.913500309E0,-1.300636768E1,2.174758434E0,1.332503876E1
6.691417988E0,-1.799217463E0,-1.162044525E1,2.558671236E0,1.203406539E1
6.696215904E0,-1.879252434E0,-1.019093990E1,3.012332916E0,1.079170957E1
6.701013873E0,-1.967350245E0,-8.854234695E0,3.361938715E0,9.673188252E0
6.705811790E0,-1.956767797E0,-7.593484879E0,3.434219122E0,8.560596579E0
6.710609759E0,-1.868180990E0,-6.451469421E0,3.419501305E0,7.536879134E0
6.715407675E0,-1.808715105E0,-5.294009209E0,3.364911079E0,6.528446247E0
6.720205644E0,-1.713258028E0,-4.147214890E0,3.408061743E0,5.634672063E0
6.725003561E0,-1.617366076E0,-3.001338959E0,3.464439392E0,4.860683992E0
6.729801529E0,-1.460881948E0,-1.885055542E0,3.423986912E0,4.172684608E0
6.734599446E0,-1.265221596E0,-8.773574829E-1,3.280633926E0,3.623962030E0
6.739397415E0,-1.121299744E0,-3.812503815E-2,3.062439919E0,3.261488140E0
6.744195331E0,-1.000641346E0,6.564722061E-1,2.780851364E0,3.027436733E0
6.748993300E0,-8.442883492E-1,1.259044647E0,2.471137047E0,2.899057527E0
6.753791217E0,-6.125674248E-1,1.853232861E0,2.123156309E0,2.884008252E0
6.758589186E0,-3.687634468E-1,2.446194172E0,1.716951966E0,3.011274890E0
6.763387102E0,-9.732198715E-2,2.994976997E0,1.356681585E0,3.289368284E0
6.768185071E0,2.171788216E-1,3.480673313E0,1.117512226E0,3.662115090E0
6.772982988E0,5.711340904E-1,3.999188423E0,9.425787926E-1,4.148271565E0
6.777780956E0,9.156476259E-1,4.605651379E0,8.493508697E-1,4.771984084E0
6.782578873E0,1.268921137E0,5.252408981E0,7.496951222E-1,5.455273021E0
6.787376842E0,1.637193561E0,5.927720547E0,6.297544837E-1,6.181817236E0
6.792174811E0,1.941042542E0,6.631754398E0,5.494302511E-1,6.931788092E0
6.796972727E0,2.156621456E0,7.350194931E0,5.851705074E-1,7.682369827E0
6.801770644E0,2.329845905E0,8.051919937E0,6.265587807E-1,8.405603638E0
6.806568613E0,2.447213650E0,8.703313828E0,6.613935232E-1,9.064985804E0
6.811366581E0,2.528691530E0,9.268378258E0,6.299129725E-1,9.627767485E0
6.816164498E0,2.524979353E0,9.763671875E0,5.731049180E-1,1.010115134E1
6.820962415E0,2.456099033E0,1.017230225E1,4.481444359E-1,1.047420588E1
6.825760384E0,2.258757830E0,1.057283974E1,1.193727851E-1,1.081208476E1
6.830558352E0,2.292931557E0,1.084299564E1,2.179253697E-1,1.108492585E1
6.835356269E0,2.388803005E0,1.085617447E1,7.706165314E-3,1.111588788E1
6.840154238E0,2.502986431E0,1.083497715E1,-2.425224781E-1,1.112297119E1
6.844952154E0,2.611009598E0,1.081543159E1,-3.936052322E-1,1.113309736E1
6.849750123E0,2.750402451E0,1.080491543E1,-4.118667245E-1,1.115708498E1
6.854548040E0,2.908476114E0,1.079886055E1,-4.263147116E-1,1.119179908E1
6.859346009E0,3.029416800E0,1.078798103E1,-4.655752182E-1,1.121493028E1
6.864143925E0,3.162658691E0,1.075105286E1,-5.080710649E-1,1.121809626E1
6.868941894E0,3.257143974E0,1.065736771E1,-4.751664400E-1,1.115411388E1
6.873739811E0,3.372006178E0,1.054786015E1,-4.649601579E-1,1.108349978E1
6.878537779E0,3.413565636E0,1.045139313E1,-4.487747550E-1,1.100388329E1
6.883335696E0,3.376789570E0,1.029879379E1,-4.388807416E-1,1.084714145E1
6.888133665E0,3.333679438E0,1.021673584E1,-4.545925260E-1,1.075647545E1
6.892931581E0,3.203541517E0,1.011653519E1,-3.791201115E-1,1.061841299E1
6.897729550E0,2.991812229E0,1.003866959E1,-3.252392411E-1,1.048005764E1
6.902527467E0,2.797386408E0,9.966094017E0,-2.476330996E-1,1.035421281E1
6.907325436E0,2.606615543E0,9.869861603E0,-1.463804245E-1,1.020931143E1
6.912123352E0,2.410438538E0,9.811994553E0,2.583205700E-2,1.010376753E1
6.916921321E0,2.190490246E0,9.734847069E0,2.399732471E-1,9.981136315E0
6.921719238E0,1.987823963E0,9.664611816E0,4.622885585E-1,9.877746523E0
6.926517206E0,1.845733047E0,9.639456749E0,6.899315715E-1,9.838793751E0
6.931315123E0,1.742985845E0,9.620987892E0,9.203156233E-1,9.820814046E0
6.936113092E0,1.665191174E0,9.585348129E0,1.138686895E0,9.795323795E0
6.940911009E0,1.666946650E0,9.523127556E0,1.364076853E0,9.763676318E0
6.945708977E0,1.709641814E0,9.455991745E0,1.577112913E0,9.737861169E0
6.950506894E0,1.766562939E0,9.381743431E0,1.786972284E0,9.712421138E0
6.955304863E0,1.830232978E0,9.305305481E0,2.029289484E0,9.698271942E0
6.960102779E0,1.866991639E0,9.236355782E0,2.212929964E0,9.679513672E0
6.964900748E0,1.919561028E0,9.179849625E0,2.409231186E0,9.682910130E0
6.969698665E0,1.961601853E0,9.133448601E0,2.605930328E0,9.698383270E0
6.974496634E0,2.002585888E0,9.056629181E0,2.802587986E0,9.689550133E0
6.979294550E0,2.001892567E0,8.994901657E0,2.958264351E0,9.678179459E0
6.984092519E0,1.992866278E0,8.895823479E0,3.117893934E0,9.634752407E0
6.988890436E0,2.001648903E0,8.761980057E0,3.304863691E0,9.576064790E0
6.993688404E0,1.961161375E0,8.619830132E0,3.468538284E0,9.496229950E0
6.998486321E0,1.912143230E0,8.457480431E0,3.620551109E0,9.396470470E0
7.003284290E0,1.861719728E0,8.244024277E0,3.733913898E0,9.239699650E0
7.008082259E0,1.762147903E0,7.986757755E0,3.863111973E0,9.045280470E0
7.012880175E0,1.649330378E0,7.673860550E0,3.919128180E0,8.773140380E0
7.017678144E0,1.485212326E0,7.259996891E0,3.834588051E0,8.343708770E0
7.022476061E0,1.205522776E0,6.661565781E0,3.654891491E0,7.693372188E0
7.027273977E0,7.966053486E-1,5.833124638E0,3.320614815E0,6.759171981E0
7.032071946E0,3.404545784E-1,4.805642605E0,2.749204636E0,5.546912321E0
7.036869915E0,-1.452696323E-1,3.758058548E0,1.947186232E0,4.235049178E0
7.041667831E0,-6.572811604E-1,2.510686398E0,1.181316137E0,2.851503555E0
7.046465800E0,-1.120721817E0,1.123188496E0,6.098815203E-1,1.699860364E0
7.051263717E0,-1.559265852E0,-3.733415604E-1,8.719801903E-2,1.605707761E0
7.056061686E0,-1.970348358E0,-1.780519485E0,-4.056411982E-1,2.686459952E0
7.060859602E0,-2.356222868E0,-3.105706215E0,-8.661835194E-1,3.993428500E0
7.065657571E0,-2.678278685E0,-4.287047386E0,-1.215229273E0,5.198916636E0
7.070455488E0,-2.964797020E0,-5.277121544E0,-1.399982691E0,6.212727637E0
7.075253456E0,-3.057615519E0,-6.088313103E0,-1.310307384E0,6.937829238E0
7.080051373E0,-2.949796438E0,-6.795005798E0,-1.098945737E0,7.488730504E0
7.084849342E0,-2.696849346E0,-7.447530746E0,-9.466536641E-1,7.977146343E0
7.089647259E0,-2.295300722E0,-7.983600616E0,-7.205201983E-1,8.338191265E0
7.094445227E0,-1.758958101E0,-8.543924332E0,-5.914064050E-1,8.743130911E0
7.099243144E0,-1.128194809E0,-9.135113716E0,-5.025973320E-1,9.218228149E0
7.104041113E0,-6.391067505E-1,-9.981204987E0,-4.675828815E-1,1.001256931E1
7.108839029E0,-4.530701637E-1,-1.106944847E1,-5.525977015E-1,1.109248963E1
7.113636998E0,-4.775636196E-1,-1.232744026E1,-7.264603376E-1,1.235805790E1
7.118434915E0,-5.460369587E-1,-1.331005859E1,-8.845319152E-1,1.335058848E1
7.123232884E0,-5.111830235E-1,-1.379259682E1,-9.112924933E-1,1.383211802E1
7.128030800E0,-4.287664890E-1,-1.369651127E1,-7.585621476E-1,1.372420046E1
7.132828769E0,-3.776586056E-1,-1.321601772E1,-5.911970735E-1,1.323462370E1
7.137626686E0,-4.618072510E-1,-1.248096657E1,-4.897326827E-1,1.249910519E1
7.142424654E0,-6.718106270E-1,-1.181013775E1,-4.669893980E-1,1.183844425E1
7.147222623E0,-9.978921413E-1,-1.130219650E1,-6.568626165E-1,1.136516181E1
7.152020540E0,-1.492190599E0,-1.085500240E1,-1.134945154E0,1.101570744E1
7.156818456E0,-2.005659580E0,-1.046220398E1,-1.795088291E0,1.080290352E1
7.161616425E0,-2.496806860E0,-9.983626366E0,-2.581578016E0,1.060996630E1
7.166414342E0,-2.922488689E0,-9.613636971E0,-3.350376844E0,1.059188279E1
7.171212311E0,-3.189552069E0,-9.739270210E0,-3.811330318E0,1.093402330E1
7.176010279E0,-3.232708454E0,-1.112363148E1,-3.535738945E0,1.211144216E1
7.180808196E0,-3.069326878E0,-1.192185688E1,-3.713865519E0,1.285862497E1
7.185606165E0,-3.293380260E0,-1.210332012E1,-3.499054432E0,1.302229217E1
7.190404081E0,-3.625131607E0,-1.218968964E1,-3.348088503E0,1.315065813E1
7.195202050E0,-4.937995911E0,-1.202129555E1,-3.306230068E0,1.340994062E1
7.199999967E0,-6.034384727E0,-1.240830803E1,-1.163911939E0,1.384682629E1
7.204797936E0,-5.883617401E0,-1.283288383E1,-1.219802499E0,1.416996046E1
7.209595852E0,-4.388856411E0,-1.365773392E1,-2.076267958E0,1.449505588E1
7.214393821E0,-3.432060003E0,-1.334108639E1,-2.642519712E0,1.402663653E1
7.219191738E0,-3.320055008E0,-1.379097176E1,-2.666527271E0,1.443343462E1
7.223989706E0,-3.311172247E0,-1.331670666E1,-1.794497013E0,1.383903022E1
7.228787623E0,-3.357055187E0,-1.266037846E1,-1.329018116E0,1.316515444E1
7.233585592E0,-3.301901102E0,-1.206128597E1,-1.189314127E0,1.256151417E1
7.238383509E0,-3.159547806E0,-1.141196728E1,-9.027761817E-1,1.187563659E1
7.243181477E0,-3.077395439E0,-1.058124447E1,-5.376181006E-1,1.103277528E1
7.247979394E0,-3.042539120E0,-9.617294312E0,-1.693497300E-1,1.008851196E1
7.252777363E0,-2.948844194E0,-8.584939957E0,2.147424221E-1,9.079812248E0
7.257575331E0,-2.924376011E0,-7.532225609E0,6.037722230E-1,8.102526678E0
7.262373248E0,-2.886896133E0,-6.526215553E0,9.131273031E-1,7.194404785E0
7.267171217E0,-2.871426105E0,-5.586114883E0,1.211641788E0,6.396705652E0
7.271969134E0,-2.779242277E0,-4.774127960E0,1.384562969E0,5.695041706E0
7.276767050E0,-2.729678154E0,-4.042356491E0,1.429858685E0,5.082940555E0
7.281565019E0,-2.619739532E0,-3.328621864E0,1.496183634E0,4.492362875E0
7.286362988E0,-2.530610323E0,-2.635354042E0,1.593384981E0,3.985969798E0
7.291160904E0,-2.459805965E0,-1.900458336E0,1.638257265E0,3.513726532E0
7.295958873E0,-2.368891954E0,-1.198164940E0,1.664703846E0,3.133446539E0
7.300756790E0,-2.272307873E0,-5.117349625E-1,1.582293987E0,2.815832027E0
7.305554759E0,-2.170077324E0,1.898469925E-1,1.499317169E0,2.644471487E0
7.310352675E0,-2.043192148E0,8.921489716E-1,1.364048958E0,2.613655199E0
7.315150644E0,-1.944518566E0,1.573638916E0,1.186966181E0,2.768822964E0
7.319948561E0,-1.828747988E0,2.248624325E0,1.023961186E0,3.073943244E0
7.324746529E0,-1.710496664E0,2.919473171E0,8.258753419E-1,3.482986149E0
7.329544446E0,-1.554189920E0,3.519274712E0,6.748386025E-1,3.905919603E0
7.334342415E0,-1.245623350E0,4.000374794E0,3.925159872E-1,4.208164068E0
7.339140331E0,-9.172472954E-1,4.303376198E0,7.765239477E-2,4.400729394E0
7.343938300E0,-5.844030380E-1,4.553046227E0,-1.068468094E-1,4.591641655E0
7.348736217E0,-2.263159752E-1,4.878739357E0,-7.993811369E-2,4.884639878E0
7.353534186E0,1.037271023E-1,5.247154713E0,4.536777735E-2,5.248375951E0
7.358332102E0,4.028096199E-1,5.715838909E0,2.825613022E-1,5.736977507E0
7.363130071E0,6.826460361E-1,6.248953819E0,5.019921064E-1,6.306141889E0
7.367927988E0,9.360194206E-1,6.774828911E0,6.980031729E-1,6.874710725E0
7.372725956E0,1.146435857E0,7.298253059E0,8.316479921E-1,7.434409948E0
7.377523925E0,1.376226544E0,7.802497864E0,9.360369444E-1,7.978040961E0
7.382321842E0,1.591991186E0,8.218292236E0,9.845756292E-1,8.428769328E0
7.387119759E0,1.788990855E0,8.593555450E0,9.939106107E-1,8.833886000E0
7.391917727E0,1.988834620E0,8.942662239E0,9.592714310E-1,9.211236222E0
7.396715696E0,2.146499395E0,9.339607239E0,8.257657290E-1,9.618607595E0
7.401513613E0,2.238562107E0,9.705324173E0,7.250247002E-1,9.986497806E0
7.406311529E0,2.351241827E0,9.922702789E0,6.214050651E-1,1.021638454E1
7.411109498E0,2.419692278E0,1.000635338E1,5.509378314E-1,1.030948840E1
7.415907467E0,2.515378714E0,1.001150990E1,4.944643974E-1,1.033450316E1
7.420705384E0,2.626117706E0,1.002436352E1,4.592196941E-1,1.037281258E1
7.425503352E0,2.689724445E0,1.004013824E1,4.308620691E-1,1.040310702E1
7.430301269E0,2.699274778E0,1.007788754E1,3.973993063E-1,1.044068138E1
7.435099238E0,2.690865517E0,1.008495045E1,3.492693007E-1,1.044360914E1
7.439897154E0,2.693279743E0,1.003504848E1,3.318583369E-1,1.039548382E1
7.444695123E0,2.635184765E0,9.999834061E0,3.019310832E-1,1.034562914E1
7.449493040E0,2.581434250E0,9.955331802E0,3.021018803E-1,1.028900868E1
7.454291009E0,2.520396709E0,9.927756310E0,2.888345420E-1,1.024676389E1
7.459088925E0,2.469143152E0,9.878749847E0,2.714577019E-1,1.018626800E1
7.463886894E0,2.418624878E0,9.836843491E0,2.426733077E-1,1.013272552E1
7.468684811E0,2.357061863E0,9.756556511E0,2.383707762E-1,1.004006754E1
7.473482779E0,2.330236912E0,9.709488869E0,2.276376784E-1,9.987792402E0
7.478280696E0,2.328678131E0,9.633394241E0,2.514548302E-1,9.914043372E0
7.483078665E0,2.395433426E0,9.571283340E0,2.980744839E-1,9.870988526E0
7.487876581E0,2.489500761E0,9.542325020E0,3.177441359E-1,9.866840536E0
7.492674550E0,2.550745726E0,9.450965881E0,2.824401259E-1,9.793203371E0
7.497472467E0,2.650670290E0,9.373829842E0,3.907650411E-1,9.749227467E0
7.502270436E0,2.752851725E0,9.241763115E0,5.041084886E-1,9.656215794E0
7.507068352E0,2.849510670E0,9.083707809E0,5.223822594E-1,9.534481729E0
7.511866321E0,2.966413736E0,8.928545952E0,5.679143667E-1,9.425554095E0
7.516664290E0,3.036036730E0,8.848165512E0,6.814297438E-1,9.379333582E0
7.521462206E0,3.139154434E0,8.713603973E0,7.747299671E-1,9.294158988E0
7.526260175E0,3.186767340E0,8.589631081E0,7.309396267E-1,9.190838967E0
7.531058092E0,3.269394398E0,8.507423401E0,7.463345528E-1,9.144517916E0
7.535856061E0,3.336493492E0,8.476593018E0,8.064980507E-1,9.145231387E0
7.540653977E0,3.383127689E0,8.518632889E0,8.326280713E-1,9.203582387E0
7.545451946E0,3.383020401E0,8.576095581E0,9.153174162E-1,9.264558728E0
7.550249863E0,3.357745409E0,8.617873192E0,9.277389050E-1,9.295315598E0
7.555047831E0,3.312154770E0,8.655909538E0,9.722563028E-1,9.318820820E0
7.559845748E0,3.198631525E0,8.637564659E0,1.065096855E0,9.272173326E0
7.564643717E0,3.048724174E0,8.600993156E0,1.096035361E0,9.190924648E0
7.569441634E0,2.848278522E0,8.443378448E0,1.038831353E0,8.971203974E0
7.574239602E0,2.636000633E0,8.224452972E0,9.415990114E-1,8.687734730E0
7.579037519E0,2.402915239E0,7.901055336E0,8.312296271E-1,8.300097576E0
7.583835488E0,2.116152525E0,7.532856464E0,6.867434978E-1,7.854530199E0
7.588633404E0,1.838313222E0,7.048062325E0,5.018444657E-1,7.301124975E0
7.593431373E0,1.428726196E0,6.434737206E0,3.107506037E-1,6.598762565E0
7.598229290E0,9.047979116E-1,5.661798477E0,1.595607996E-1,5.735859213E0
7.603027259E0,3.485479355E-1,4.748364449E0,1.517479122E-2,4.761163815E0
7.607825227E0,-2.705187798E-1,3.570171833E0,-2.032025456E-1,3.586167676E0
7.612623144E0,-9.780402184E-1,2.156033039E0,-5.352624655E-1,2.427250923E0
7.617421113E0,-1.849711657E0,3.339395523E-1,-9.176959991E-1,2.091677505E0
7.622219029E0,-2.774292707E0,-1.876854897E0,-1.287159443E0,3.588323252E0
7.627016998E0,-3.798157215E0,-4.426150322E0,-1.539576054E0,6.032172024E0
7.631814915E0,-4.709732056E0,-7.048698425E0,-1.542671919E0,8.616586457E0
7.636612884E0,-5.296385288E0,-9.366970062E0,-1.284918308E0,1.083710479E1
7.641410800E0,-5.414405346E0,-1.094366646E1,-6.366692781E-1,1.222640456E1
7.646208769E0,-5.210788727E0,-1.175739861E1,2.170310616E-1,1.286218658E1
7.651006686E0,-4.739224911E0,-1.216419792E1,1.188265920E0,1.310877339E1
7.655804654E0,-4.238121033E0,-1.244341850E1,2.171933651E0,1.332357421E1
7.660602571E0,-4.129662514E0,-1.322831249E1,2.925446510E0,1.416335416E1
7.665400540E0,-4.582694054E0,-1.487235737E1,3.220969915E0,1.589222280E1
7.670198456E0,-5.249147415E0,-1.694983482E1,3.270240545E0,1.804286347E1
7.674996425E0,-5.547758579E0,-1.856940079E1,3.578562260E0,1.970802828E1
7.679794342E0,-5.192903042E0,-1.908412743E1,4.337789536E0,2.024812534E1
7.684592311E0,-4.404114246E0,-1.876512146E1,5.364021301E0,2.000746686E1
7.689390227E0,-3.513051748E0,-1.817698288E1,6.224049091E0,1.953159047E1
7.694188196E0,-2.706185818E0,-1.804379272E1,6.611393452E0,1.940650460E1
7.698986165E0,-1.961477995E0,-1.857494736E1,6.323566914E0,1.971962382E1
7.703784081E0,-1.177334785E0,-1.955422020E1,5.314499855E0,2.029772287E1
7.708582050E0,-5.273439884E-1,-2.061988831E1,3.928515434E0,2.099740743E1
7.713379967E0,-1.102092266E-1,-2.161619186E1,2.248485327E0,2.173309879E1
7.718177936E0,1.081447601E-1,-2.228255653E1,2.058529854E-1,2.228376980E1
7.722975852E0,1.422801018E-1,-2.240932465E1,-2.271002293E0,2.252455385E1
7.727773821E0,-8.201122284E-2,-2.182102966E1,-4.826407433E0,2.234856304E1
7.732571738E0,-8.395917416E-1,-2.068179703E1,-5.481903076E0,2.141244741E1
7.737369706E0,-1.499707937E0,-2.083665085E1,-4.677411556E0,2.140778647E1
7.742167623E0,-1.609115362E0,-2.109233856E1,-3.545044661E0,2.144862093E1
7.746965592E0,-1.455909967E0,-2.010699844E1,-2.604642868E0,2.032720406E1
7.751763509E0,-1.174871445E0,-1.837419891E1,-3.305144787E0,1.870602819E1
7.756561477E0,-1.720467806E0,-1.628721237E1,-3.642458200E0,1.677798552E1
7.761359394E0,-2.556912422E0,-1.456637478E1,-3.628288984E0,1.522765761E1
7.766157363E0,-2.684745073E0,-1.364152431E1,-3.940102816E0,1.445072496E1
7.770955279E0,-2.806610584E0,-1.232899666E1,-4.067848682E0,1.328264335E1
7.775753248E0,-3.486358166E0,-1.021652222E1,-2.925605059E0,1.118441704E1
7.780551165E0,-3.576202154E0,-8.008372307E0,-3.080826283E0,9.295952852E0
7.785349134E0,-3.250015974E0,-6.787634850E0,-4.016658306E0,8.530424059E0
7.790147050E0,-3.394483566E0,-4.692069054E0,-4.253225803E0,7.185259941E0
7.794945019E0,-3.566646576E0,-2.808306694E0,-4.201178074E0,6.185260827E0
7.799742988E0,-3.566739798E0,-1.365726471E0,-4.490678787E0,5.895170697E0
7.804540904E0,-3.414733648E0,-4.143619537E-2,-4.137862206E0,5.365074695E0
7.809338873E0,-3.340648174E0,1.434434891E0,-4.054748058E0,5.445963229E0
7.814136790E0,-3.473702908E0,3.080461502E0,-4.318090439E0,6.340485785E0
7.818934759E0,-3.356098175E0,4.098078251E0,-4.014667511E0,6.646442322E0
7.823732675E0,-3.313743353E0,4.555141926E0,-4.323181629E0,7.100712103E0
7.828530644E0,-3.055882215E0,4.894678116E0,-4.294671059E0,7.193086227E0
7.833328561E0,-2.753468275E0,5.334522724E0,-4.140791893E0,7.292796291E0
7.838126529E0,-2.438768864E0,5.755283356E0,-4.144359112E0,7.499772831E0
7.842924446E0,-2.173303843E0,6.068925381E0,-3.452919245E0,7.312848705E0
7.847722415E0,-1.646225929E0,6.304755688E0,-2.823241711E0,7.101457445E0
7.852520331E0,-1.105970621E0,6.697494507E0,-2.496710539E0,7.232784194E0
7.857318300E0,-6.209743023E-1,7.108659744E0,-2.133319855E0,7.447798738E0
7.862116217E0,-4.680013657E-2,7.495539665E0,-1.854848385E0,7.721772313E0
7.866914186E0,4.696028233E-1,7.896670818E0,-1.575181961E0,8.065924314E0
7.871712102E0,8.895130157E-1,8.350431442E0,-1.277544260E0,8.494295616E0
7.876510071E0,1.095714927E0,8.823378563E0,-1.047908664E0,8.952693060E0
7.881307988E0,1.351689696E0,9.279577255E0,-7.259169817E-1,9.405560830E0
7.886105956E0,1.522475958E0,9.883626938E0,-4.238179922E-1,1.000917760E1
7.890903925E0,1.525793076E0,1.045099163E1,-3.418366313E-1,1.056731389E1
7.895702289E0,1.456098676E0,1.087864113E1,-3.355793953E-1,1.098078639E1
7.900500258E0,1.447942138E0,1.116415215E1,-2.825771570E-1,1.126120240E1
7.905298174E0,1.468233943E0,1.140075684E1,-1.348949075E-1,1.149570198E1
7.910096143E0,1.593428850E0,1.160280037E1,-2.251803875E-3,1.171170342E1
7.914894060E0,1.737099886E0,1.169628334E1,1.057215929E-1,1.182504702E1
7.919692028E0,1.834527850E0,1.173630238E1,2.418997884E-1,1.188127945E1
7.924489945E0,1.902439117E0,1.173005581E1,3.204508424E-1,1.188764790E1
7.929287914E0,1.929051161E0,1.171094704E1,3.825332522E-1,1.187492529E1
7.934085831E0,1.926241994E0,1.151880264E1,4.933439493E-1,1.168916639E1
7.938883799E0,1.925008535E0,1.132584763E1,5.958169699E-1,1.150371593E1
7.943681716E0,1.996919274E0,1.108899403E1,7.358305454E-1,1.129136492E1
7.948479685E0,2.022140265E0,1.084893894E1,8.988016248E-1,1.107232459E1
7.953277601E0,2.047966480E0,1.053888893E1,1.120303273E0,1.079432379E1
7.958075570E0,2.116728067E0,1.021169949E1,1.387816072E0,1.052071184E1
7.962873487E0,2.194304466E0,9.872378349E0,1.679137468E0,1.025174761E1
7.967671456E0,2.289479733E0,9.518854141E0,1.964748383E0,9.985516402E0
7.972469424E0,2.375518322E0,9.232578278E0,2.244194031E0,9.793875423E0
7.977267341E0,2.447115660E0,8.817755699E0,2.516853809E0,9.490824185E0
7.982065310E0,2.477422714E0,8.456428528E0,2.736997843E0,9.227131946E0
7.986863226E0,2.473520756E0,8.208427429E0,2.937601328E0,9.062344473E0
7.991661195E0,2.454705715E0,7.997223377E0,3.120457888E0,8.928517196E0
