"Time (s)","Linear Acceleration x (m/s^2)","Linear Acceleration y (m/s^2)","Linear Acceleration z (m/s^2)","Absolute acceleration (m/s^2)"
1.139334000E-2,0.000000000E0,0.000000000E0,0.000000000E0,0.000000000E0
1.609511000E-2,6.956195831E-2,-1.210391521E-3,-1.185574532E-1,1.374634526E-1
2.089281900E-2,1.071629524E-1,1.343679428E-2,-1.651539803E-1,1.973329243E-1
2.569047500E-2,8.761215210E-2,7.245057821E-2,-1.201095581E-1,1.653822283E-1
3.048807900E-2,2.384519577E-2,8.362293243E-2,3.586769104E-3,8.703018501E-2
3.528573500E-2,-1.304321289E-1,1.537555456E-2,1.904139519E-1,2.313145499E-1
4.008339200E-2,-2.689695358E-1,-7.943928242E-2,4.131669998E-1,4.993617732E-1
4.488099600E-2,-3.500485420E-1,-1.787756681E-1,5.893149376E-1,7.083691248E-1
4.967865200E-2,-4.523468018E-1,-3.063771725E-1,6.174540520E-1,8.244598881E-1
5.447630800E-2,-9.743690491E-1,-6.795545816E-1,4.965820312E-1,1.287549295E0
5.927391300E-2,-5.409393311E-1,-5.996940136E-1,5.081815720E-1,9.541995493E-1
6.407156900E-2,-6.900644302E-2,-5.337842703E-1,6.187534332E-1,8.200874024E-1
6.886917300E-2,-2.971038818E-1,-7.288839817E-1,1.750583649E-1,8.063423631E-1
7.366682900E-2,2.508401871E-2,-4.418090582E-1,2.987508774E-1,5.339255928E-1
7.846448500E-2,2.827243805E-1,-3.358544111E-1,4.320325851E-1,6.159410811E-1
8.326214200E-2,3.424172401E-1,-3.274270296E-1,5.612773895E-1,7.345000572E-1
8.805974600E-2,2.901401520E-1,-4.582291842E-1,7.007417679E-1,8.861119107E-1
9.285740200E-2,7.086896896E-2,-6.245363951E-1,7.286014557E-1,9.622516307E-1
9.765505800E-2,-4.115529060E-1,-6.104792356E-1,7.733898163E-1,1.067797968E0
1.024526630E-1,-5.467553139E-1,-6.649535894E-1,5.764570236E-1,1.036053739E0
1.072503190E-1,-9.643692970E-1,-9.019497633E-1,-6.316862106E-1,1.463744850E0
1.120479750E-1,-6.220178604E-1,-8.663024902E-1,-2.130513191E-1,1.087555556E0
1.168455790E-1,-7.255473137E-1,-7.413998842E-1,-6.450939178E-2,1.039352757E0
1.216432350E-1,-7.459497452E-1,-5.141022205E-1,-5.988693237E-2,9.079254155E-1
1.264408920E-1,-7.649259567E-1,-1.875234842E-1,5.681324005E-2,7.896230244E-1
1.312384960E-1,-7.512407303E-1,1.479927301E-1,2.879314423E-1,8.180275047E-1
1.360361520E-1,-7.507848740E-1,2.922525406E-1,4.033422470E-1,9.009852622E-1
1.408338080E-1,-7.798023224E-1,2.710022926E-1,3.608970642E-1,9.009886767E-1
1.456314130E-1,-7.474436760E-1,1.573311090E-1,2.073698044E-1,7.914716435E-1
1.504290690E-1,-6.876468658E-1,5.400609970E-2,2.035522461E-2,6.900646391E-1
1.552267250E-1,-6.418995857E-1,1.025706530E-1,-2.520608902E-1,6.972019143E-1
1.600243290E-1,-4.923882484E-1,1.718027592E-1,-5.835924149E-1,7.826509324E-1
1.648219850E-1,-2.914447784E-1,2.992639542E-1,-8.582248688E-1,9.544888153E-1
1.696196420E-1,-2.529191971E-2,3.889838457E-1,-1.065722466E0,1.134774201E0
1.744172460E-1,1.770548820E-1,3.589975834E-1,-1.175523758E0,1.241806668E0
1.792149020E-1,3.177232742E-1,3.012012243E-1,-1.202029705E0,1.279275447E0
1.840125580E-1,4.196653366E-1,3.117092848E-1,-1.138062477E0,1.252384875E0
1.888101630E-1,5.469098091E-1,2.698149681E-1,-1.072074890E0,1.233391676E0
1.936078190E-1,5.847740173E-1,2.023758888E-1,-9.876117706E-1,1.165458563E0
1.984054750E-1,6.291170120E-1,1.656420231E-1,-8.568124771E-1,1.075803474E0
2.032030790E-1,6.332645416E-1,1.513420343E-1,-7.109031677E-1,9.640081457E-1
2.080007350E-1,6.540269852E-1,7.185482979E-2,-5.105409622E-1,8.328063929E-1
2.127983920E-1,5.973353386E-1,6.589734554E-2,-2.920155525E-1,6.681504694E-1
2.175959960E-1,5.744314194E-1,-1.611077785E-2,-4.411649704E-2,5.763482264E-1
2.223936520E-1,4.999909401E-1,-3.730273247E-2,2.184481621E-1,5.469022157E-1
2.271913080E-1,5.197968483E-1,-6.737744808E-2,4.320640564E-1,6.792700736E-1
2.319889130E-1,3.363957405E-1,-8.801829815E-2,6.233348846E-1,7.137616503E-1
2.367865690E-1,1.990113258E-1,-6.242918968E-2,9.514975548E-1,9.740895792E-1
2.415842250E-1,8.705520630E-2,5.032122135E-2,1.185984135E0,1.190239136E0
2.463818290E-1,-5.281925201E-3,1.313899755E-1,1.368296146E0,1.374600149E0
2.511794850E-1,-6.245660782E-2,1.415101290E-1,1.478088856E0,1.486160358E0
2.559771420E-1,-4.317140579E-2,1.292693615E-1,1.511979580E0,1.518109544E0
2.607747460E-1,2.032470703E-2,5.785369873E-2,1.518162727E0,1.519400609E0
2.655724020E-1,1.084380150E-1,-8.374452591E-4,1.468980312E0,1.472977482E0
2.703700580E-1,2.231445312E-1,-3.722023964E-2,1.360773563E0,1.379450441E0
2.751676630E-1,3.007993698E-1,-7.949292660E-2,1.225295544E0,1.264179005E0
2.799653190E-1,3.735666275E-1,-1.298130751E-1,1.035430908E0,1.108386496E0
2.847629750E-1,4.237070084E-1,-1.759757996E-1,7.881083488E-1,9.119264666E-1
2.895606310E-1,5.394620895E-1,-1.663261652E-1,6.024012566E-1,8.255731422E-1
2.943582350E-1,6.358289719E-1,-8.790779114E-2,4.753532410E-1,7.987283424E-1
2.991558920E-1,7.279148102E-1,3.199636936E-2,3.451676369E-1,8.062409293E-1
3.039534960E-1,8.118829727E-1,9.107148647E-2,2.499990463E-1,8.543696508E-1
3.087511520E-1,8.651013374E-1,1.205173731E-1,1.921339035E-1,8.943378546E-1
3.135488080E-1,9.120664597E-1,9.909558296E-2,1.406216621E-1,9.281484866E-1
3.183464130E-1,9.273762703E-1,2.258849144E-2,1.121644974E-1,9.344077596E-1
3.231440690E-1,9.376554489E-1,-8.967208862E-2,1.065974236E-1,9.479461140E-1
3.279417250E-1,9.403958321E-1,-1.737453938E-1,1.847467422E-1,9.739933991E-1
3.327393810E-1,9.610905647E-1,-2.488484383E-1,2.908744812E-1,1.034518527E0
3.375369850E-1,9.518747330E-1,-3.671169281E-1,3.724431992E-1,1.086072872E0
3.423346420E-1,1.004852295E0,-4.735124111E-1,4.321074486E-1,1.191914001E0
3.471322980E-1,9.915318489E-1,-5.514943600E-1,4.701609612E-1,1.228141997E0
3.519299020E-1,9.807863235E-1,-6.813685894E-1,5.032348633E-1,1.295936069E0
3.567275580E-1,9.602909088E-1,-8.009119034E-1,5.311384201E-1,1.358575183E0
3.615252150E-1,9.768791199E-1,-9.078183174E-1,5.559878349E-1,1.444835418E0
3.663228190E-1,9.516420364E-1,-9.688916206E-1,5.822577477E-1,1.477632438E0
3.711204750E-1,8.372578621E-1,-8.641660213E-1,6.991744041E-1,1.391627999E0
3.759181310E-1,7.141828537E-1,-6.594591141E-1,8.196954727E-1,1.271551863E0
3.807157350E-1,5.769786835E-1,-4.291355610E-1,8.958001137E-1,1.148703432E0
3.855133920E-1,4.795684814E-1,-1.966917515E-1,9.086937904E-1,1.046134780E0
3.903110480E-1,3.974547386E-1,-2.785158157E-2,8.706884384E-1,9.575198884E-1
3.951086520E-1,3.254137039E-1,1.120171547E-1,8.531527519E-1,9.199519225E-1
3.999063080E-1,3.596091270E-1,2.779659033E-1,9.615602493E-1,1.063570346E0
4.047039650E-1,4.247245789E-1,4.062025547E-1,1.127365112E0,1.271355017E0
4.095015690E-1,3.312649727E-1,3.012042046E-1,1.113396645E0,1.200046892E0
4.142992250E-1,2.469191551E-1,3.204774857E-2,1.045006275E0,1.074259858E0
4.190968810E-1,2.711820602E-1,-1.816375256E-1,1.069743633E0,1.118428961E0
4.238945380E-1,2.914371490E-1,-2.718546391E-1,1.245394230E0,1.307611312E0
4.286921420E-1,1.862049103E-1,-2.072868347E-1,1.599807262E0,1.623891430E0
4.334897980E-1,7.411003113E-2,2.875614166E-2,2.006519794E0,2.008093847E0
4.382874540E-1,-1.026964188E-2,2.944271564E-1,2.385574818E0,2.403697158E0
4.430850580E-1,-1.079740524E-1,5.632479191E-1,2.682190895E0,2.742818735E0
4.478827150E-1,-1.454701424E-1,7.594310045E-1,2.861790180E0,2.964412260E0
4.526803710E-1,-1.728143692E-1,9.334808588E-1,2.926003933E0,3.076158373E0
4.574779750E-1,-1.661000252E-1,1.092714906E0,2.909642696E0,3.112496699E0
4.622756310E-1,-1.610412598E-1,1.265775084E0,2.894331932E0,3.163112104E0
4.670732880E-1,-8.148336411E-2,1.461621046E0,2.807024002E0,3.165811013E0
4.718708920E-1,-3.627014160E-2,1.698543549E0,2.632767200E0,3.133341482E0
4.766685480E-1,4.241418839E-2,1.942636013E0,2.293112278E0,3.005660919E0
4.814662040E-1,8.462190628E-2,2.188680887E0,1.919041634E0,2.912079272E0
4.862638080E-1,1.632657051E-1,2.388738394E0,1.561962128E0,2.858750163E0
4.910614650E-1,1.918296814E-1,2.564186096E0,1.201715946E0,2.838304102E0
4.958591210E-1,2.242822647E-1,2.698087454E0,8.962535858E-1,2.851885154E0
5.006567250E-1,1.974997520E-1,2.811791658E0,7.167644501E-1,2.908423930E0
5.054543810E-1,2.286152840E-1,2.945380688E0,6.456360817E-1,3.023967310E0
5.102520380E-1,2.460670471E-1,2.996485949E0,6.746220589E-1,3.081329576E0
5.150496420E-1,2.521538734E-1,2.918525219E0,7.219500542E-1,3.017048709E0
5.198472980E-1,2.490859032E-1,2.765240431E0,8.370776176E-1,2.899878854E0
5.246449540E-1,2.768325806E-1,2.573080778E0,1.000069618E0,2.774440522E0
5.294425580E-1,3.417539597E-1,2.435203791E0,1.141409397E0,2.711056747E0
5.342402150E-1,4.028072357E-1,2.389552832E0,1.313251495E0,2.756237634E0
5.390378710E-1,4.477896690E-1,2.326572657E0,1.505603790E0,2.807186971E0
5.438354750E-1,4.739794731E-1,2.237299919E0,1.653922558E0,2.822344291E0
5.486331310E-1,4.763669968E-1,2.148299217E0,1.765402794E0,2.821127801E0
5.534307880E-1,4.525704384E-1,2.073963165E0,1.823633194E0,2.798531979E0
5.582284440E-1,3.958215714E-1,2.047326803E0,1.786500931E0,2.745870960E0
5.630260480E-1,3.683052063E-1,2.067652941E0,1.707127571E0,2.706496250E0
5.678237040E-1,3.462686539E-1,2.075029373E0,1.576523781E0,2.628892564E0
5.726213600E-1,3.396205902E-1,2.095578194E0,1.374162197E0,2.528855839E0
5.774189650E-1,3.415403366E-1,2.095858335E0,1.129451752E0,2.405188812E0
5.822166210E-1,2.410340309E-1,2.158736944E0,8.645143509E-1,2.337868187E0
5.870142770E-1,1.768298149E-1,2.243139267E0,6.389756203E-1,2.339066565E0
5.918118810E-1,1.132349968E-1,2.362771511E0,4.786772728E-1,2.413429781E0
5.966095380E-1,3.606891632E-2,2.408156395E0,2.929530144E-1,2.426177994E0
6.014071940E-1,-3.314781189E-2,2.432019711E0,1.152629852E-1,2.434975196E0
6.062047980E-1,-1.467962265E-1,2.406237364E0,-1.412248611E-2,2.410752336E0
6.110024540E-1,-2.171430588E-1,2.341134548E0,-8.160924911E-2,2.352599020E0
6.158001100E-1,-3.139576912E-1,2.298844337E0,-9.528923035E-2,2.322140124E0
6.205977150E-1,-4.068975449E-1,2.213010311E0,-7.513475418E-2,2.251360806E0
6.253953710E-1,-5.110130310E-1,2.084173441E0,1.119327545E-2,2.145935353E0
6.301930270E-1,-5.557098389E-1,1.963211536E0,5.824136734E-2,2.041177361E0
6.349906830E-1,-5.968627930E-1,1.831278563E0,1.344752312E-1,1.930779624E0
6.397882880E-1,-6.215391159E-1,1.717117190E0,3.358583450E-1,1.856772239E0
6.445859440E-1,-4.417815208E-1,1.784427643E0,7.142701149E-1,1.972190336E0
6.493836000E-1,-4.308252335E-1,1.744690299E0,9.490675926E-1,2.032309995E0
6.541812040E-1,-6.793918610E-1,1.292638779E0,6.976814270E-1,1.618408999E0
6.589788600E-1,-8.279933929E-1,7.950868011E-1,3.545646667E-1,1.201437548E0
6.637765170E-1,-8.785343170E-1,4.566884041E-1,3.791427612E-2,9.908704945E-1
6.685741210E-1,-8.218760490E-1,4.070785046E-1,-9.533882141E-2,9.221077159E-1
6.733717770E-1,-6.995015144E-1,4.825677872E-1,-1.632366180E-1,8.653439960E-1
6.781694330E-1,-5.738658905E-1,5.752397776E-1,-2.282266617E-1,8.439847576E-1
6.829670380E-1,-4.422407150E-1,5.947665572E-1,-3.707251549E-1,8.287105937E-1
6.877646940E-1,-3.394360542E-1,5.584610701E-1,-5.893487930E-1,8.800156825E-1
6.925623500E-1,-2.355537415E-1,5.239380598E-1,-8.515810966E-1,1.027222965E0
6.973599540E-1,-1.223235130E-1,5.174207687E-1,-1.125225544E0,1.244515897E0
7.021576100E-1,-2.042913437E-2,5.317301750E-1,-1.266980171E0,1.374188154E0
7.069552670E-1,4.928493500E-2,4.906469584E-1,-1.301164627E0,1.391471462E0
7.117528710E-1,1.301126480E-1,4.584394097E-1,-1.268756866E0,1.355300697E0
7.165505270E-1,1.650571823E-1,3.803583384E-1,-1.179653168E0,1.250399110E0
7.213481830E-1,1.974115372E-1,2.682801485E-1,-1.069795609E0,1.120449998E0
7.261457880E-1,2.082972527E-1,1.413495541E-1,-9.297528267E-1,9.632277823E-1
7.309434440E-1,2.001700401E-1,3.031122684E-2,-7.645931244E-1,7.909421352E-1
7.357411000E-1,1.728425026E-1,-8.662796021E-2,-5.439119339E-1,5.772513543E-1
7.405387560E-1,9.505462646E-2,-1.788349152E-1,-2.875537872E-1,3.517164902E-1
7.453363600E-1,-4.805088043E-3,-2.611259222E-1,-6.990194321E-2,2.703629371E-1
7.501340170E-1,-4.138517380E-2,-3.883665800E-1,9.470462799E-2,4.018834404E-1
7.549316730E-1,-1.034064293E-1,-4.889829159E-1,1.777844429E-1,5.304757203E-1
7.597292770E-1,-1.338262558E-1,-5.846875906E-1,2.129716873E-1,6.364950785E-1
7.645269330E-1,-1.448464394E-1,-6.396667957E-1,1.814913750E-1,6.805095295E-1
7.693245900E-1,-1.390571594E-1,-7.109266520E-1,1.241669655E-1,7.349632871E-1
7.741221940E-1,-1.213817596E-1,-7.602361441E-1,5.538606644E-2,7.718550011E-1
7.789198500E-1,-8.487939835E-2,-7.875760794E-1,-3.199195862E-2,7.927824913E-1
7.837175060E-1,-1.773023605E-2,-7.855976820E-1,-1.543993950E-1,8.008228596E-1
7.885151100E-1,3.736877441E-2,-7.472523451E-1,-3.280119896E-1,8.169298366E-1
7.933127670E-1,9.038543701E-2,-6.747812033E-1,-5.140938759E-1,8.531070934E-1
7.981104230E-1,8.728742599E-2,-5.945053101E-1,-7.500824928E-1,9.610824129E-1
8.029080790E-1,1.097822189E-1,-5.016616583E-1,-9.520206451E-1,1.081693054E0
8.077056830E-1,7.720899582E-2,-4.082422256E-1,-1.093666553E0,1.169927123E0
8.125033400E-1,2.091598511E-2,-3.286933899E-1,-1.161062717E0,1.206873422E0
8.173009960E-1,-8.755254745E-2,-2.415429354E-1,-1.168961525E0,1.196862350E0
8.220986000E-1,-2.242722511E-1,-1.376515627E-1,-1.122663021E0,1.153090740E0
8.268962560E-1,-3.300724030E-1,-4.111671448E-2,-9.943499565E-1,1.048508565E0
8.316939130E-1,-4.342761040E-1,-1.132154465E-2,-8.349261284E-1,9.411830596E-1
8.364915170E-1,-5.089731216E-1,-2.386546135E-2,-6.616878510E-1,8.351371210E-1
8.412891730E-1,-5.621004105E-1,-4.518246651E-2,-5.275688171E-1,7.722222371E-1
8.460868290E-1,-6.156053543E-1,-6.326889992E-2,-3.946080208E-1,7.339539468E-1
8.508844330E-1,-6.364698410E-1,-6.863903999E-2,-3.011107445E-1,7.074410624E-1
8.556820900E-1,-6.894493103E-1,-1.206669807E-1,-1.971306801E-1,7.271598014E-1
8.604797460E-1,-7.317075729E-1,-1.692351103E-1,-1.233425140E-1,7.610846672E-1
8.652774020E-1,-7.680253983E-1,-1.834595203E-1,-9.620189667E-2,7.954716921E-1
8.700750060E-1,-8.315677643E-1,-1.328980923E-1,-8.204317093E-2,8.461075176E-1
8.748726630E-1,-8.578214645E-1,-4.892826080E-2,-9.498929977E-2,8.644504652E-1
8.796703190E-1,-8.871622086E-1,2.280783653E-2,-1.132855415E-1,8.946566915E-1
8.844679230E-1,-9.240903854E-1,1.037296057E-1,-1.628875732E-1,9.440525584E-1
8.892655790E-1,-9.325461388E-1,1.985430717E-1,-1.529164314E-1,9.656319626E-1
8.940632350E-1,-9.289879799E-1,3.022035360E-1,-1.976680756E-1,9.967037233E-1
8.988608400E-1,-9.418621063E-1,3.907551765E-1,-2.015271187E-1,1.039426291E0
9.036584960E-1,-9.042963982E-1,4.618048668E-1,-2.336325645E-1,1.041921247E0
9.084561520E-1,-9.116692543E-1,5.725511312E-1,-2.318801880E-1,1.101237508E0
9.132537560E-1,-9.135718346E-1,6.750875711E-1,-2.129697800E-1,1.155730441E0
9.180514130E-1,-8.886232376E-1,7.646920681E-1,-1.770076752E-1,1.185637775E0
9.228490690E-1,-8.919301033E-1,7.914639115E-1,-9.094572067E-2,1.195920381E0
9.276467250E-1,-9.163794518E-1,8.247438073E-1,6.710052490E-3,1.232882262E0
9.324443290E-1,-8.666400909E-1,8.952441812E-1,9.919977188E-2,1.249947113E0
9.372419850E-1,-8.574938774E-1,9.029555321E-1,1.840877533E-1,1.258774302E0
9.420396420E-1,-8.605623245E-1,8.771147728E-1,3.254246712E-1,1.271140848E0
9.468372460E-1,-7.977466583E-1,8.894684911E-1,4.844112396E-1,1.289266527E0
9.516349020E-1,-7.268385887E-1,8.969774246E-1,6.487746239E-1,1.324300324E0
9.564325580E-1,-6.790618896E-1,8.830350041E-1,7.397274971E-1,1.337188333E0
9.612301630E-1,-6.186475754E-1,8.073645830E-1,8.314156532E-1,1.313702547E0
9.660278190E-1,-5.644559860E-1,7.487900257E-1,8.788118362E-1,1.285148749E0
9.708254750E-1,-5.233230591E-1,6.667746305E-1,8.895339966E-1,1.228709145E0
9.756230790E-1,-4.496798515E-1,5.803171396E-1,9.211020470E-1,1.177883242E0
9.804207350E-1,-4.077606201E-1,4.963386059E-1,9.568748474E-1,1.152488702E0
9.852183920E-1,-3.568086624E-1,3.647031784E-1,1.025487423E0,1.145401800E0
9.900160480E-1,-2.945632935E-1,2.711733580E-1,1.102852821E0,1.173280388E0
9.948136520E-1,-2.090792656E-1,2.177240849E-1,1.172292709E0,1.210532161E0
9.996113080E-1,-1.669073105E-1,1.302022934E-1,1.198298454E0,1.216852445E0
1.004408965E0,-1.221036911E-1,8.444607258E-2,1.195658207E0,1.204839823E0
1.009206569E0,-6.245231628E-2,4.186952114E-2,1.176622868E0,1.179022782E0
1.014004225E0,-3.304338455E-2,4.023849964E-2,1.186625004E0,1.187766771E0
1.018801881E0,2.840995789E-2,-1.152336597E-2,1.180374146E0,1.180772221E0
1.023599485E0,8.630514145E-2,-4.190790653E-2,1.120031357E0,1.124133039E0
1.028397142E0,1.767077446E-1,-8.442091942E-2,1.032308578E0,1.050720477E0
1.033194798E0,2.592701912E-1,-1.459401846E-1,9.557480812E-1,1.000986496E0
1.037992402E0,3.080382347E-1,-2.024133205E-1,8.666987419E-1,9.418202671E-1
1.042790058E0,4.090056419E-1,-2.367136478E-1,8.106784821E-1,9.383595087E-1
1.047587715E0,5.000572205E-1,-2.795749903E-1,7.424173355E-1,9.377648421E-1
1.052385371E0,6.195917130E-1,-3.449244499E-1,6.551294327E-1,9.654332398E-1
1.057182975E0,7.415242195E-1,-4.037290812E-1,5.587434769E-1,1.012447338E0
1.061980631E0,8.378009796E-1,-4.749567509E-1,4.014182091E-1,1.043374801E0
1.066778288E0,9.210772514E-1,-5.296224356E-1,2.341184616E-1,1.087977335E0
1.071575892E0,1.006058216E0,-5.888891220E-1,1.264133453E-1,1.172571476E0
1.076373548E0,1.078639030E0,-6.146721840E-1,6.159496307E-2,1.243011662E0
1.081171204E0,1.091063976E0,-6.737411022E-1,6.563377380E-2,1.283999792E0
1.085968808E0,1.059758663E0,-7.659711838E-1,1.211838722E-1,1.313196790E0
1.090766465E0,1.036698341E0,-8.887816668E-1,1.966013908E-1,1.379611688E0
1.095564121E0,9.781856537E-1,-1.037331223E0,3.483433723E-1,1.467735107E0
1.100361725E0,9.265747070E-1,-1.182614207E0,4.779233932E-1,1.576555683E0
1.105159381E0,8.785858154E-1,-1.269878507E0,6.227998734E-1,1.665047789E0
1.109957038E0,8.309617043E-1,-1.361250877E0,7.416443825E-1,1.758845558E0
1.114754694E0,8.140177727E-1,-1.425862193E0,7.886524200E-1,1.821450128E0
1.119552298E0,8.176574707E-1,-1.451577306E0,7.637734413E-1,1.832754835E0
1.124349954E0,8.344316483E-1,-1.447903395E0,6.695036888E-1,1.800259872E0
1.129147610E0,8.692421913E-1,-1.402866244E0,5.182523727E-1,1.729798025E0
1.133945215E0,9.338493347E-1,-1.342624307E0,4.889025688E-1,1.706968169E0
1.138742871E0,9.994034767E-1,-1.293553233E0,4.211068153E-1,1.688021986E0
1.143540527E0,1.073037148E0,-1.203108668E0,3.388190269E-1,1.647324352E0
1.148338131E0,1.162302494E0,-1.045257330E0,1.543636322E-1,1.570776274E0
1.153135788E0,1.275169373E0,-8.274484873E-1,-9.278774261E-2,1.522937127E0
1.157933444E0,1.398353577E0,-5.928649902E-1,-3.940243721E-1,1.569119762E0
1.162731100E0,1.552145958E0,-3.413066864E-1,-7.285480499E-1,1.748264737E0
1.167528704E0,1.630220413E0,-1.891281605E-1,-1.056721210E0,1.951934367E0
1.172326360E0,1.626422405E0,-8.116269112E-2,-1.227490902E0,2.039257497E0
1.177124017E0,1.574633121E0,-1.964628696E-2,-1.288690567E0,2.034841228E0
1.181921621E0,1.524987698E0,2.892875671E-2,-1.288239956E0,1.996493560E0
1.186719277E0,1.458067894E0,2.425420284E-2,-1.247854233E0,1.919294255E0
1.191516933E0,1.387837887E0,-5.726671219E-2,-1.194014549E0,1.831677979E0
1.196314538E0,1.261193275E0,-2.032724619E-1,-1.067620277E0,1.664854717E0
1.201112194E0,1.127508640E0,-3.325102329E-1,-8.673501015E-1,1.460867888E0
1.205909850E0,1.002429962E0,-4.547615051E-1,-6.351242065E-1,1.270848777E0
1.210707506E0,9.041113853E-1,-5.653183460E-1,-4.387369156E-1,1.153036127E0
1.215505110E0,8.532190323E-1,-6.379157305E-1,-3.121447563E-1,1.110114204E0
1.220302767E0,8.351860046E-1,-6.775654554E-1,-3.241968155E-1,1.123269417E0
1.225100423E0,8.953619003E-1,-6.033045053E-1,-4.619841576E-1,1.174341782E0
1.229898027E0,9.766092300E-1,-4.771801233E-1,-6.574139595E-1,1.270299009E0
1.234695683E0,9.791111946E-1,-3.373869658E-1,-8.259348869E-1,1.324634717E0
1.239493340E0,8.628001213E-1,-1.174988747E-1,-9.170565605E-1,1.264603800E0
1.244290996E0,7.495002747E-1,1.362791061E-1,-9.096963406E-1,1.186537015E0
1.249088600E0,6.722636223E-1,3.734706640E-1,-8.783066273E-1,1.167407918E0
1.253886256E0,5.613574982E-1,5.178939104E-1,-8.233647346E-1,1.123060920E0
1.258683913E0,4.021453857E-1,6.629356146E-1,-6.953337193E-1,1.041486208E0
1.263481517E0,2.728061676E-1,7.635614872E-1,-5.072407722E-1,9.564217432E-1
1.268279173E0,1.080732346E-1,8.155392408E-1,-2.867381573E-1,8.712076952E-1
1.273076829E0,5.986595154E-2,9.217303991E-1,-2.587580681E-2,9.240348577E-1
1.277874433E0,-6.405830383E-3,9.797448516E-1,2.594733238E-1,1.013542014E0
1.282672090E0,-1.125841141E-1,9.282247424E-1,4.322149754E-1,1.030090355E0
1.287469746E0,-3.517131805E-1,8.344745636E-1,5.825088024E-1,1.076738809E0
1.292267350E0,-5.565423965E-1,7.533034086E-1,7.310342789E-1,1.188114717E0
1.297065006E0,-7.725915909E-1,7.270708084E-1,9.028983116E-1,1.393109862E0
1.301862663E0,-9.187622070E-1,7.048377991E-1,1.106415749E0,1.601585503E0
1.306660319E0,-1.140632629E0,6.619794369E-1,1.311775923E0,1.860111728E0
1.311457923E0,-1.299304962E0,7.144874334E-1,1.482651472E0,2.096888425E0
1.316255579E0,-1.396839142E0,7.894631624E-1,1.547596931E0,2.229230346E0
1.321053235E0,-1.487562180E0,7.836216688E-1,1.457779169E0,2.225314419E0
1.325850840E0,-1.554117203E0,6.967053413E-1,1.326857090E0,2.158987807E0
1.330648496E0,-1.591190338E0,6.574394703E-1,1.149058819E0,2.069891185E0
1.335446152E0,-1.629240036E0,6.365693808E-1,8.782212734E-1,1.957272663E0
1.340243756E0,-1.720214844E0,6.955277920E-1,6.491930485E-1,1.965794911E0
1.345041413E0,-1.837336540E0,7.453026772E-1,5.053153038E-1,2.046124434E0
1.349839069E0,-1.899352074E0,6.236951351E-1,4.820656776E-1,2.056434108E0
1.354636725E0,-1.951795578E0,4.555214643E-1,4.619891644E-1,2.056803289E0
1.359434329E0,-1.920820236E0,3.151900768E-1,3.973178864E-1,1.986644575E0
1.364231985E0,-1.799585342E0,2.268099785E-1,3.359950781E-1,1.844679610E0
1.369029642E0,-1.645711899E0,1.359565258E-1,2.423293591E-1,1.669004299E0
1.373827246E0,-1.497514725E0,-4.752016068E-2,2.095222473E-1,1.512847675E0
1.378624902E0,-1.335980415E0,-2.631921768E-1,1.586871147E-1,1.370873952E0
1.383422558E0,-1.180238724E0,-4.365704060E-1,5.211162567E-2,1.259473218E0
1.388220215E0,-9.944038391E-1,-5.341579914E-1,-1.831412315E-1,1.143549066E0
1.393017819E0,-9.049501419E-1,-5.415575504E-1,-3.815269470E-1,1.121508872E0
1.397815475E0,-8.448457718E-1,-4.853312969E-1,-4.720643759E-1,1.082661360E0
1.402613131E0,-8.522329330E-1,-5.015921593E-1,-5.248765349E-1,1.119549482E0
1.407410735E0,-8.600893021E-1,-5.613193512E-1,-7.424651980E-1,1.267315112E0
1.412208392E0,-8.970804214E-1,-6.427199841E-1,-9.741265178E-1,1.471993456E0
1.417006048E0,-9.656724930E-1,-6.740672588E-1,-1.042241931E0,1.572627825E0
1.421803652E0,-1.049177170E0,-6.175818443E-1,-1.034978509E0,1.597923835E0
1.426601308E0,-1.073637962E0,-5.762593746E-1,-1.099326253E0,1.641125087E0
1.431398965E0,-1.034448624E0,-5.546674728E-1,-1.268662691E0,1.728364830E0
1.436196621E0,-9.603843689E-1,-5.357370377E-1,-1.632798553E0,1.968599356E0
1.440994225E0,-8.132686615E-1,-4.408309460E-1,-2.023726463E0,2.225130701E0
1.445791881E0,-6.290884018E-1,-3.844590187E-1,-2.381497860E0,2.493008827E0
1.450589538E0,-4.652175903E-1,-3.638443947E-1,-2.637183189E0,2.702507229E0
1.455387142E0,-2.500925064E-1,-4.047124386E-1,-2.762654066E0,2.803318731E0
1.460184798E0,-7.214069366E-2,-4.802982807E-1,-2.822629452E0,2.864110288E0
1.464982454E0,3.069686890E-2,-5.428619385E-1,-2.769263029E0,2.822137329E0
1.469780058E0,8.739376068E-2,-6.450536251E-1,-2.669186354E0,2.747414719E0
1.474577715E0,4.819679260E-2,-7.419335842E-1,-2.405343771E0,2.517631234E0
1.479375371E0,-1.483917236E-2,-7.887673378E-1,-2.111382961E0,2.253954774E0
1.484173027E0,-8.239173889E-2,-8.004465103E-1,-1.798535943E0,1.970338690E0
1.488970631E0,-1.876287460E-1,-8.467948437E-1,-1.506282091E0,1.738146079E0
1.493768288E0,-3.279600143E-1,-9.231123924E-1,-1.147934079E0,1.509121238E0
1.498565944E0,-4.150400162E-1,-1.062556982E0,-7.996474504E-1,1.393097843E0
1.503363548E0,-4.467096329E-1,-1.186074972E0,-4.210563004E-1,1.335519279E0
1.508161204E0,-4.876289368E-1,-1.286301851E0,-9.130674601E-2,1.378655633E0
1.512958860E0,-4.495849609E-1,-1.334447145E0,1.466315389E-1,1.415760089E0
1.517756517E0,-4.759511948E-1,-1.301998138E0,2.859964967E-1,1.415458473E0
1.522554121E0,-4.711227417E-1,-1.153362513E0,3.535302579E-1,1.295061916E0
1.527351777E0,-4.065341949E-1,-9.319586754E-1,3.712318540E-1,1.082418641E0
1.532149433E0,-3.706674576E-1,-7.094483376E-1,3.464626074E-1,8.722084877E-1
1.536947038E0,-3.085889816E-1,-5.335006714E-1,3.649783432E-1,7.162815906E-1
1.541744694E0,-2.156810760E-1,-3.488655090E-1,3.094107509E-1,5.137708465E-1
1.546542350E0,-1.183519363E-1,-1.648352146E-1,2.584186494E-1,3.285696687E-1
1.551340006E0,-3.575515747E-2,3.074669838E-2,2.165761292E-1,2.216506496E-1
1.556137610E0,8.172988892E-3,2.097232342E-1,2.095907032E-1,2.966123659E-1
1.560935267E0,1.111507416E-2,3.580256701E-1,2.318978608E-1,4.267113112E-1
1.565732923E0,-7.732391357E-3,5.044105053E-1,3.137264252E-1,5.940656677E-1
1.570530527E0,-5.309772491E-2,6.203982830E-1,3.592089713E-1,7.188494161E-1
1.575328183E0,-9.628486633E-2,7.443279028E-1,4.040060043E-1,8.523588762E-1
1.580125840E0,-9.431934357E-2,8.760274649E-1,4.385642707E-1,9.842046928E-1
1.584923496E0,-1.212463379E-1,1.008167982E0,5.083650351E-1,1.135578427E0
1.589721100E0,-1.101198196E-1,1.130965352E0,5.991519690E-1,1.284598024E0
1.594518756E0,-1.468763351E-1,1.220354795E0,6.467975974E-1,1.388951265E0
1.599316413E0,-1.645011902E-1,1.292866230E0,6.972814202E-1,1.478095095E0
1.604114017E0,-1.534318924E-1,1.407864571E0,7.342225313E-1,1.595213691E0
1.608911673E0,-1.828756332E-1,1.538735151E0,7.653332949E-1,1.728260517E0
1.613709329E0,-2.073545456E-1,1.649447441E0,9.500074983E-1,1.914728967E0
1.618506985E0,-1.672353745E-1,1.699476480E0,1.276060343E0,2.131787507E0
1.623304590E0,-8.651447296E-2,1.784377337E0,1.079276800E0,2.087181268E0
1.628102246E0,5.381107330E-2,1.861055970E0,9.417695403E-1,2.086469464E0
1.632899902E0,1.843872070E-1,2.039311886E0,8.135251403E-1,2.203319034E0
1.637697558E0,2.837285995E-1,2.204530239E0,6.874468327E-1,2.326593785E0
1.642495163E0,4.139118195E-1,2.376096487E0,5.637859106E-1,2.476895650E0
1.647292819E0,5.199327469E-1,2.516074657E0,4.212962389E-1,2.603546094E0
1.652090475E0,5.851211548E-1,2.620011568E0,2.842030525E-1,2.699555289E0
1.656888079E0,5.976486206E-1,2.637995720E0,2.525919676E-1,2.716617013E0
1.661685735E0,5.432739258E-1,2.544316292E0,3.376059830E-1,2.623484277E0
1.666483392E0,4.627008438E-1,2.461032867E0,5.257345438E-1,2.558744156E0
1.671280996E0,3.892841339E-1,2.211948156E0,7.292671204E-1,2.361374031E0
1.676078652E0,3.634710312E-1,1.976814628E0,9.088534117E-1,2.205883448E0
1.680876308E0,3.446531296E-1,1.910250306E0,8.474639058E-1,2.118026696E0
1.685673965E0,3.017854691E-1,1.727888227E0,8.081096411E-1,1.931246588E0
1.690471569E0,2.562847137E-1,1.435290337E0,1.013882399E0,1.775865345E0
1.695269225E0,4.299430847E-1,1.083456993E0,8.913779259E-1,1.467407482E0
1.700066881E0,5.286617279E-1,7.895240784E-1,6.307024360E-1,1.140445990E0
1.704864485E0,5.884790421E-1,4.674593210E-1,1.358888745E-1,7.637352853E-1
1.709662142E0,6.119194031E-1,1.769635677E-1,-1.788637042E-1,6.616295677E-1
1.714459798E0,5.539512634E-1,1.986386776E-1,-5.016356111E-1,7.732771901E-1
1.719257454E0,5.580987930E-1,9.938681126E-2,-9.641894102E-1,1.118487023E0
1.724055058E0,5.908060074E-1,-1.966788769E-1,-1.435908914E0,1.565109813E0
1.728852715E0,4.850625992E-1,-3.362771273E-1,-1.687107563E0,1.787372362E0
1.733650371E0,2.724332809E-1,-1.225812435E-1,-1.756258607E0,1.781485433E0
1.738447975E0,2.729034424E-2,5.640351772E-2,-1.886498809E0,1.887539106E0
1.743245631E0,-5.941963196E-2,-2.344644070E-2,-2.015318155E0,2.016330255E0
1.748043288E0,5.472183228E-2,1.779465675E-1,-1.578653574E0,1.589593208E0
1.752840892E0,3.093910217E-1,3.117976189E-1,-1.218112826E0,1.294889732E0
1.757638548E0,5.704011917E-1,2.358112335E-1,-9.859488010E-1,1.163210856E0
1.762436204E0,8.375520706E-1,1.635674238E-1,-8.017229438E-1,1.170900274E0
1.767233860E0,1.215712547E0,2.170484066E-1,-3.336699009E-1,1.279219532E0
1.772031465E0,1.537397385E0,3.058393002E-1,-7.149200886E-2,1.569152479E0
1.776829121E0,1.816920280E0,2.684019804E-1,1.164113432E-1,1.840323485E0
1.781626777E0,1.772810459E0,3.866994381E-1,2.401789427E-1,1.830322186E0
1.786424433E0,2.104928493E0,1.816701889E-1,6.101388931E-1,2.199090150E0
1.791222038E0,2.563600063E0,-1.384253502E-1,1.186646461E0,2.828309864E0
1.796019694E0,4.145114422E0,-7.316663265E-1,2.694473982E0,4.997749416E0
1.800817350E0,4.710752010E0,-1.044606924E0,3.294325829E0,5.842514082E0
1.805614954E0,3.491273880E0,-1.711578608E0,2.390217066E0,4.564168298E0
1.810412610E0,1.879124165E0,-1.617573738E0,1.822223425E0,3.077036014E0
1.815210267E0,7.849750519E-1,-1.030857801E0,1.991247296E0,2.375693464E0
1.820007923E0,2.384624481E-1,-8.329551220E-1,1.974851489E0,2.156552104E0
1.824805527E0,-7.695674896E-2,-8.817059994E-1,1.797234416E0,2.003342047E0
1.829603183E0,-3.671407700E-1,-1.009533644E0,1.408225179E0,1.771171555E0
1.834400840E0,-5.174636841E-1,-1.083276272E0,1.092198014E0,1.623007285E0
1.839198444E0,-5.019226074E-1,-1.005759478E0,6.841090918E-1,1.315858533E0
1.843996100E0,-3.232402802E-1,-1.068811893E0,2.159203887E-1,1.137305920E0
1.848793756E0,-2.633180618E-1,-1.327152729E0,-1.860496253E-1,1.365754455E0
1.853591413E0,3.960914612E-1,-1.718655825E0,-8.830088377E-1,1.972402316E0
1.858389017E0,1.313931465E0,-2.037547827E0,-1.529004097E0,2.866333995E0
1.863186673E0,2.226562977E0,-2.332204819E0,-2.031967402E0,3.811253537E0
1.867984329E0,2.923584461E0,-2.534311295E0,-2.341523886E0,4.522478739E0
1.872781985E0,3.297998905E0,-2.529075623E0,-2.468054533E0,4.833664600E0
1.877579590E0,3.555601120E0,-2.411828995E0,-2.412096500E0,4.927213000E0
1.882377246E0,4.497378826E0,-2.439359426E0,-2.928674698E0,5.895254550E0
1.887174902E0,5.571305275E0,-2.509428740E0,-3.637440920E0,7.111093552E0
1.891972506E0,6.665941715E0,-2.620758533E0,-3.965866089E0,8.187261329E0
1.896770163E0,8.032548904E0,-2.900508642E0,-4.169274807E0,9.503559581E0
1.901567819E0,1.074601650E1,-3.481327057E0,-4.317773819E0,1.209295991E1
1.906365475E0,1.591180611E1,-3.297008991E0,-4.055232525E0,1.674815670E1
1.911163079E0,1.487080193E1,8.274688721E-1,-1.734161258E0,1.499442463E1
1.915960735E0,9.886720657E0,1.131484985E0,-4.716223478E-1,9.962425973E0
1.920758392E0,6.000800610E0,-8.769941330E-1,5.865885019E-1,6.092849312E0
1.925556048E0,2.800168037E0,-2.348673344E0,1.194662094E0,3.845052019E0
1.930353652E0,9.546251297E-1,-2.386555195E0,1.379100084E0,2.916997065E0
1.935151308E0,8.661403656E-1,-1.146752834E0,1.861015081E0,2.351301412E0
1.939948965E0,6.323890686E-1,2.841067314E-1,2.682873487E0,2.771000310E0
1.944746569E0,1.742601395E-1,1.006817102E0,3.267456532E0,3.423495211E0
1.949544225E0,-5.443048477E-1,1.071610451E0,3.243086815E0,3.458645517E0
1.954341881E0,-9.230909348E-1,8.357610703E-1,3.071723223E0,3.314525154E0
1.959139538E0,-1.304443359E0,8.669614792E-1,3.090641499E0,3.464860684E0
1.963937142E0,-1.605226517E0,1.226383924E0,3.530370951E0,4.067467117E0
1.968734798E0,-1.730255127E0,1.840853930E0,4.121515751E0,4.834192598E0
1.973532454E0,-1.927891731E0,2.533286095E0,4.211624622E0,5.279402137E0
1.978330058E0,-2.527410507E0,3.227007866E0,3.654365063E0,5.491426741E0
1.983127715E0,-3.378219604E0,3.576643229E0,2.870471001E0,5.695994052E0
1.987925371E0,-4.307537079E0,4.412883759E0,2.189874649E0,6.544002577E0
1.992723027E0,-5.130338669E0,5.506225586E0,1.552930117E0,7.684431469E0
1.997520631E0,-5.869850159E0,6.372564793E0,7.973102927E-1,8.700599211E0
2.002318288E0,-6.599614143E0,6.910988331E0,2.736830711E-2,9.556014628E0
2.007115944E0,-7.243226051E0,6.952296257E0,-9.283894300E-1,1.008269080E1
2.011913548E0,-7.872726440E0,6.667095184E0,-1.778327107E0,1.046864017E1
2.016711204E0,-8.080672264E0,6.195652962E0,-2.340724230E0,1.044807972E1
2.021508860E0,-8.109993935E0,5.530228615E0,-2.721783638E0,1.018643884E1
2.026306517E0,-7.900311470E0,4.585216522E0,-2.777850389E0,9.547543384E0
2.031104121E0,-7.503754616E0,3.418702364E0,-2.651814461E0,8.661753813E0
2.035901777E0,-7.027114868E0,2.152761459E0,-2.506724119E0,7.765203866E0
2.040699433E0,-6.621964455E0,1.027742863E0,-2.412908316E0,7.122414982E0
2.045497038E0,-6.312548637E0,1.942191124E-1,-2.403687239E0,6.757492412E0
2.050294694E0,-6.041631699E0,-3.055925369E-1,-2.528117657E0,6.556376992E0
2.055092350E0,-5.835392952E0,-4.658513069E-1,-2.813429594E0,6.494937600E0
2.059890006E0,-5.712760925E0,-4.692564011E-1,-3.206538439E0,6.567931769E0
2.064687663E0,-5.446646690E0,-4.192748070E-1,-3.565202475E0,6.523221613E0
2.069485267E0,-5.054170609E0,-3.043990135E-1,-3.821262360E0,6.343449008E0
2.074282923E0,-4.812558174E0,-8.241462708E-2,-4.068817139E0,6.302601150E0
2.079080579E0,-4.626416206E0,-1.119041443E-2,-4.238391876E0,6.274377884E0
2.083878183E0,-4.364938736E0,-1.348867416E-1,-4.078978539E0,5.975696656E0
2.088675840E0,-4.055238724E0,-2.920970917E-1,-3.903789997E0,5.636475686E0
2.093473496E0,-3.719540596E0,-5.035734177E-1,-3.895269871E0,5.409408082E0
2.098271100E0,-3.466048241E0,-6.779813766E-1,-3.912155151E0,5.270494007E0
2.103068756E0,-3.254532814E0,-9.914979935E-1,-3.619209290E0,4.967265645E0
2.107866413E0,-3.204235077E0,-1.410093784E0,-2.998864174E0,4.609628319E0
2.112664069E0,-3.595720291E0,-2.514334679E0,-2.558713198E0,5.079182662E0
2.117461725E0,-3.975473404E0,-3.702308655E0,-1.948005199E0,5.771152607E0
2.122259329E0,-4.132237434E0,-4.353763580E0,-1.175059080E0,6.116486522E0
2.127056985E0,-4.170906067E0,-4.583861351E0,-2.484221458E-1,6.202415325E0
2.131854642E0,-3.890925407E0,-4.212678432E0,6.317710876E-1,5.769323601E0
2.136652246E0,-4.274870872E0,-5.163799286E0,7.268403769E-1,6.742969744E0
2.141449902E0,-4.584348679E0,-5.886764050E0,-8.544635773E-2,7.461738729E0
2.146247558E0,-4.571843624E0,-6.057256222E0,-6.957983971E-1,7.620777025E0
2.151045163E0,-4.578783512E0,-5.748587132E0,-1.222847223E0,7.450293135E0
2.155842819E0,-4.896025181E0,-5.228921413E0,-2.229166031E0,7.502123893E0
2.160640475E0,-5.452491283E0,-4.768509388E0,-3.532201290E0,8.058832976E0
2.165438131E0,-5.680766582E0,-4.454356670E0,-4.992516518E0,8.777107923E0
2.170235735E0,-5.620277405E0,-4.257974148E0,-5.888122559E0,9.186285931E0
2.175033392E0,-5.272938728E0,-4.060028553E0,-6.208588123E0,9.101334032E0
2.179831048E0,-4.805490494E0,-3.748670101E0,-6.136749268E0,8.648985951E0
2.184628704E0,-4.059446812E0,-3.429709911E0,-5.733433723E0,7.817562328E0
2.189426308E0,-3.303557873E0,-3.268968105E0,-5.272002697E0,7.028062288E0
2.194223965E0,-2.671805859E0,-3.336350441E0,-4.515629768E0,6.217772352E0
2.199021621E0,-2.230808258E0,-3.361716270E0,-3.473976612E0,5.324110749E0
2.203819277E0,-1.882617474E0,-3.239222050E0,-2.363435507E0,4.429744398E0
2.208616881E0,-1.289778233E0,-3.029185295E0,-1.480117321E0,3.609742197E0
2.213414538E0,-9.168896675E-1,-2.727741241E0,-4.527018070E-1,2.913107940E0
2.218212194E0,-1.454758644E0,-1.876273155E0,2.990829945E-1,2.392942603E0
2.223009850E0,-1.277175426E0,-1.768591404E0,1.401281834E0,2.592813800E0
2.227807454E0,-8.914546967E-1,-1.993352890E0,2.528974771E0,3.341236390E0
2.232605110E0,-5.044565201E-1,-2.236192703E0,2.729861498E0,3.564712889E0
2.237402767E0,7.715702057E-2,-1.276854992E0,3.163774252E0,3.412591302E0
2.242200371E0,1.241308212E0,9.523429871E-1,3.755348682E0,4.068224056E0
2.246998027E0,2.301483154E0,2.198203087E0,4.090128899E0,5.182477779E0
2.251795683E0,3.196901798E0,2.281204700E0,4.263471127E0,5.796659559E0
2.256593340E0,3.338328362E0,1.486315727E0,4.541956425E0,5.829488730E0
2.261390944E0,2.510246754E0,5.083937645E-1,4.386687756E0,5.079648851E0
2.266188600E0,1.970318317E0,-5.825281143E-2,4.697727680E0,5.094525789E0
2.270986256E0,1.957471848E0,-2.115826607E-1,4.838303566E0,5.223566277E0
2.275783913E0,2.104605675E0,2.789258957E-2,4.861597538E0,5.297666813E0
2.280581517E0,2.241560459E0,5.627412796E-1,4.502345562E0,5.060868167E0
2.285379173E0,2.426720142E0,1.123754978E0,4.633426189E0,5.349806927E0
2.290176829E0,2.661655664E0,1.695696831E0,4.728481293E0,5.684921631E0
2.294974433E0,2.976871252E0,2.366152763E0,4.812324524E0,6.133425525E0
2.299772090E0,3.290092945E0,2.962995529E0,4.697721481E0,6.455435013E0
2.304569746E0,3.498870850E0,3.413724422E0,4.643829823E0,6.742460017E0
2.309367402E0,3.649894714E0,3.854772091E0,4.310147285E0,6.838009134E0
2.314165058E0,3.463828564E0,5.346965313E0,3.483846664E0,7.261221244E0
2.318962663E0,3.490925312E0,5.893835068E0,3.286122799E0,7.597529493E0
2.323760319E0,3.443006039E0,6.242712021E0,3.132175207E0,7.786929144E0
2.328557975E0,3.379192352E0,6.315160275E0,3.099077940E0,7.804131875E0
2.333355579E0,3.264065266E0,6.693603516E0,3.139178991E0,8.081639365E0
2.338153235E0,3.187407970E0,6.929289818E0,3.114813566E0,8.238731122E0
2.342950892E0,3.173296452E0,7.249162197E0,2.987754822E0,8.458536623E0
2.347748548E0,3.144114971E0,7.678574085E0,2.835016251E0,8.768310902E0
2.352546152E0,3.108975172E0,8.218664169E0,2.607566833E0,9.165782680E0
2.357343808E0,3.039980888E0,8.434209824E0,2.215838909E0,9.235113493E0
2.362141465E0,2.927945137E0,8.571734428E0,1.930708170E0,9.261486267E0
2.366939121E0,2.875993013E0,8.747920036E0,1.131432176E0,9.277800361E0
2.371736725E0,2.842370033E0,8.885592461E0,-1.034011006E0,9.386266539E0
2.376534381E0,2.541107178E0,8.509447098E0,-2.907566071E0,9.344616421E0
2.381332038E0,1.999955058E0,8.410345078E0,-4.000442982E0,9.525611193E0
2.386129694E0,1.572350264E0,8.274230003E0,-4.382637501E0,9.494349844E0
2.390927298E0,1.240055799E0,7.871861458E0,-4.157083511E0,8.988063446E0
2.395724954E0,1.020139933E0,7.426033497E0,-3.761448383E0,8.386605566E0
2.400522610E0,9.817928076E-1,7.073294640E0,-3.069409609E0,7.772817348E0
2.405320267E0,1.126301885E0,6.768690109E0,-2.236844063E0,7.217145772E0
2.410117871E0,1.258911014E0,6.172003746E0,-1.369901180E0,6.446325808E0
2.414915527E0,1.266344309E0,5.567019463E0,-4.626131058E-1,5.727944177E0
2.419713183E0,1.491663575E0,6.023697853E0,3.656165600E-1,6.216403423E0
2.424510788E0,1.508985162E0,5.993082523E0,1.126770735E0,6.282012945E0
2.429308444E0,1.487231374E0,5.902035236E0,1.811311483E0,6.350332777E0
2.434106100E0,1.491906166E0,6.171332836E0,2.372112036E0,6.777761319E0
2.438903756E0,1.419333100E0,6.635608673E0,2.820340157E0,7.348477904E0
2.443701360E0,1.304419637E0,7.086838245E0,3.119770527E0,7.852245223E0
2.448499017E0,1.145894647E0,7.420104027E0,3.294274092E0,8.198979211E0
2.453296673E0,9.851866961E-1,7.848283291E0,3.365640640E0,8.596143342E0
2.458094329E0,7.725719810E-1,8.089644432E0,3.448421955E0,8.827843932E0
2.462891933E0,6.089590192E-1,8.285582542E0,3.499732494E0,9.014978463E0
2.467689590E0,4.474804401E-1,8.498434067E0,3.567315817E0,9.227641219E0
2.472487246E0,2.483868003E-1,8.663755417E0,3.586949348E0,9.380221722E0
2.477284902E0,1.242497861E-1,8.679093361E0,3.616241455E0,9.403153824E0
2.482082506E0,1.082420349E-3,8.692832947E0,3.562549114E0,9.394525108E0
2.486880163E0,-1.423914433E-1,8.733641624E0,3.476713657E0,9.401292954E0
2.491677819E0,-2.773444653E-1,8.739298820E0,3.376245260E0,9.372902212E0
2.496475475E0,-3.585281372E-1,8.640464783E0,3.240614653E0,9.235137109E0
2.501273079E0,-4.270763099E-1,8.504048347E0,3.101869345E0,9.062164526E0
2.506070735E0,-4.879510403E-1,8.224795341E0,2.884698153E0,8.729652803E0
2.510868392E0,-6.527161598E-1,7.552838802E0,2.220206022E0,7.899413088E0
2.515666048E0,-6.841641665E-1,5.423120975E0,-2.118775845E0,5.862382860E0
2.520463652E0,-2.035438716E-1,2.450250626E0,-4.848190308E0,5.436001057E0
2.525261308E0,4.762063026E-1,8.792963028E-1,-5.201962471E0,5.297201901E0
2.530058965E0,7.475972772E-1,2.735176086E-1,-3.903908491E0,3.984245861E0
2.534856569E0,9.632065892E-1,-2.480278015E-1,-1.659382343E0,1.934640660E0
2.539654225E0,1.512382507E0,-1.552528381E0,6.707596779E-1,2.268824314E0
2.544451881E0,2.091915131E0,-3.638457298E0,2.223713160E0,4.749671635E0
2.549249538E0,2.598162651E0,-6.503460884E0,2.577207088E0,7.462402362E0
2.554047142E0,3.518851757E0,-1.066797543E1,-8.596000671E-1,1.126618523E1
2.558844798E0,5.505203724E0,-1.811541748E1,-1.220086765E1,2.252413794E1
2.563642454E0,5.703358173E0,-2.480697441E1,-1.512895489E1,2.961080124E1
2.568440110E0,6.305423737E0,-3.005431175E1,-1.432076836E1,3.388368973E1
2.573237715E0,6.293461323E0,-3.254018402E1,-1.021657085E1,3.468212150E1
2.578035371E0,5.090609550E0,-3.253754425E1,-5.805183411E0,3.344108619E1
2.582833027E0,3.704131842E0,-3.054690552E1,-2.584878206E0,3.087904831E1
2.587630683E0,2.177735806E0,-2.713447762E1,-6.125805378E-1,2.722861847E1
2.592428288E0,1.209264040E0,-2.282062340E1,4.753856659E-1,2.285758437E1
2.597225944E0,7.163531780E-1,-1.862530899E1,7.620832920E-1,1.865465271E1
2.602023600E0,5.733711123E-1,-1.558006096E1,5.907552242E-1,1.560179623E1
2.606821256E0,3.092004955E-1,-1.298230076E1,3.220787048E-1,1.298997585E1
2.611618860E0,4.027979076E-1,-1.235919762E1,-6.240575314E-1,1.238149667E1
2.616416517E0,6.219851971E-1,-1.357794952E1,-2.327105045E0,1.378996000E1
2.621214173E0,5.502174497E-1,-1.356376171E1,-4.582365036E0,1.432747153E1
2.626011829E0,3.467081189E-1,-1.258422852E1,-6.580899239E0,1.420532466E1
2.630809433E0,1.535638571E-1,-1.175686073E1,-8.344191551E0,1.441779764E1
2.635607090E0,-3.514285684E-1,-1.214639950E1,-9.444396019E0,1.539009873E1
2.640404746E0,-1.421659946E0,-1.253940582E1,-9.858978271E0,1.601428325E1
2.645202402E0,-2.851613045E0,-1.280208206E1,-9.919137955E0,1.644427864E1
2.650000006E0,-3.975778580E0,-1.342166519E1,-9.168134689E0,1.673327839E1
2.654797663E0,-5.314730644E0,-1.380419827E1,-7.233920574E0,1.646608206E1
2.659595319E0,-6.400174618E0,-1.299586582E1,-4.087928295E0,1.505210687E1
2.664392975E0,-6.687990189E0,-1.201626682E1,-3.215518475E0,1.412301102E1
2.669190579E0,-6.717822552E0,-1.146034145E1,-2.418021679E0,1.350242182E1
2.673988235E0,-6.193846703E0,-1.099235916E1,-1.014071703E0,1.265796344E1
2.678785892E0,-5.407757282E0,-1.063077927E1,-3.582286835E-2,1.192722054E1
2.683583548E0,-4.667828560E0,-1.011723614E1,4.688539505E-1,1.115199151E1
2.688381152E0,-4.061356544E0,-9.244421005E0,5.155143738E-1,1.011037545E1
2.693178808E0,-3.464784622E0,-8.240580559E0,2.502603531E-1,8.942848018E0
2.697976465E0,-2.859622478E0,-7.228683472E0,-5.589175224E-2,7.773958409E0
2.702774121E0,-2.320105076E0,-6.278857231E0,-1.036963463E-1,6.694601454E0
2.707571725E0,-1.849059939E0,-5.446436882E0,3.436899185E-2,5.751858708E0
2.712369381E0,-1.428167105E0,-4.619120598E0,1.320748329E-1,4.836670357E0
2.717167038E0,-1.108180285E0,-3.679893494E0,2.114763260E-1,3.848948156E0
2.721964694E0,-8.866976500E-1,-2.712478638E0,2.582933903E-1,2.865395009E0
2.726762350E0,-7.518397570E-1,-1.628434181E0,2.198519707E-1,1.807040617E0
2.731559954E0,-3.916126788E-1,-7.001352310E-1,2.107379436E-1,8.294337302E-1
2.736357610E0,-8.066847920E-3,1.228713989E-1,2.693058252E-1,2.961217355E-1
2.741155267E0,2.480850965E-1,8.526477814E-1,2.692617178E-1,9.279312080E-1
2.745952871E0,3.681747019E-1,1.567968369E0,2.547228336E-1,1.630632128E0
2.750750527E0,3.011229634E-1,2.278337955E0,2.882097960E-1,2.316152794E0
2.755548183E0,2.012112588E-1,3.026811600E0,4.626585245E-1,3.068570896E0
2.760345840E0,1.716608107E-1,3.674954414E0,6.457469463E-1,3.735203676E0
2.765143444E0,1.838461310E-1,4.280373096E0,7.892767191E-1,4.356414923E0
2.769941100E0,2.402387857E-1,4.907726765E0,9.478718042E-1,5.004194004E0
2.774738756E0,2.288767695E-1,5.545116901E0,1.135491610E0,5.664807783E0
2.779536413E0,1.647876650E-1,6.187913895E0,1.360890150E0,6.337937783E0
2.784334017E0,1.753641665E-2,6.807612419E0,1.618458152E0,6.997378164E0
2.789131673E0,-9.290464222E-2,7.316023827E0,1.845363259E0,7.545740617E0
2.793929329E0,-2.235497981E-1,7.904613972E0,2.007401228E0,8.158587883E0
2.798726985E0,-2.619141042E-1,8.494518280E0,2.121010780E0,8.759230933E0
2.803524590E0,-3.155839145E-1,9.002274513E0,2.219028950E0,9.277102409E0
2.808322246E0,-3.726748228E-1,9.385071754E0,2.232025385E0,9.654035202E0
2.813119902E0,-4.259380996E-1,9.767309189E0,2.239207983E0,1.002974598E1
2.817917558E0,-4.896312654E-1,1.007973289E1,2.228609562E0,1.033476921E1
2.822715215E0,-5.256883502E-1,1.025790501E1,2.150469780E0,1.049406897E1
2.827512819E0,-5.390880108E-1,1.038323021E1,2.079177141E0,1.060306857E1
2.832310475E0,-5.872413516E-1,1.045332336E1,1.977048635E0,1.065483660E1
2.837108131E0,-5.936786532E-1,1.049924088E1,1.868595600E0,1.068073793E1
2.841905788E0,-6.469119191E-1,1.050425625E1,1.763700366E0,1.067091999E1
2.846703392E0,-6.491426826E-1,1.044689274E1,1.653105378E0,1.059677835E1
2.851501048E0,-6.864532828E-1,1.048731518E1,1.639534235E0,1.063687314E1
2.856298704E0,-7.038208842E-1,1.042229843E1,1.615493178E0,1.057021696E1
2.861096360E0,-7.205803394E-1,1.036903763E1,1.597921371E0,1.051615567E1
2.865893965E0,-7.198191285E-1,1.034666157E1,1.577150583E0,1.049089840E1
2.870691621E0,-7.229567766E-1,1.039336014E1,1.581866503E0,1.053787944E1
2.875489277E0,-7.297098637E-1,1.047555828E1,1.605158329E0,1.062291537E1
2.880286881E0,-7.566157579E-1,1.053590488E1,1.701871276E0,1.069925815E1
2.885084538E0,-7.699494362E-1,1.061507034E1,1.824164391E0,1.079815337E1
2.889882194E0,-7.958825231E-1,1.061037636E1,1.974069118E0,1.082175884E1
2.894679850E0,-8.222331405E-1,1.066537380E1,2.134523869E0,1.090790804E1
2.899477506E0,-8.248458505E-1,1.071788216E1,2.300756931E0,1.099303648E1
2.904275110E0,-8.225154281E-1,1.084914303E1,2.461014748E0,1.115513468E1
2.909072767E0,-8.506123424E-1,1.097786999E1,2.574621201E0,1.130777808E1
2.913870423E0,-8.418352604E-1,1.117818069E1,2.651130199E0,1.151906687E1
2.918668079E0,-8.753330112E-1,1.111544609E1,2.678959370E0,1.146717807E1
2.923465683E0,-8.695471287E-1,1.125113869E1,2.699067831E0,1.160298242E1
2.928263340E0,-8.935303688E-1,1.137953663E1,2.720876217E0,1.173436908E1
2.933060996E0,-9.303973913E-1,1.148632717E1,2.780178070E0,1.185456626E1
2.937858652E0,-9.563519359E-1,1.154524803E1,2.819547415E0,1.192296980E1
2.942656256E0,-9.526273012E-1,1.151569748E1,2.843933582E0,1.189986325E1
2.947453913E0,-9.505803585E-1,1.159601593E1,2.875074148E0,1.198487546E1
2.952251569E0,-9.457504749E-1,1.163306236E1,2.898729324E0,1.202602243E1
2.957049225E0,-8.906883001E-1,1.163638592E1,2.915023804E0,1.202897197E1
2.961846829E0,-8.645617962E-1,1.162263775E1,2.900489330E0,1.201024620E1
2.966644485E0,-7.982059121E-1,1.169927788E1,2.874418020E0,1.207362889E1
2.971442142E0,-7.274053693E-1,1.177294827E1,2.855986595E0,1.213623042E1
2.976239798E0,-5.946171880E-1,1.189618301E1,2.816519976E0,1.223950672E1
2.981037402E0,-5.572282076E-1,1.209516144E1,2.756008387E0,1.241768963E1
2.985835058E0,-4.858998358E-1,1.213318634E1,2.729526997E0,1.244590804E1
2.990632715E0,-4.165074825E-1,1.199845123E1,2.701453209E0,1.230585876E1
2.995430371E0,-3.442486525E-1,1.197309399E1,2.647692204E0,1.226718227E1
3.000227975E0,-2.669647932E-1,1.186574745E1,2.589660168E0,1.214798636E1
3.005025631E0,-1.752179861E-1,1.167656994E1,2.488583088E0,1.194010187E1
3.009823288E0,-1.217480898E-1,1.138659763E1,2.387041092E0,1.163474939E1
3.014620944E0,-7.041364908E-2,1.095301628E1,2.370617390E0,1.120684392E1
3.019418600E0,-1.135063171E-2,1.046674728E1,2.269666433E0,1.071000996E1
3.024216204E0,1.718211770E-1,9.884031296E0,1.306227922E0,9.971450675E0
3.029013860E0,4.769926965E-1,9.172171593E0,-6.932885647E-1,9.210695022E0
3.033811517E0,8.769349456E-1,8.164201736E0,-3.425628185E0,8.897085666E0
3.038609121E0,1.175619245E0,7.355525494E0,-5.264816284E0,9.121629591E0
3.043406777E0,1.279146314E0,7.024303913E0,-5.423676491E0,8.966232622E0
3.048204433E0,1.233660579E0,6.887528419E0,-4.423682213E0,8.278220248E0
3.053002090E0,1.147367716E0,6.698584557E0,-3.342420340E0,7.573589734E0
3.057799746E0,1.044211507E0,6.533804893E0,-2.562795162E0,7.095696097E0
3.062597350E0,9.766046405E-1,6.225445271E0,-2.234349966E0,6.685973767E0
3.067395006E0,9.273697138E-1,5.859316826E0,-2.355882168E0,6.382929503E0
3.072192663E0,9.037783146E-1,5.105322838E0,-3.824116468E0,6.442437682E0
3.076990319E0,1.132543325E0,3.439321518E0,-8.249019623E0,9.008768596E0
3.081787975E0,2.744579077E0,-2.746296883E0,-2.773754883E1,2.800797165E1
3.086585579E0,1.789714098E0,-7.906384468E0,-3.872698593E1,3.956631688E1
3.091383235E0,-1.181073904E0,-1.115143013E1,-3.469226074E1,3.645959798E1
3.096180892E0,-1.888034701E0,-1.919065475E1,-2.494404602E1,3.152857968E1
3.100978548E0,-2.008242130E0,-2.449717712E1,-1.652683258E1,2.961892838E1
3.105776152E0,-2.496479511E0,-2.949478531E1,-6.317200184E0,3.026684306E1
3.110573808E0,-1.129552126E0,-3.406223679E1,5.559596062E0,3.453144902E1
3.115371465E0,-9.268748760E-2,-3.595006561E1,1.234864616E1,3.801190433E1
3.120169121E0,-2.885091305E-1,-3.685935974E1,1.465687943E1,3.966761592E1
3.124966725E0,-8.067454100E-1,-3.636260986E1,1.332653236E1,3.873611621E1
3.129764381E0,-1.794360399E0,-3.440346527E1,1.000377846E1,3.587330115E1
3.134562038E0,-3.365307331E0,-3.156444168E1,6.104115009E0,3.232490514E1
3.139359694E0,-4.755912304E0,-2.786956787E1,2.172667742E0,2.835581070E1
3.144157298E0,-4.750014782E0,-2.053865433E1,-1.874919891E0,2.116398560E1
3.148954954E0,-5.116870880E0,-1.718822861E1,-7.477290630E0,1.943006550E1
3.153752610E0,-6.436251163E0,-1.900126839E1,-1.394380379E1,2.443160235E1
3.158550267E0,-6.891752243E0,-1.865884972E1,-1.977387047E1,2.804736841E1
3.163347923E0,-6.053345203E0,-1.718729210E1,-2.218107414E1,2.870620226E1
3.168145527E0,-4.602582932E0,-1.431367970E1,-2.086004639E1,2.571394041E1
3.172943183E0,-3.401257992E0,-1.181004238E1,-1.649388123E1,2.056924342E1
3.177740840E0,-2.799761295E0,-1.213204670E1,-1.083800983E1,1.650720078E1
3.182538496E0,-2.653993845E0,-1.092354298E1,-6.478265762E0,1.297441335E1
3.187336100E0,-2.944308519E0,-1.242774677E1,-4.064372540E0,1.340287158E1
3.192133756E0,-3.532891750E0,-1.220014381E1,-3.188312054E0,1.309542542E1
3.196931413E0,-3.879444361E0,-9.923954010E0,-2.858642101E0,1.103207988E1
3.201729069E0,-4.334891319E0,-7.559788704E0,-2.943478346E0,9.198138549E0
3.206526725E0,-4.806790829E0,-7.019285202E0,-2.687449932E0,8.921770562E0
3.211324329E0,-4.959005356E0,-5.601933479E0,-2.106806040E0,7.772517257E0
3.216121985E0,-4.528642654E0,-4.925341606E0,-1.354881287E0,6.826660789E0
3.220919642E0,-3.794866323E0,-4.317085266E0,-4.695253372E-1,5.767034736E0
3.225717298E0,-3.212015390E0,-4.288745880E0,1.307744980E-1,5.359802801E0
3.230514902E0,-2.977063656E0,-4.436208725E0,5.456504822E-1,5.370343593E0
3.235312558E0,-3.014184475E0,-4.572678566E0,6.734001637E-1,5.517985601E0
3.240110215E0,-3.142426491E0,-4.699438095E0,5.591616631E-1,5.680864760E0
3.244907871E0,-3.141909599E0,-4.628673553E0,4.292795658E-1,5.610748234E0
3.249705475E0,-2.948952436E0,-4.339487076E0,1.380043030E-1,5.248477278E0
3.254503131E0,-2.831179857E0,-3.834831238E0,-1.332371235E-1,4.768570240E0
3.259300788E0,-2.694317102E0,-3.196168900E0,-3.262305260E-1,4.193002103E0
3.264098444E0,-2.596543312E0,-2.509440422E0,-2.378916740E-1,3.618828657E0
3.268896048E0,-2.581180096E0,-1.865114212E0,-1.008987427E-1,3.186113976E0
3.273693704E0,-2.497934818E0,-1.339070320E0,2.580370903E-1,2.845939356E0
3.278491360E0,-2.414061546E0,-8.182668686E-1,6.101586819E-1,2.620982151E0
3.283289017E0,-2.386890888E0,-2.353925705E-1,9.353054762E-1,2.574384219E0
3.288086673E0,-2.342056036E0,3.285522461E-1,1.256478310E0,2.678042344E0
3.292884277E0,-2.241587639E0,8.165626526E-1,1.572806358E0,2.857483079E0
3.297681933E0,-2.085925102E0,1.319820404E0,1.819009304E0,3.066236175E0
3.302479590E0,-1.939690948E0,1.845584869E0,2.016364098E0,3.351762023E0
3.307277246E0,-1.795875072E0,2.310328007E0,2.169341087E0,3.642639637E0
3.312074850E0,-1.656916618E0,2.738063812E0,2.263624668E0,3.919995250E0
3.316872506E0,-1.491829395E0,3.190980911E0,2.325593710E0,4.220935942E0
3.321670163E0,-1.341137052E0,3.695377350E0,2.486553431E0,4.651602983E0
3.326467819E0,-1.238110185E0,4.272778988E0,2.542926073E0,5.124063829E0
3.331265475E0,-1.115696669E0,4.801394463E0,2.639987946E0,5.591753231E0
3.336063079E0,-9.548625946E-1,5.345855713E0,2.746452332E0,6.085469274E0
3.340860735E0,-8.103569746E-1,5.951615334E0,2.835717916E0,6.642266150E0
3.345658392E0,-7.108420730E-1,6.542216301E0,2.928959370E0,7.203103051E0
3.350456048E0,-6.105292439E-1,7.086637497E0,2.971127033E0,7.708487064E0
3.355253652E0,-5.069638491E-1,7.654252529E0,3.033916950E0,8.249196699E0
3.360051308E0,-4.524680376E-1,8.199654579E0,3.076571226E0,8.769512703E0
3.364848965E0,-3.678046465E-1,8.758791924E0,3.120291710E0,9.305263917E0
3.369646621E0,-3.361339569E-1,9.281464577E0,3.193742990E0,9.821332141E0
3.374444277E0,-3.260652721E-1,9.684193611E0,3.200877905E0,1.020468245E1
3.379241881E0,-2.823965847E-1,1.007229233E1,3.184721470E0,1.056755749E1
3.384039538E0,-2.339808941E-1,1.024503231E1,3.150236607E0,1.072098059E1
3.388837194E0,-2.023839355E-1,1.026720428E1,2.982820034E0,1.069362700E1
3.393634850E0,-1.375873387E-1,1.033006859E1,2.778697968E0,1.069814983E1
3.398432454E0,-9.681172669E-2,1.043584251E1,2.638764381E0,1.076472289E1
3.403230110E0,-6.562032551E-2,1.051983166E1,2.513320446E0,1.081609651E1
3.408027767E0,-1.320151612E-2,1.052458000E1,2.321788788E0,1.077764639E1
3.412825423E0,4.802638665E-3,1.035922909E1,2.060390234E0,1.056214269E1
3.417623079E0,4.292850941E-2,1.027952957E1,1.895021200E0,1.045283102E1
3.422420683E0,7.020969689E-2,1.033062935E1,1.840688944E0,1.049356793E1
3.427218340E0,9.861870110E-2,1.036174679E1,1.826041698E0,1.052187961E1
3.432015996E0,1.425796151E-1,1.042303848E1,1.825169683E0,1.058259441E1
3.436813652E0,1.518083215E-1,1.045482445E1,1.909333825E0,1.062882664E1
3.441611256E0,1.911585182E-1,1.050739002E1,2.020803452E0,1.070165563E1
3.446408913E0,2.247650325E-1,1.053296280E1,2.171308279E0,1.075678411E1
3.451206569E0,2.596323788E-1,1.051967430E1,2.324767113E0,1.077661814E1
3.456004225E0,3.364217281E-1,1.046518803E1,2.514638901E0,1.076832154E1
3.460801829E0,4.217167497E-1,1.052969742E1,2.683305264E0,1.087439653E1
3.465599485E0,4.820953608E-1,1.061507988E1,2.821127653E0,1.099413926E1
3.470397142E0,5.842851400E-1,1.066156864E1,2.882747650E0,1.105986750E1
3.475194798E0,6.730418801E-1,1.069071102E1,2.928030968E0,1.110484817E1
3.479992402E0,7.553144693E-1,1.068099880E1,2.940388680E0,1.110405876E1
3.484790058E0,8.310743570E-1,1.074000454E1,2.941369534E0,1.116646931E1
3.489587715E0,8.977693319E-1,1.084127903E1,2.919350863E0,1.126330015E1
3.494385371E0,9.839558601E-1,1.084374619E1,2.936597586E0,1.127734924E1
3.499183027E0,1.098950148E0,1.090757084E1,2.933599710E0,1.134851533E1
3.503980631E0,1.240134001E0,1.108289146E1,2.924390316E0,1.152911420E1
3.508778288E0,1.371606946E0,1.116399574E1,2.930644512E0,1.162345834E1
3.513575944E0,1.512350202E0,1.123467541E1,2.935323715E0,1.170987873E1
3.518373600E0,1.624055982E0,1.136189175E1,2.904648542E0,1.183921978E1
3.523171204E0,1.754522920E0,1.146914768E1,2.864557743E0,1.195095771E1
3.527968860E0,1.841632962E0,1.153977203E1,2.879293442E0,1.203529315E1
3.532766517E0,1.949793100E0,1.161447334E1,2.872066259E0,1.212214704E1
3.537564173E0,2.081268549E0,1.172197151E1,2.866457224E0,1.224552457E1
3.542361829E0,2.217028141E0,1.185739708E1,2.843429089E0,1.239347281E1
3.547159433E0,2.338159800E0,1.201590729E1,2.807752848E0,1.255915981E1
3.551957090E0,2.433481216E0,1.192968559E1,2.735889673E0,1.247895514E1
3.556754746E0,2.315735340E0,1.126904392E1,2.623638153E0,1.179989230E1
3.561552402E0,2.091779709E0,1.060083389E1,2.552722931E0,1.110268508E1
3.566350006E0,1.953954577E0,1.006581593E1,2.489925385E0,1.055169736E1
3.571147663E0,1.823318124E0,9.584800720E0,2.444920301E0,1.005835618E1
3.575945319E0,1.848652840E0,9.023251534E0,1.636261702E0,9.354888450E0
3.580742975E0,1.973969936E0,8.274925232E0,-1.383764744E-1,8.508236771E0
3.585540631E0,2.025444269E0,7.481634140E0,-2.467553616E0,8.134254406E0
3.590338235E0,1.972443104E0,6.478271961E0,-5.430838585E0,8.680584493E0
3.595135892E0,1.891631126E0,5.482209682E0,-8.098670959E0,9.960992051E0
3.599933548E0,1.719363809E0,4.536069393E0,-9.891903877E0,1.101734540E1
3.604731204E0,1.415405273E0,4.211613655E0,-9.346588135E0,1.034890194E1
3.609528808E0,1.071776628E0,3.680563927E0,-8.268583298E0,9.113985172E0
3.614326465E0,7.239068151E-1,3.245677948E0,-6.527683258E0,7.325920771E0
3.619124121E0,4.140254855E-1,2.374262333E0,-6.092719078E0,6.552080928E0
3.623921777E0,6.078553200E-2,2.960309982E-1,-8.417355537E0,8.422778845E0
3.628719433E0,1.063996792E0,-8.557106972E0,-1.979431152E1,2.159099205E1
3.633517038E0,5.185454488E-1,-2.067145157E1,-3.327741623E1,3.917861955E1
3.638314694E0,-9.475702643E-1,-2.600183105E1,-2.724579239E1,3.767394737E1
3.643112350E0,-4.631118178E-1,-3.118833923E1,-1.979284668E1,3.694162634E1
3.647910006E0,3.043101430E-1,-3.874023438E1,-1.066706085E1,4.018313765E1
3.652707610E0,1.389926195E0,-4.313061523E1,-3.717956543E-1,4.315460691E1
3.657505267E0,1.588754892E0,-4.245875931E1,8.279897690E0,4.328772447E1
3.662302923E0,8.968990445E-1,-3.918075562E1,1.312399578E1,4.133007747E1
3.667100579E0,-5.965067148E-1,-3.376198578E1,1.280692482E1,3.611432994E1
3.671898235E0,-1.777933121E0,-2.665716934E1,1.022542763E1,2.860638204E1
3.676695840E0,-2.190922976E0,-1.935191727E1,7.342747688E0,2.081376441E1
3.681493496E0,-2.811679125E0,-1.706967163E1,4.268536091E0,1.781851928E1
3.686291152E0,-3.229143620E0,-1.575233650E1,6.716163158E-1,1.609392874E1
3.691088808E0,-3.313833237E0,-1.312201023E1,-4.042892456E0,1.412492912E1
3.695886465E0,-3.393324137E0,-1.110788345E1,-1.014377594E1,1.542063273E1
3.700684069E0,-4.019300461E0,-1.064501953E1,-1.534997177E1,1.910740303E1
3.705481725E0,-4.401980400E0,-1.061873722E1,-1.805733681E1,2.140566337E1
3.710279381E0,-3.921046257E0,-1.174078560E1,-1.699357986E1,2.102385328E1
3.715077038E0,-3.148511887E0,-1.256849098E1,-1.374258614E1,1.888752939E1
3.719874642E0,-2.852932453E0,-1.197142029E1,-1.076039124E1,1.634748136E1
3.724672298E0,-3.598577976E0,-1.359553623E1,-9.145010948E0,1.677556539E1
3.729469954E0,-4.649781704E0,-1.615179825E1,-7.083547592E0,1.823945457E1
3.734267610E0,-5.627468586E0,-1.627541351E1,-6.158504486E0,1.828892193E1
3.739065267E0,-6.429544449E0,-1.489404106E1,-5.806334972E0,1.723035190E1
3.743862923E0,-7.389440536E0,-1.283712196E1,-5.854640961E0,1.592709492E1
3.748660527E0,-8.065894127E0,-1.115308475E1,-5.071782112E0,1.466877368E1
3.753458183E0,-8.226370811E0,-9.491542816E0,-4.233058929E0,1.325448413E1
3.758255840E0,-8.033820152E0,-7.686841965E0,-3.492089510E0,1.165437664E1
3.763053496E0,-7.540628910E0,-6.154140472E0,-2.879420280E0,1.015015224E1
3.767851100E0,-6.560688496E0,-5.064024925E0,-2.248195410E0,8.587279230E0
3.772648756E0,-5.425984383E0,-4.433719635E0,-1.683406353E0,7.206457748E0
3.777446413E0,-4.446014881E0,-4.124639511E0,-1.218073845E0,6.185741937E0
3.782244069E0,-3.697046280E0,-4.069638252E0,-7.331976891E-1,5.546862676E0
3.787041725E0,-3.124265671E0,-3.976799011E0,-1.679034233E-1,5.060055130E0
3.791839329E0,-2.546159506E0,-3.738471985E0,4.401521683E-1,4.544539024E0
3.796636985E0,-2.124952316E0,-3.323517799E0,1.005015731E0,4.070779966E0
3.801434642E0,-1.759643078E0,-2.734157562E0,1.449838758E0,3.560055303E0
3.806232298E0,-1.351510167E0,-1.967749596E0,1.764350891E0,2.968425891E0
3.811029902E0,-9.044854641E-1,-1.086357117E0,2.003324747E0,2.451851501E0
3.815827558E0,-5.105893612E-1,-1.114454269E-1,2.202607155E0,2.263757906E0
3.820625215E0,-7.282674313E-2,9.165077209E-1,2.361785889E0,2.534427494E0
3.825422871E0,1.980788708E-1,1.880517960E0,2.430282116E0,3.079261957E0
3.830220527E0,3.265839219E-1,2.871413708E0,2.310481310E0,3.699999679E0
3.835018131E0,3.945010006E-1,3.681306362E0,2.281963587E0,4.349138464E0
3.839815788E0,4.307915568E-1,4.384594917E0,2.279715061E0,4.960580078E0
3.844613444E0,6.003860235E-1,4.924209595E0,2.350922108E0,5.489548093E0
3.849411100E0,8.000503778E-1,5.388849735E0,2.316000938E0,5.919767092E0
3.854208756E0,8.697795272E-1,5.960226059E0,2.253915071E0,6.431247488E0
3.859006360E0,9.485759735E-1,6.439784527E0,2.157677412E0,6.857564651E0
3.863804017E0,9.222452641E-1,6.918299675E0,2.125747919E0,7.296040771E0
3.868601673E0,8.418620825E-1,7.453062534E0,2.100722313E0,7.789088980E0
3.873399329E0,7.368865013E-1,7.859963417E0,2.132664680E0,8.177425345E0
3.878196933E0,6.128574014E-1,8.359026909E0,2.190252304E0,8.662916958E0
3.882994590E0,5.276886821E-1,8.825971603E0,2.260932446E0,9.126228444E0
3.887792246E0,4.842464328E-1,9.248974800E0,2.337062836E0,9.551957504E0
3.892589902E0,4.850648344E-1,9.623482704E0,2.427450895E0,9.936761298E0
3.897387558E0,4.942603409E-1,9.923324585E0,2.462559938E0,1.023625252E1
3.902185163E0,5.594359636E-1,1.020363235E1,2.454168558E0,1.050952069E1
3.906982819E0,6.182049513E-1,1.028282738E1,2.371213436E0,1.057077903E1
3.911780475E0,6.388031244E-1,1.029982281E1,2.318861246E0,1.057693419E1
3.916578131E0,6.807219982E-1,1.030252075E1,2.256367922E0,1.056865708E1
3.921375788E0,6.959087253E-1,1.029810047E1,2.212485075E0,1.055605288E1
3.926173392E0,7.202566862E-1,1.034393597E1,2.120190144E0,1.058352433E1
3.930971048E0,6.939145327E-1,1.027504349E1,2.087186575E0,1.050782489E1
3.935768704E0,6.838395596E-1,1.026601028E1,2.084749460E0,1.049784664E1
3.940566360E0,6.972598433E-1,1.033347225E1,2.029239893E0,1.055389192E1
3.945364017E0,6.983886957E-1,1.036257553E1,1.944818735E0,1.056660013E1
3.950161621E0,7.112948298E-1,1.036532021E1,1.924659371E0,1.056646190E1
3.954959277E0,7.215273380E-1,1.036559868E1,1.935415149E0,1.056939305E1
3.959756933E0,6.836588979E-1,1.036817169E1,1.898261666E0,1.056265928E1
3.964554590E0,6.694356203E-1,1.040886021E1,1.818147898E0,1.058764264E1
3.969352246E0,6.789563298E-1,1.046838665E1,1.676539660E0,1.062350629E1
3.974149850E0,6.908272505E-1,1.052511692E1,1.583943129E0,1.066603039E1
3.978947506E0,6.982110143E-1,1.060770607E1,1.528528571E0,1.073998726E1
3.983745163E0,6.320806146E-1,1.070418072E1,1.546079159E0,1.083371458E1
3.988542819E0,5.670184493E-1,1.076670170E1,1.557852030E0,1.089358886E1
3.993340423E0,4.675620794E-1,1.083840275E1,1.592238545E0,1.096470757E1
3.998138079E0,3.984037042E-1,1.085953331E1,1.622972250E0,1.098736675E1
4.002935735E0,3.524241447E-1,1.090905952E1,1.681010246E0,1.104344049E1
4.007733392E0,2.938508391E-1,1.095832443E1,1.799583912E0,1.110899298E1
4.012531048E0,2.181299031E-1,1.097147655E1,1.880729556E0,1.113364370E1
4.017328652E0,1.875211000E-1,1.102033329E1,1.962431431E0,1.119526896E1
4.022126308E0,1.470139325E-1,1.105939770E1,2.011523485E0,1.124180222E1
4.026923965E0,6.087154150E-2,1.105283546E1,2.063967228E0,1.124405789E1
4.031721621E0,-3.031022847E-2,1.108431339E1,2.134310484E0,1.128796719E1
4.036519277E0,-7.639129460E-2,1.108204365E1,2.175008774E0,1.129372349E1
4.041316881E0,-1.085694581E-1,1.110814285E1,2.243790627E0,1.133301466E1
4.046114538E0,-1.413254589E-1,1.116010761E1,2.293230772E0,1.139416000E1
4.050912194E0,-1.652383804E-1,1.116854286E1,2.316454887E0,1.140743690E1
4.055709850E0,-1.946374178E-1,1.116206646E1,2.349912405E0,1.140840478E1
4.060507506E0,-2.245521992E-1,1.124100971E1,2.393884420E0,1.149527754E1
4.065305110E0,-2.620126605E-1,1.131437588E1,2.376998901E0,1.156433638E1
4.070102767E0,-2.996493280E-1,1.133903408E1,2.373943567E0,1.158874849E1
4.074900423E0,-3.109821379E-1,1.138661957E1,2.318250895E0,1.162437535E1
4.079698079E0,-4.030592442E-1,1.141150570E1,2.244209528E0,1.163706988E1
4.084495683E0,-5.103516579E-1,1.129885483E1,2.121318102E0,1.150758749E1
4.089293340E0,-6.079536676E-1,1.105817986E1,2.072232723E0,1.126708027E1
4.094090996E0,-6.638650298E-1,1.061049175E1,2.047477245E0,1.082660681E1
4.098888652E0,-5.944661498E-1,9.984310150E0,1.911857724E0,1.018307611E1
4.103686308E0,-4.654073715E-1,9.322742462E0,1.614012241E0,9.472864749E0
4.108483913E0,-3.616815805E-1,8.727978706E0,1.071748137E0,8.800969829E0
4.113281569E0,-2.292456329E-1,8.282928467E0,4.585195780E-1,8.298776883E0
4.118079225E0,-1.404289156E-1,7.938885689E0,3.354763985E-2,7.940198468E0
4.122876881E0,-7.622070611E-2,7.467643738E0,-6.079008579E-1,7.492733549E0
4.127674538E0,-1.759761572E-2,7.059161186E0,-1.140660524E0,7.150746308E0
4.132472142E0,3.052505478E-2,6.555929184E0,-2.244765520E0,6.929654500E0
4.137269798E0,1.530427933E-1,5.869097233E0,-3.687759161E0,6.933202150E0
4.142067454E0,3.287840784E-1,4.942736626E0,-5.435989857E0,7.354504065E0
4.146865110E0,4.919162989E-1,4.203157425E0,-5.603308678E0,7.021793369E0
4.151662767E0,6.331420541E-1,3.182734966E0,-4.618678093E0,5.644719484E0
4.156460371E0,2.787719965E0,-2.308032990E0,-4.480125427E0,5.759333532E0
4.161258027E0,4.824457645E0,-1.041225052E1,-9.677299500E0,1.501134498E1
4.166055683E0,8.779188156E0,-2.183385468E1,-3.320459747E1,4.069811603E1
4.170853340E0,9.966839790E0,-2.846388245E1,-2.918844032E1,4.197017450E1
4.175650996E0,1.029088974E1,-3.477168274E1,-2.193505478E1,4.238064370E1
4.180448652E0,9.156795502E0,-3.674152756E1,-1.357835579E1,4.022634084E1
4.185246256E0,7.062807083E0,-3.564302444E1,-4.116390228E0,3.656847145E1
4.190043913E0,5.012054920E0,-3.201876450E1,3.624598026E0,3.261072960E1
4.194841569E0,2.942770958E0,-2.737242126E1,7.093410015E0,2.842931256E1
4.199639225E0,2.050554156E-1,-2.284493446E1,8.486689568E0,2.437123259E1
4.204436829E0,-1.596872926E0,-1.960717964E1,8.263966560E0,2.133740003E1
4.209234485E0,-2.880840778E0,-1.720786285E1,7.068801403E0,1.882492340E1
4.214032142E0,-3.862512589E0,-1.558750439E1,5.726884842E0,1.704953098E1
4.218829798E0,-4.304612637E0,-1.461414051E1,4.514701366E0,1.588978670E1
4.223627454E0,-4.182726383E0,-1.449758244E1,3.240896225E0,1.543303291E1
4.228425058E0,-4.416965961E0,-1.404020596E1,1.869831681E0,1.483688788E1
4.233222715E0,-4.519856453E0,-1.398013973E1,3.930521011E-1,1.469788758E1
4.238020371E0,-4.999439716E0,-1.421046638E1,-1.696330309E0,1.515946202E1
4.242818027E0,-6.319210052E0,-1.369505215E1,-5.956830025E0,1.621637114E1
4.247615683E0,-7.801163673E0,-1.458705616E1,-1.117447090E1,1.996269426E1
4.252413288E0,-8.732157707E0,-1.452044678E1,-1.584807014E1,2.320032931E1
4.257210944E0,-7.893937588E0,-1.449412251E1,-1.645842743E1,2.330823184E1
4.262008600E0,-6.604051590E0,-1.721270370E1,-1.391332340E1,2.309699622E1
4.266806256E0,-6.398955345E0,-1.997836304E1,-1.223853111E1,2.428710075E1
4.271603913E0,-6.496529579E0,-1.940721893E1,-1.139624023E1,2.342475901E1
4.276401569E0,-6.181278706E0,-1.889378357E1,-9.022448540E0,2.183089191E1
4.281199173E0,-5.941053391E0,-1.635179520E1,-6.472137451E0,1.856248595E1
4.285996829E0,-5.675264835E0,-1.369374657E1,-3.994496107E0,1.535198115E1
4.290794485E0,-5.164945602E0,-1.101541424E1,-2.240035295E0,1.237068196E1
4.295592142E0,-4.455436230E0,-8.807876587E0,-1.090602160E0,9.930710702E0
4.300389746E0,-3.836974621E0,-7.331890106E0,6.895565987E-2,8.275490418E0
4.305187402E0,-3.473886728E0,-6.381404877E0,1.025948048E0,7.337764414E0
4.309985058E0,-3.345398188E0,-5.764334679E0,1.567543745E0,6.846636891E0
4.314782715E0,-3.317091465E0,-5.075577736E0,1.968143225E0,6.374807675E0
4.319580371E0,-3.301840305E0,-4.275444984E0,2.216338158E0,5.838983991E0
4.324378027E0,-3.173049927E0,-3.469527245E0,2.414349079E0,5.285352080E0
4.329175631E0,-2.963285923E0,-2.669804573E0,2.417691946E0,4.664134889E0
4.333973288E0,-2.665290594E0,-1.983592033E0,2.318089485E0,4.051166519E0
4.338770944E0,-2.312578440E0,-1.453447342E0,2.115916252E0,3.455087524E0
4.343568600E0,-2.035623550E0,-7.563114166E-1,2.114907265E0,3.031270845E0
4.348366204E0,-1.806341648E0,6.962966919E-2,1.970342636E0,2.673942510E0
4.353163860E0,-1.673294067E0,8.715696335E-1,1.830032229E0,2.628414850E0
4.357961517E0,-1.557776570E0,1.704718590E0,1.729343653E0,2.885023879E0
4.362759173E0,-1.416558266E0,2.566893578E0,1.829892516E0,3.456021785E0
4.367556829E0,-1.292740107E0,3.417631626E0,1.686290741E0,4.024296135E0
4.372354485E0,-1.176611662E0,4.180607796E0,1.632918358E0,4.639861949E0
4.377152090E0,-1.046309710E0,4.889378071E0,1.528694391E0,5.228545541E0
4.381949746E0,-9.564999342E-1,5.532036304E0,1.376194477E0,5.780331222E0
4.386747402E0,-7.778128982E-1,6.115582943E0,1.092954278E0,6.260982087E0
4.391545058E0,-5.081355572E-1,6.556146622E0,7.332547903E-1,6.616564279E0
4.396342715E0,-1.980850101E-1,6.977828026E0,2.392653227E-1,6.984738329E0
4.401140319E0,8.255207539E-2,7.368512154E0,-9.374809265E-2,7.369570877E0
4.405937975E0,2.476477623E-1,7.721102238E0,-2.062239647E-1,7.727824888E0
4.410735631E0,2.615618408E-1,8.085971832E0,-8.948469162E-2,8.090696050E0
4.415533288E0,1.871079057E-1,8.422771454E0,2.499867678E-1,8.428557511E0
4.420330944E0,4.410463572E-2,8.770071030E0,7.053029537E-1,8.798496652E0
4.425128548E0,-7.320874929E-2,9.109005928E0,1.129182100E0,9.179019595E0
4.429926204E0,-1.809901893E-1,9.449481010E0,1.534482718E0,9.574971855E0
4.434723860E0,-2.499579489E-1,9.729702950E0,1.864736557E0,9.909936473E0
4.439521517E0,-3.083273470E-1,1.003134346E1,2.123382568E0,1.025824892E1
4.444319173E0,-3.103691339E-1,1.033559608E1,2.359325886E0,1.060600274E1
4.449116777E0,-2.990319133E-1,1.053510857E1,2.555130959E0,1.084465891E1
4.453914433E0,-2.624451518E-1,1.064200687E1,2.701187611E0,1.098260453E1
4.458712090E0,-1.865438670E-1,1.068981075E1,2.699881315E0,1.102706723E1
4.463509746E0,-1.552901864E-1,1.066422367E1,2.671051025E0,1.099473943E1
4.468307402E0,-1.092920303E-1,1.061056995E1,2.579664707E0,1.092020190E1
4.473105006E0,-7.531899214E-2,1.051438999E1,2.529252291E0,1.081458215E1
4.477902663E0,9.054094553E-4,1.033498096E1,2.424771309E0,1.061561813E1
4.482700319E0,9.077250957E-3,1.024671936E1,2.331627846E0,1.050865493E1
4.487497975E0,6.372664869E-2,1.017286968E1,2.221795559E0,1.041286292E1
4.492295631E0,9.300597012E-2,1.016112137E1,2.114822865E0,1.037928289E1
4.497093288E0,1.182656735E-1,1.013008881E1,2.022920847E0,1.033077416E1
4.501890892E0,1.442729235E-1,1.011316490E1,1.960840225E0,1.030251491E1
4.506688548E0,1.545825750E-1,1.017477226E1,1.926521063E0,1.035670651E1
4.511486204E0,1.679911315E-1,1.014989567E1,1.951137662E0,1.033709540E1
4.516283860E0,1.938703060E-1,1.006492805E1,1.953416109E0,1.025456956E1
4.521081517E0,1.989754736E-1,1.006340408E1,2.021467924E0,1.026635405E1
4.525879121E0,2.336674780E-1,1.000665665E1,2.095231533E0,1.022632744E1
4.530676777E0,2.358990908E-1,9.995200157E0,2.195838213E0,1.023627764E1
4.535474433E0,2.536216974E-1,1.000033951E1,2.284789085E0,1.026115858E1
4.540272090E0,2.509254813E-1,9.983911514E0,2.344921112E0,1.025866013E1
4.545069694E0,2.899754047E-1,9.953099251E0,2.395414591E0,1.024140037E1
4.549867350E0,2.871795297E-1,9.934230804E0,2.414632320E0,1.022750522E1
4.554665006E0,3.215680718E-1,1.000847816E1,2.457833052E0,1.031086730E1
4.559462663E0,3.211530149E-1,9.903324127E0,2.422061682E0,1.020026229E1
4.564260319E0,3.506689966E-1,9.936849594E0,2.474583626E0,1.024634143E1
4.569057923E0,3.768344223E-1,9.982170105E0,2.500739813E0,1.029754455E1
4.573855579E0,3.591434360E-1,9.996243477E0,2.512483120E0,1.031341064E1
4.578653235E0,3.931094706E-1,9.964803696E0,2.502470970E0,1.028174152E1
4.583450892E0,3.952638209E-1,1.000022697E1,2.516021013E0,1.031945419E1
4.588248548E0,4.207454920E-1,1.002356148E1,2.517172813E0,1.034335393E1
4.593046204E0,4.384071827E-1,1.000376129E1,2.536895275E0,1.032972790E1
4.597843808E0,4.768918157E-1,9.976680756E0,2.558596134E0,1.031057704E1
4.602641465E0,5.075500011E-1,9.956654549E0,2.529644728E0,1.028550822E1
4.607439121E0,5.423661470E-1,9.986620903E0,2.479035616E0,1.030399804E1
4.612236777E0,5.861434937E-1,9.985136986E0,2.433600187E0,1.029412137E1
4.617034433E0,6.030180454E-1,9.966490746E0,2.350658178E0,1.025768797E1
4.621832090E0,6.551644802E-1,9.925857544E0,2.242446661E0,1.019708073E1
4.626629694E0,6.972396374E-1,9.834466934E0,2.154845715E0,1.009188996E1
4.631427350E0,8.150739670E-1,9.649320602E0,2.102387428E0,9.909276793E0
4.636225006E0,8.696150184E-1,9.480440140E0,2.032637596E0,9.734813358E0
4.641022663E0,9.154987335E-1,9.349212646E0,1.908022165E0,9.585742727E0
4.645820319E0,1.128325462E0,9.035113335E0,9.413418770E-1,9.153825203E0
4.650617923E0,1.457711816E0,8.506023407E0,-1.319784403E0,8.730360176E0
4.655415579E0,1.830679178E0,7.647887230E0,-4.663795471E0,9.142896343E0
4.660213235E0,2.231221676E0,6.164603233E0,-8.737413406E0,1.092351025E1
4.665010892E0,2.191311359E0,5.453052521E0,-1.002202225E1,1.161802725E1
4.669808548E0,1.938223720E0,5.102212906E0,-9.154113770E0,1.065772427E1
4.674606152E0,1.680843115E0,5.034750462E0,-7.147960663E0,8.903217813E0
4.679403808E0,1.517569304E0,4.900073051E0,-3.577021360E0,6.253704047E0
4.684201465E0,2.253364325E0,2.996478558E0,-5.835318565E-1,3.794343679E0
4.688999121E0,2.599247217E0,1.387840271E0,1.527757049E0,3.319070399E0
4.693796777E0,2.957665205E0,-2.130949974E0,2.751685858E0,4.567330327E0
4.698594381E0,3.542001963E0,-6.466584206E0,3.174322128E0,8.027378786E0
4.703392038E0,3.191527843E0,-1.211059666E1,1.094661713E0,1.257182109E1
4.708189694E0,1.818230748E0,-2.192390823E1,-6.220349789E0,2.286168119E1
4.712987350E0,-1.044085622E-1,-3.931584167E1,-2.904102707E1,4.887870253E1
4.717785006E0,-4.673055649E0,-5.290903854E1,-3.587987137E1,6.409811993E1
4.722582663E0,-7.075909138E0,-5.935307312E1,-3.016140747E1,6.695196995E1
4.727380267E0,-7.204117775E0,-5.287384415E1,-1.713657951E1,5.604645453E1
4.732177923E0,-7.852709770E0,-3.844520569E1,-3.823438644E0,3.942483449E1
4.736975579E0,-7.593767166E0,-2.761141586E1,3.723970652E0,2.887773438E1
4.741773235E0,-6.133928299E0,-2.047743988E1,6.644312382E0,2.238520734E1
4.746570892E0,-4.822550297E0,-1.650710297E1,6.879781723E0,1.852222547E1
4.751368496E0,-3.679065466E0,-1.427564621E1,6.440114021E0,1.608740706E1
4.756166152E0,-2.581932068E0,-1.257333946E1,5.955739498E0,1.415012620E1
4.760963808E0,-1.732480288E0,-1.115900326E1,5.309925079E0,1.247878784E1
4.765761465E0,-8.851972818E-1,-9.732336998E0,4.019899845E0,1.056700300E1
4.770559121E0,-1.530296206E-1,-8.448681831E0,1.841634989E0,8.648425416E0
4.775356777E0,2.213414907E-1,-7.329664230E0,-9.938333035E-1,7.400045569E0
4.780154381E0,1.831998229E-1,-7.475875854E0,-4.248919487E0,8.600906858E0
4.784952038E0,-7.563352585E-3,-7.975261688E0,-7.261264801E0,1.078567674E1
4.789749694E0,-2.569564581E-1,-8.569651604E0,-9.534663200E0,1.282243181E1
4.794547350E0,-4.684631824E-1,-9.742688179E0,-1.208124447E1,1.552726308E1
4.799345006E0,-2.121959686E0,-1.596753788E1,-1.763357353E1,2.388321365E1
4.804142610E0,-2.860018253E0,-1.855375671E1,-1.702698517E1,2.534442378E1
4.808940267E0,-3.106922865E0,-1.874269104E1,-1.353719521E1,2.332803230E1
4.813737923E0,-2.743308783E0,-1.563734150E1,-8.888233185E0,1.819485865E1
4.818535579E0,-2.156610489E0,-1.290858269E1,-5.170912743E0,1.407198687E1
4.823333235E0,-1.820137024E0,-1.099160194E1,-3.354061365E0,1.163520261E1
4.828130892E0,-1.646569014E0,-1.016668892E1,-1.896424532E0,1.047230534E1
4.832928496E0,-1.634084463E0,-9.818377495E0,-6.755890846E-1,9.976331454E0
4.837726152E0,-1.759458065E0,-9.576847076E0,2.372493744E-1,9.740019501E0
4.842523808E0,-1.884945154E0,-9.098282814E0,7.070798874E-1,9.318354488E0
4.847321465E0,-2.007887125E0,-8.301887512E0,9.659399986E-1,8.595695845E0
4.852119121E0,-2.215801954E0,-7.359979630E0,9.648418427E-1,7.746612048E0
4.856916725E0,-2.395075798E0,-6.214995384E0,8.092329502E-1,6.709501745E0
4.861714381E0,-2.541509628E0,-5.000642776E0,5.395486355E-1,5.635318278E0
4.866512038E0,-2.609842300E0,-3.747692108E0,3.870258331E-1,4.583258881E0
4.871309694E0,-2.566749573E0,-2.551363945E0,3.337464333E-1,3.634425406E0
4.876107350E0,-2.479379416E0,-1.540195465E0,3.783183098E-1,2.943237860E0
4.880905006E0,-2.473943233E0,-4.434404373E-1,5.142195225E-1,2.565434907E0
4.885702610E0,-2.502033234E0,7.034568787E-1,6.653599739E-1,2.682857763E0
4.890500267E0,-2.358325481E0,1.762538910E0,9.057072401E-1,3.080348696E0
4.895297923E0,-2.143906593E0,2.736914158E0,1.192404389E0,3.675440493E0
4.900095579E0,-1.909384966E0,3.684498787E0,1.346891999E0,4.362957749E0
4.904893235E0,-1.823977709E0,4.588809013E0,1.490197778E0,5.157979475E0
4.909690892E0,-1.764530778E0,5.363745689E0,1.581791639E0,5.863906674E0
4.914488496E0,-1.634869814E0,5.892102718E0,1.617760181E0,6.325094605E0
4.919286152E0,-1.482785702E0,6.269609451E0,1.663283706E0,6.653808593E0
4.924083808E0,-1.308276057E0,6.594240189E0,1.659301400E0,6.924512333E0
4.928881465E0,-1.199512959E0,6.904055595E0,1.640233040E0,7.196886787E0
4.933679121E0,-1.181972265E0,7.272978783E0,1.652115226E0,7.551341836E0
4.938476725E0,-1.099687457E0,7.660183907E0,1.757521391E0,7.935780455E0
4.943274381E0,-9.453890324E-1,8.060730934E0,1.837475657E0,8.321385726E0
4.948072038E0,-7.838519812E-1,8.467434883E0,1.949498057E0,8.724243240E0
4.952869694E0,-6.866186261E-1,8.920981407E0,2.059887886E0,9.181421051E0
4.957667350E0,-5.961326361E-1,9.323362350E0,2.154224396E0,9.587551428E0
4.962464954E0,-5.241615176E-1,9.727322578E0,2.279893637E0,1.000467215E1
4.967262610E0,-3.989266455E-1,1.003014374E1,2.398467779E0,1.032063823E1
4.972060267E0,-2.945990264E-1,1.030613041E1,2.514322281E0,1.061248930E1
4.976857923E0,-1.778968275E-1,1.047171879E1,2.567536592E0,1.078335689E1
4.981655579E0,-5.867037177E-2,1.053187370E1,2.550821543E0,1.083653526E1
4.986453235E0,1.721307635E-2,1.050340366E1,2.474108696E0,1.079087571E1
4.991250840E0,1.211171150E-1,1.047237587E1,2.359393120E0,1.073555129E1
4.996048496E0,1.806525886E-1,1.046504784E1,2.230907440E0,1.070171994E1
5.000846152E0,2.101648003E-1,1.049569702E1,2.186817646E0,1.072315236E1
5.005643808E0,2.596116066E-1,1.051643848E1,2.174723148E0,1.074208068E1
5.010441465E0,2.714114785E-1,1.051295090E1,2.192238331E0,1.074251878E1
5.015239121E0,3.744869232E-1,1.068122482E1,2.203571081E0,1.091258584E1
5.020036725E0,2.803760171E-1,1.046666145E1,2.208272457E0,1.070075137E1
5.024834381E0,2.860937715E-1,1.050299454E1,2.220839739E0,1.073903501E1
5.029632038E0,3.292949796E-1,1.059858513E1,2.165557861E0,1.082257283E1
5.034429694E0,3.594271541E-1,1.039000320E1,2.102926731E0,1.060677403E1
5.039227350E0,3.933309913E-1,1.042472363E1,2.129531384E0,1.064727551E1
5.044025006E0,4.359290004E-1,1.055417919E1,2.147819519E0,1.077932564E1
5.048822610E0,4.728815258E-1,1.061807442E1,2.153394222E0,1.084454831E1
5.053620267E0,4.754996002E-1,1.070490551E1,2.191739559E0,1.093731339E1
5.058417923E0,4.917529821E-1,1.073337364E1,2.241343975E0,1.097591698E1
5.063215579E0,5.287990570E-1,1.074651241E1,2.352643490E0,1.101372275E1
5.068013235E0,5.507880449E-1,1.085669518E1,2.470288277E0,1.114780345E1
5.072810840E0,5.624383688E-1,1.081051445E1,2.586799622E0,1.112991877E1
5.077608496E0,6.067703366E-1,1.083521271E1,2.725855827E0,1.118929375E1
5.082406152E0,6.169724464E-1,1.103351974E1,2.860584736E0,1.141499706E1
5.087203808E0,6.478627324E-1,1.095837402E1,2.940402508E0,1.136449094E1
5.092001465E0,6.706293821E-1,1.100686932E1,2.984139442E0,1.142392245E1
5.096799121E0,7.473770976E-1,1.106892586E1,2.979699135E0,1.148731035E1
5.101596725E0,7.679218650E-1,1.116850090E1,2.986394882E0,1.158635710E1
5.106394381E0,8.491327763E-1,1.115028000E1,2.944101334E0,1.156362846E1
5.111192038E0,9.164489508E-1,1.115307522E1,2.893300533E0,1.155863978E1
5.115989694E0,9.864044189E-1,1.119605923E1,2.840816259E0,1.159288458E1
5.120787350E0,1.073040962E0,1.121231937E1,2.822334290E0,1.161176530E1
5.125585006E0,1.133170009E0,1.131428623E1,2.780146122E0,1.170582589E1
5.130382610E0,1.216561317E0,1.131316090E1,2.778559685E0,1.171272918E1
5.135180267E0,1.317952156E0,1.131188774E1,2.805638552E0,1.172891341E1
5.139977923E0,1.405633211E0,1.127711010E1,2.825463295E0,1.171034840E1
5.144775579E0,1.495833278E0,1.141447735E1,2.807029486E0,1.184935546E1
5.149573235E0,1.609673381E0,1.149907303E1,2.786836386E0,1.194094577E1
5.154370840E0,1.675238252E0,1.165754128E1,2.715306520E0,1.208625588E1
5.159168496E0,1.659213305E0,1.176300812E1,2.688635111E0,1.217990589E1
5.163966152E0,1.590955853E0,1.178195286E1,2.733257532E0,1.219902662E1
5.168763808E0,1.469242573E0,1.171191597E1,2.708100796E0,1.211038642E1
5.173561465E0,1.329065204E0,1.130649185E1,2.599386930E0,1.167732781E1
5.178359121E0,1.285652995E0,1.057536507E1,2.460513592E0,1.093368086E1
5.183156725E0,1.341209769E0,9.839035034E0,2.454429626E0,1.022886498E1
5.187954381E0,1.368808150E0,9.259963989E0,2.502118349E0,9.689229333E0
5.192752038E0,1.392024994E0,8.873936653E0,2.550388575E0,9.337503263E0
5.197549694E0,1.417946339E0,8.697669029E0,2.538484097E0,9.170818931E0
5.202347350E0,1.453727722E0,8.642554283E0,2.494690418E0,9.112110025E0
5.207144954E0,1.432497501E0,8.586510658E0,2.442952394E0,9.041472821E0
5.211942610E0,1.443915367E0,8.235795021E0,7.591810226E-1,8.395806515E0
5.216740267E0,1.361799598E0,6.697066307E0,-6.795166016E0,9.637399880E0
5.221537923E0,1.144509792E0,4.892456055E0,-1.261889935E1,1.358243902E1
5.226335579E0,9.184064865E-1,4.160456181E0,-1.235959339E1,1.307334750E1
5.231133235E0,6.910107136E-1,4.021296978E0,-1.008090019E1,1.087533328E1
5.235930892E0,3.324154615E-1,3.401405811E0,-8.890260696E0,9.524536565E0
5.240728496E0,8.120453358E-2,-3.592425346E0,-1.215148258E1,1.267164721E1
5.245526152E0,-3.046560287E-1,-1.974275970E1,-3.599090958E1,4.105136963E1
5.250323808E0,-3.536705494E0,-3.105268860E1,-3.789213181E1,4.911813726E1
5.255121465E0,-5.658227444E0,-4.076806641E1,-2.826705742E1,4.993072512E1
5.259919121E0,-7.406348705E0,-4.320719528E1,-1.198324108E1,4.544572358E1
5.264716725E0,-9.664108276E0,-4.264125824E1,5.172939301E-1,4.372573025E1
5.269514381E0,-1.028359604E1,-4.167343521E1,8.068743706E0,4.367530395E1
5.274312038E0,-1.106020451E1,-3.904368591E1,1.040285015E1,4.189220482E1
5.279109694E0,-1.140035439E1,-3.415055084E1,9.892034531E0,3.733738810E1
5.283907350E0,-1.147914314E1,-2.816722488E1,8.276005745E0,3.152230252E1
5.288705006E0,-1.010186291E1,-2.347257233E1,6.558386803E0,2.638222362E1
5.293502663E0,-8.471818924E0,-2.098246765E1,5.208359718E0,2.321987673E1
5.298300267E0,-6.415820599E0,-1.726360321E1,4.084733009E0,1.886477653E1
5.303097923E0,-4.951928139E0,-1.542576504E1,2.759132385E0,1.643437345E1
5.307895579E0,-4.192225456E0,-1.462563896E1,1.447510004E0,1.528330313E1
5.312693235E0,-3.733375311E0,-1.276348400E1,3.053593636E-2,1.329832875E1
5.317490892E0,-3.742829800E0,-1.114089203E1,-1.583253145E0,1.185896035E1
5.322288496E0,-4.445481300E0,-9.872908592E0,-3.717151165E0,1.144787495E1
5.327086152E0,-6.022296906E0,-9.235433578E0,-7.126861095E0,1.312834500E1
5.331883808E0,-7.360335350E0,-9.449941635E0,-1.023031235E1,1.575230853E1
5.336681465E0,-7.714251518E0,-9.512248993E0,-1.244547367E1,1.746088120E1
5.341479121E0,-7.022578239E0,-7.268975258E0,-1.341420841E1,1.679570165E1
5.346276777E0,-6.111897945E0,-8.523774147E0,-1.193402290E1,1.588807493E1
5.351074433E0,-5.734786987E0,-1.259600449E1,-1.003854942E1,1.709735609E1
5.355872038E0,-5.500120640E0,-1.410695839E1,-9.164150238E0,1.769856637E1
5.360669694E0,-4.951678276E0,-1.575122070E1,-7.886229515E0,1.829788751E1
5.365467350E0,-5.780715942E0,-1.584268570E1,-6.610495090E0,1.811369682E1
5.370265006E0,-6.396423817E0,-1.506564903E1,-5.559689522E0,1.728577930E1
5.375062663E0,-6.376874924E0,-1.379469204E1,-4.583230019E0,1.587337581E1
5.379860319E0,-6.062218666E0,-1.228390598E1,-3.587105751E0,1.416023196E1
5.384657923E0,-5.772458076E0,-1.105126762E1,-1.844652414E0,1.260375067E1
5.389455579E0,-5.623007774E0,-1.021953964E1,1.631972790E-1,1.166549786E1
5.394253235E0,-5.429137707E0,-9.147311211E0,1.621015668E0,1.075995030E1
5.399050892E0,-5.196484566E0,-7.433853149E0,2.431935310E0,9.390417128E0
5.403848548E0,-4.840009212E0,-6.002458572E0,2.806489944E0,8.205582484E0
5.408646204E0,-4.373987198E0,-5.403784752E0,3.052598715E0,7.592826388E0
5.413443808E0,-3.803118229E0,-4.627601624E0,3.259129047E0,6.819114840E0
5.418241465E0,-3.249406338E0,-3.893655777E0,3.518437862E0,6.172406488E0
5.423039121E0,-2.634711981E0,-3.182713509E0,3.697095394E0,5.544356306E0
5.427836777E0,-2.081381083E0,-2.163084984E0,3.692140818E0,4.758464844E0
5.432634433E0,-1.613659739E0,-1.115468025E0,3.700114250E0,4.187960379E0
5.437432090E0,-1.139586329E0,-2.792577744E-1,3.708953381E0,3.890112734E0
5.442229694E0,-6.306804419E-1,3.755855560E-2,3.806347847E0,3.858426155E0
5.447027350E0,-1.267220974E-1,7.389173508E-1,3.859537601E0,3.931677484E0
5.451825006E0,2.548332214E-1,1.611509323E0,3.914581537E0,4.240972870E0
5.456622663E0,5.259780884E-1,2.475765228E0,3.940803051E0,4.683587845E0
5.461420319E0,7.156786323E-1,3.322108269E0,3.971535683E0,5.227015873E0
5.466217975E0,1.020068407E0,4.100289345E0,3.985406399E0,5.808302371E0
5.471015579E0,1.190725088E0,4.901188850E0,3.975004673E0,6.421848685E0
5.475813235E0,1.294967294E0,5.621967793E0,3.968914747E0,7.002552850E0
5.480610892E0,1.335857034E0,6.463388443E0,3.909618378E0,7.671050778E0
5.485408548E0,1.328877091E0,7.265112400E0,3.866007090E0,8.336293141E0
5.490206204E0,1.253945947E0,8.115467072E0,3.883255720E0,9.083659021E0
5.495003808E0,1.176969528E0,8.928291321E0,3.886790276E0,9.808505586E0
5.499801465E0,1.067891717E0,9.569802284E0,3.945455313E0,1.040615809E1
5.504599121E0,1.030462146E0,1.014300728E1,4.089695930E0,1.098490153E1
5.509396777E0,8.931866884E-1,1.058347321E1,4.022770405E0,1.135739272E1
5.514194433E0,7.639994025E-1,1.084586334E1,3.728714466E0,1.149433592E1
5.518992090E0,7.357555628E-1,1.088737106E1,3.444800377E0,1.144302559E1
5.523789694E0,7.292146087E-1,1.092808151E1,3.138128757E0,1.139309315E1
5.528587350E0,7.227276564E-1,1.094402409E1,2.990985394E0,1.136837684E1
5.533385006E0,7.112114429E-1,1.092803574E1,2.982131958E0,1.134992942E1
5.538182663E0,7.208350897E-1,1.099958038E1,3.009314775E0,1.142656323E1
5.542980319E0,7.085411549E-1,1.106767082E1,3.049225807E0,1.150187576E1
5.547777975E0,6.863333583E-1,1.117765903E1,3.092961550E0,1.161798288E1
5.552575631E0,7.094050050E-1,1.131986713E1,3.148386955E0,1.177093827E1
5.557373235E0,7.417274714E-1,1.141535759E1,3.146895885E0,1.186437956E1
5.562170892E0,8.378942609E-1,1.166728306E1,3.123108387E0,1.210707920E1
5.566968548E0,9.546715617E-1,1.191052437E1,3.075531006E0,1.233818785E1
5.571766204E0,1.072995305E0,1.218097496E1,3.042649746E0,1.260099946E1
5.576563860E0,1.218963146E0,1.238308716E1,2.947853804E0,1.278735941E1
5.581361517E0,1.342243671E0,1.261499214E1,2.814997196E0,1.299476256E1
5.586159121E0,1.528418303E0,1.278832245E1,2.655865192E0,1.315031838E1
5.590956777E0,1.683599353E0,1.273120308E1,2.443753242E0,1.307248900E1
5.595754433E0,1.845360994E0,1.274752903E1,2.250285625E0,1.307549766E1
5.600552090E0,2.061003208E0,1.272015858E1,2.032533169E0,1.304535778E1
5.605349746E0,2.217605591E0,1.274717236E1,1.855307341E0,1.307097330E1
5.610147402E0,2.336623192E0,1.275682259E1,1.725841403E0,1.308338102E1
5.614945006E0,2.437114239E0,1.277060699E1,1.589655995E0,1.309789811E1
5.619742663E0,2.519130230E0,1.274074364E1,1.484681606E0,1.307198703E1
5.624540319E0,2.592491865E0,1.272940445E1,1.439290762E0,1.307020695E1
5.629337975E0,2.664547443E0,1.274135017E1,1.457633972E0,1.309834013E1
5.634135631E0,2.711476803E0,1.273353386E1,1.424552441E0,1.309673015E1
5.638933288E0,2.735428333E0,1.268212128E1,1.385102749E0,1.304750083E1
5.643730892E0,2.810055971E0,1.259197807E1,1.296324372E0,1.296667973E1
5.648528548E0,2.825183392E0,1.250378132E1,1.222778559E0,1.287716568E1
5.653326204E0,2.852456093E0,1.248917484E1,1.152847528E0,1.286254452E1
5.658123860E0,2.853523970E0,1.244052505E1,1.146086097E0,1.281494347E1
5.662921517E0,2.818683624E0,1.232923508E1,1.247358322E0,1.270869457E1
5.667719173E0,2.773941994E0,1.219848347E1,1.369912148E0,1.258468960E1
5.672516777E0,2.776194572E0,1.208419323E1,1.473158121E0,1.248619947E1
5.677314433E0,2.781800747E0,1.200791836E1,1.612154603E0,1.243091152E1
5.682112090E0,2.814283848E0,1.190518475E1,1.774499893E0,1.236132951E1
5.686909746E0,2.799329281E0,1.176651382E1,2.003020763E0,1.225965677E1
5.691707402E0,2.744155884E0,1.154899311E1,2.249365330E0,1.208177461E1
5.696505058E0,2.653760433E0,1.128860092E1,2.522587776E0,1.186753573E1
5.701302663E0,2.519292831E0,1.096141624E1,2.805636883E0,1.159185407E1
5.706100319E0,2.422784805E0,1.062241840E1,3.038293600E0,1.131091893E1
5.710897975E0,2.317018032E0,1.030260372E1,3.198891163E0,1.103381714E1
5.715695631E0,2.223974228E0,9.939666748E0,3.244845390E0,1.068981094E1
5.720493288E0,2.105885744E0,9.586065292E0,3.147988319E0,1.030714476E1
5.725290944E0,2.034710407E0,9.255987167E0,3.030782223E0,9.949823404E0
5.730088548E0,1.953188896E0,8.958904266E0,2.890812159E0,9.614245028E0
5.734886204E0,1.928027391E0,8.725914001E0,2.737305403E0,9.346213439E0
5.739683860E0,1.903966069E0,8.471002579E0,2.572225094E0,9.055347228E0
5.744481517E0,1.928513765E0,8.282764435E0,2.473934174E0,8.856844942E0
5.749279173E0,1.955918431E0,8.213832855E0,2.346313000E0,8.763438354E0
5.754076829E0,2.000282526E0,8.111142159E0,2.220580339E0,8.644231275E0
5.758874485E0,2.082551479E0,8.024854660E0,2.035561562E0,8.536909502E0
5.763672090E0,2.224708796E0,7.629045486E0,5.094113350E-1,7.963112718E0
5.768469746E0,2.327606916E0,6.654062271E0,-3.451145411E0,7.848866371E0
5.773267402E0,2.303336859E0,5.214390278E0,-8.548285484E0,1.027464897E1
5.778065058E0,2.140578270E0,4.088386059E0,-1.183350372E1,1.270152693E1
5.782862715E0,1.780131698E0,2.541082382E0,-1.365824699E1,1.400620147E1
5.787660371E0,1.656265736E0,-4.204667091E0,-1.226752090E1,1.307342766E1
5.792457975E0,1.854160666E0,-1.197836018E1,-9.193495750E0,1.521313210E1
5.797255631E0,1.502225518E0,-1.811515808E1,-1.082930183E1,2.115867227E1
5.802053288E0,2.152000666E-1,-3.553276062E1,-2.978944969E1,4.636846667E1
5.806850944E0,-5.210423470E0,-5.400297928E1,-2.821589088E1,6.115232442E1
5.811648600E0,-7.975904465E0,-6.369049835E1,-2.011983490E1,6.726739469E1
5.816446256E0,-9.191745758E0,-5.780340958E1,-9.629320145E0,5.931649143E1
5.821243913E0,-9.999356270E0,-4.765013504E1,-1.814546824E0,4.872181314E1
5.826041517E0,-1.129620552E1,-3.820288086E1,2.153583765E0,3.989614378E1
5.830839173E0,-1.132553864E1,-3.061805153E1,3.574506521E0,3.284067602E1
5.835636829E0,-1.098303032E1,-2.532399178E1,3.213553190E0,2.778953829E1
5.840434485E0,-1.177573681E1,-1.848029709E1,3.438531876E0,2.218136288E1
5.845232142E0,-1.195720768E1,-1.714863586E1,4.827355385E0,2.145585905E1
5.850029798E0,-1.016452599E1,-1.825211716E1,3.047592402E0,2.111267839E1
5.854827402E0,-8.714264870E0,-1.928426743E1,-1.031205177E0,2.118690082E1
5.859625058E0,-7.610173225E0,-1.982906914E1,-4.364264965E0,2.168302396E1
5.864422715E0,-7.239840508E0,-1.886764145E1,-6.050916672E0,2.109542076E1
5.869220371E0,-7.042735100E0,-1.711724854E1,-7.688319206E0,2.004271856E1
5.874018027E0,-6.889230728E0,-1.557761478E1,-9.308733940E0,1.941072152E1
5.878815683E0,-6.982764244E0,-1.386959362E1,-1.138912010E1,1.925712025E1
5.883613340E0,-7.091650009E0,-1.228307056E1,-1.334842014E1,1.947679755E1
5.888410944E0,-5.881435871E0,-9.090252876E0,-1.575511456E1,1.911668433E1
5.893208600E0,-5.324931145E0,-5.669058800E0,-1.580991077E1,1.761948915E1
5.898006256E0,-6.929259300E0,-2.888724327E0,-1.229339027E1,1.440440235E1
5.902803913E0,-9.214282036E0,2.111673355E0,1.434564829E0,9.561387663E0
5.907601569E0,-6.030388832E0,-6.098444939E0,8.344284058E0,1.196593902E1
5.912399225E0,-2.003512144E0,-1.051114750E1,-4.970442295E0,1.179845665E1
5.917196829E0,-1.454597473E0,-1.096363735E1,-4.092551231E0,1.179263216E1
5.921994485E0,-1.399090052E0,-9.198781967E0,-2.998111963E0,9.775669696E0
5.926792142E0,-1.382964611E0,-8.173085213E0,-1.198704481E0,8.375488370E0
5.931589798E0,-1.195518255E0,-7.949684143E0,7.606520653E-1,8.074981947E0
5.936387454E0,-1.061569691E0,-7.272362709E0,2.115399837E0,7.647817078E0
5.941185110E0,-8.946609497E-1,-7.001080513E0,2.850104570E0,7.611743731E0
5.945982767E0,-7.955000401E-1,-5.966203690E0,3.049714565E0,6.747530341E0
5.950780371E0,-6.661353111E-1,-5.019046783E0,2.997507811E0,5.883843977E0
5.955578027E0,-4.535815716E-1,-3.925077438E0,2.869136333E0,4.883022879E0
5.960375683E0,-1.311609745E-1,-2.799104691E0,2.754537344E0,3.929334072E0
5.965173340E0,1.599868536E-1,-1.707774162E0,2.563803911E0,3.084668358E0
5.969970996E0,3.890726566E-1,-6.867647171E-1,2.269850969E0,2.403174303E0
5.974768652E0,5.258038044E-1,3.691215515E-1,1.998937488E0,2.099636026E0
5.979566256E0,5.474438667E-1,1.349729538E0,1.920547247E0,2.410387176E0
5.984363913E0,5.036101341E-1,2.247544289E0,1.913105726E0,2.994169671E0
5.989161569E0,4.464182854E-1,3.019192696E0,1.984332800E0,3.640383287E0
5.993959225E0,5.250316858E-1,3.683722496E0,2.120236397E0,4.282624438E0
5.998756881E0,6.075584888E-1,4.002377987E0,2.373328209E0,4.692637175E0
6.003554538E0,6.408849955E-1,4.305578709E0,2.659582138E0,5.101187974E0
6.008352142E0,6.081606150E-1,4.660308838E0,2.959893703E0,5.554215384E0
6.013149798E0,5.840306282E-1,5.236084461E0,3.236209393E0,6.183099829E0
6.017947454E0,6.092180014E-1,5.762575150E0,3.436047077E0,6.736827031E0
6.022745110E0,6.071776748E-1,6.302048683E0,3.640550137E0,7.303292931E0
6.027542767E0,6.373460293E-1,6.816402435E0,3.713164568E0,7.788269591E0
6.032340423E0,7.107003927E-1,7.301162720E0,3.758715630E0,8.242573342E0
6.037138079E0,7.906755805E-1,7.749432087E0,3.736074924E0,8.639277828E0
6.041935683E0,8.630819321E-1,8.316585541E0,3.786280632E0,9.178585212E0
6.046733340E0,9.285021424E-1,9.016830444E0,3.858600140E0,9.851606089E0
6.051530996E0,1.004445553E0,9.575095177E0,3.967123270E0,1.041294509E1
6.056328652E0,1.067642212E0,1.014447021E1,4.046986580E0,1.097397996E1
6.061126308E0,1.129861951E0,1.035941792E1,4.042802334E0,1.117758374E1
6.065923965E0,1.209685087E0,1.046412182E1,3.859483719E0,1.121859162E1
6.070721569E0,1.323164225E0,1.045155334E1,3.643406868E0,1.114720344E1
6.075519225E0,1.386378288E0,1.040304756E1,3.442787647E0,1.104528090E1
6.080316881E0,1.454098225E0,1.035918427E1,3.291599274E0,1.096639075E1
6.085114538E0,1.511721969E0,1.024100590E1,3.190284967E0,1.083242463E1
6.089912194E0,1.552002430E0,1.028996086E1,3.165159464E0,1.087705109E1
6.094709850E0,1.586834431E0,1.027636909E1,3.127911568E0,1.085843617E1
6.099507506E0,1.654128313E0,1.022185516E1,3.147893429E0,1.082273979E1
6.104305110E0,1.705951810E0,1.031533337E1,3.200837612E0,1.093442890E1
6.109102767E0,1.803928375E0,1.023653984E1,3.224200487E0,1.088284771E1
6.113900423E0,1.845066309E0,1.024381447E1,3.282528877E0,1.091398188E1
6.118698079E0,1.972639561E0,1.024146938E1,3.339990616E0,1.095146288E1
6.123495735E0,2.045132399E0,1.027021885E1,3.406108856E0,1.101188173E1
6.128293392E0,2.136958122E0,1.041600895E1,3.519078493E0,1.120016723E1
6.133091048E0,2.238362312E0,1.042535686E1,3.636020660E0,1.126583232E1
6.137888652E0,2.296480894E0,1.055415154E1,3.668711662E0,1.140716373E1
6.142686308E0,2.368437529E0,1.069710922E1,3.720234632E0,1.157055693E1
6.147483965E0,2.472814560E0,1.070360374E1,3.786615610E0,1.161982800E1
6.152281621E0,2.578149319E0,1.077215004E1,3.777547836E0,1.170281753E1
6.157079277E0,2.696494102E0,1.101251125E1,3.820274591E0,1.196415407E1
6.161876933E0,2.794368267E0,1.117590237E1,3.814618587E0,1.213509797E1
6.166674538E0,2.863951445E0,1.119323730E1,3.791955471E0,1.216016881E1
6.171472194E0,2.900218010E0,1.132052898E1,3.725862980E0,1.226571221E1
6.176269850E0,2.998857260E0,1.146440125E1,3.616644621E0,1.238974411E1
6.181067506E0,3.066415787E0,1.150057411E1,3.495688438E0,1.240507752E1
6.185865163E0,3.128869534E0,1.138382721E1,3.351326942E0,1.227243818E1
6.190662819E0,3.205132008E0,1.157780075E1,3.161103487E0,1.242219452E1
6.195460423E0,3.340613842E0,1.178323841E1,3.009533405E0,1.261196652E1
6.200258079E0,3.363384724E0,1.167280483E1,3.027270794E0,1.251922913E1
6.205055735E0,3.393108368E0,1.156718063E1,2.960468292E0,1.241278473E1
6.209853392E0,3.387130737E0,1.162401390E1,2.909448624E0,1.245211810E1
6.214651048E0,3.391430855E0,1.171149635E1,2.876764297E0,1.252743880E1
6.219448704E0,3.351984024E0,1.173843193E1,2.879647732E0,1.254268520E1
6.224246360E0,3.274598360E0,1.168545246E1,2.815679312E0,1.245796306E1
6.229043965E0,3.179520607E0,1.165746307E1,2.785599232E0,1.240021611E1
6.233841621E0,3.046436787E0,1.150599098E1,2.798654795E0,1.222706319E1
6.238639277E0,2.938932896E0,1.135269547E1,2.945555210E0,1.209120823E1
6.243436933E0,2.831910133E0,1.111837482E1,3.085018873E0,1.188088024E1
6.248234590E0,2.733259201E0,1.065467453E1,3.154988289E0,1.144319651E1
6.253032246E0,2.676592350E0,1.015769577E1,3.153110027E0,1.096745334E1
6.257829850E0,2.646804571E0,9.677790642E0,3.047952652E0,1.048595353E1
6.262627506E0,2.595047474E0,9.219915390E0,2.870254040E0,9.998973419E0
6.267425163E0,2.580263853E0,8.858278275E0,2.765499115E0,9.631969731E0
6.272222819E0,2.606275558E0,8.559485435E0,2.694983006E0,9.344538330E0
6.277020475E0,2.680742025E0,8.122420311E0,1.932260871E0,8.768906522E0
6.281818131E0,2.809940577E0,7.448212624E0,-2.681326866E-2,7.960675617E0
6.286615788E0,2.860365629E0,6.372418880E0,-3.141416788E0,7.658845432E0
6.291413392E0,2.795104027E0,5.126041889E0,-7.629790306E0,9.607424842E0
6.296211048E0,2.576981068E0,3.587849140E0,-1.177918816E1,1.258025304E1
6.301008704E0,2.302906513E0,3.022373676E0,-1.188723660E1,1.247976422E1
6.305806360E0,1.958017945E0,2.953051567E0,-8.922640800E0,9.600409714E0
6.310604017E0,1.431633711E0,1.073179245E0,-5.122148037E0,5.425651047E0
6.315401673E0,1.751363277E0,-5.477977753E0,-4.662226200E0,7.403503679E0
6.320199329E0,1.192678928E0,-1.263954067E1,-8.584964752E0,1.532586347E1
6.324996933E0,-1.099111319E0,-2.881813812E1,-3.395134735E1,4.454646021E1
6.329794590E0,-7.751604557E0,-4.316008759E1,-3.591836548E1,5.668341479E1
6.334592246E0,-1.185068321E1,-5.539744568E1,-3.136659241E1,6.475475890E1
6.339389902E0,-1.225986958E1,-5.607744217E1,-1.948821640E1,6.061991835E1
6.344187558E0,-1.224826622E1,-4.768152237E1,-6.180385590E0,4.961597290E1
6.348985215E0,-1.245365143E1,-3.860705566E1,2.403332710E0,4.063710360E1
6.353782871E0,-1.156722832E1,-3.147116852E1,6.680577755E0,3.418867266E1
6.358580475E0,-1.029389286E1,-2.674275970E1,6.922986507E0,2.947994520E1
6.363378131E0,-9.284170151E0,-2.300573730E1,5.784770966E0,2.547397377E1
6.368175788E0,-8.585032463E0,-1.969459534E1,4.443415165E0,2.193909310E1
6.372973444E0,-8.072791100E0,-1.692129135E1,2.943721294E0,1.897802814E1
6.377771100E0,-7.791572094E0,-1.487626648E1,8.370018005E-1,1.681405579E1
6.382568756E0,-7.431072235E0,-1.322801971E1,-1.243308783E0,1.522324397E1
6.387366413E0,-7.080144882E0,-1.165479946E1,-3.008365631E0,1.396470787E1
6.392164069E0,-6.861929893E0,-1.105035877E1,-4.071198940E0,1.362978986E1
6.396961673E0,-6.681086540E0,-1.081727791E1,-4.043604374E0,1.334170735E1
6.401759329E0,-6.969550133E0,-1.126972961E1,-3.905869246E0,1.381438559E1
6.406556985E0,-7.405713081E0,-1.183044338E1,-4.371280193E0,1.462573305E1
6.411354642E0,-8.322660446E0,-1.078305149E1,-4.305021286E0,1.428545010E1
6.416152298E0,-7.918218613E0,-9.325179100E0,-4.587317944E0,1.306524539E1
6.420949954E0,-5.959590912E0,-4.096532822E0,-4.346201420E0,8.437284621E0
6.425747558E0,-4.027545929E0,-6.806440353E-1,-3.369154453E0,5.294865838E0
6.430545215E0,-3.236420155E0,-9.295988083E0,-3.804337025E0,1.055285696E1
6.435342871E0,-2.290354967E0,-1.142560291E1,-3.488991022E0,1.216401193E1
6.440140527E0,-1.427585363E0,-1.183276844E1,-4.070038795E0,1.259434892E1
6.444938183E0,-2.277046680E0,-1.239106846E1,-4.583424568E0,1.340639026E1
6.449735840E0,-3.202195883E0,-1.040774155E1,-5.206185341E0,1.206977665E1
6.454533496E0,3.854484558E-1,-1.078331280E1,-4.009260178E0,1.151097618E1
6.459331100E0,2.274699211E-1,-8.190059662E0,-3.475115299E0,8.899732927E0
6.464128756E0,-1.845230579E0,-6.444516182E0,-3.595751762E0,7.606976761E0
6.468926413E0,3.067195415E-1,-5.512304306E0,-5.484631062E-1,5.548007518E0
6.473724069E0,4.638085365E-1,-3.966983795E0,9.241658449E-1,4.099531839E0
6.478521725E0,3.400073051E-1,-2.668457031E0,2.044291258E0,3.378667584E0
6.483319381E0,2.296891212E-1,-1.013377190E0,2.344644547E0,2.564575690E0
6.488116985E0,-4.896974564E-2,6.546773911E-1,2.665832758E0,2.745480799E0
6.492914642E0,1.402420998E-1,2.673498154E0,2.597996712E0,3.730529070E0
6.497712298E0,1.154224873E-1,3.725727081E0,2.321274757E0,4.391204975E0
6.502509954E0,1.600489616E-1,4.278824806E0,2.345433950E0,4.882112023E0
6.507307610E0,2.355623245E-1,4.212303638E0,2.591570854E0,4.951285797E0
6.512105267E0,3.700869083E-1,4.170507431E0,2.907226801E0,5.097260463E0
6.516902923E0,5.085787773E-1,4.354569912E0,3.257612705E0,5.461956795E0
6.521700579E0,6.945602894E-1,4.891050339E0,3.381272554E0,5.986467364E0
6.526498183E0,9.018325806E-1,5.490621567E0,3.430555344E0,6.536737501E0
6.531295840E0,1.092011333E0,6.062671661E0,3.416876078E0,7.044396252E0
6.536093496E0,1.243969083E0,6.552363396E0,3.607518196E0,7.582553177E0
6.540891152E0,1.351154804E0,7.143825531E0,3.815503836E0,8.210842347E0
6.545688808E0,1.492929459E0,7.758145332E0,3.865927696E0,8.795627000E0
6.550486465E0,1.617219567E0,8.330983162E0,3.855975151E0,9.321438941E0
6.555284069E0,1.753615975E0,8.910372734E0,4.088033676E0,9.959012531E0
6.560081725E0,1.953287601E0,9.682957649E0,4.459887981E0,1.083815492E1
6.564879381E0,1.978515387E0,1.006564331E1,4.883309841E0,1.136126812E1
6.569677038E0,1.941839337E0,1.024534225E1,4.837075710E0,1.149500236E1
6.574474694E0,2.030936241E0,1.035101986E1,4.455204964E0,1.145064039E1
6.579272350E0,2.067198992E0,1.022458649E1,3.917751789E0,1.114290176E1
6.584070006E0,2.102004290E0,1.020037460E1,3.325918674E0,1.093287698E1
6.588867663E0,2.153751373E0,1.038512421E1,2.582885027E0,1.091607736E1
6.593665267E0,2.266599894E0,1.054361916E1,1.208386660E0,1.085198499E1
6.598462923E0,2.317287207E0,1.055130291E1,3.750858307E-1,1.080927854E1
6.603260579E0,2.338844299E0,1.061632252E1,-7.504940033E-3,1.087090395E1
6.608058235E0,2.257444620E0,1.061430168E1,-6.361460686E-2,1.085188938E1
6.612855892E0,2.212194443E0,1.069586945E1,-2.042150497E-2,1.092226371E1
6.617653548E0,2.146245241E0,1.073675537E1,2.479704618E-1,1.095197580E1
6.622451204E0,2.055433273E0,1.081589127E1,5.281840563E-1,1.102212721E1
6.627248808E0,1.995290995E0,1.084965611E1,7.883962393E-1,1.105973745E1
6.632046465E0,1.997360945E0,1.083589745E1,1.067907572E0,1.107007456E1
6.636844121E0,2.036122084E0,1.092778778E1,1.178715110E0,1.117818001E1
6.641641777E0,2.129550457E0,1.111584187E1,1.185791731E0,1.137993970E1
6.646439433E0,2.165380955E0,1.108951950E1,1.379460216E0,1.138284797E1
6.651237090E0,2.047533989E0,1.109051895E1,2.053512096E0,1.146337289E1
6.656034694E0,1.930720091E0,1.089897346E1,2.631791592E0,1.137724174E1
6.660832350E0,1.920013666E0,1.091189194E1,3.142738342E0,1.151662461E1
6.665630006E0,1.938890934E0,1.087335396E1,3.423506260E0,1.156328325E1
6.670427663E0,1.994749188E0,1.096502113E1,3.662929296E0,1.173148600E1
6.675225319E0,2.049450159E0,1.106003857E1,3.817889929E0,1.187859346E1
6.680022975E0,2.155734777E0,1.114407921E1,3.983703852E0,1.202944680E1
6.684820631E0,2.230037451E0,1.120037556E1,4.083775520E0,1.212842538E1
6.689618288E0,2.344126940E0,1.134362221E1,4.144430161E0,1.230239803E1
6.694415892E0,2.452110767E0,1.138737011E1,4.129688740E0,1.235877722E1
6.699213548E0,2.553637505E0,1.141539955E1,4.099371910E0,1.239504988E1
6.704011204E0,2.729692936E0,1.160942173E1,4.065180779E0,1.259982505E1
6.708808860E0,2.850435972E0,1.163728523E1,4.009819984E0,1.263447859E1
6.713606517E0,3.025006294E0,1.161882019E1,3.926175117E0,1.263180497E1
6.718404173E0,3.173859358E0,1.168577385E1,3.832886696E0,1.270124853E1
6.723201777E0,3.363464117E0,1.179527187E1,3.743780613E0,1.282408760E1
6.727999433E0,3.507089138E0,1.190936852E1,3.703613758E0,1.295567395E1
6.732797090E0,3.671080112E0,1.188506889E1,3.678134680E0,1.297152136E1
6.737594746E0,3.783368587E0,1.178244591E1,3.629000664E0,1.289610621E1
6.742392402E0,3.879556894E0,1.170931625E1,3.575214148E0,1.284294378E1
6.747190058E0,3.981143475E0,1.162514877E1,3.526134491E0,1.278386529E1
6.751987715E0,4.033281803E0,1.144405556E1,3.483827829E0,1.262421586E1
6.756785319E0,4.017425060E0,1.107302952E1,3.404841900E0,1.226151031E1
6.761582975E0,3.800953865E0,1.040681458E1,3.270415783E0,1.155182493E1
6.766380631E0,3.573720932E0,9.772742271E0,3.107671261E0,1.085981554E1
6.771178288E0,3.412421227E0,9.113069534E0,2.934235811E0,1.016377857E1
6.775975944E0,3.283430099E0,8.573473930E0,2.769682646E0,9.589395727E0
6.780773600E0,3.214643002E0,8.089531898E0,2.652086735E0,9.099891209E0
6.785571256E0,3.200493574E0,7.740210056E0,2.650785446E0,8.785253230E0
6.790368913E0,3.180530548E0,7.463390350E0,2.782395363E0,8.576694821E0
6.795166517E0,3.228448153E0,7.271007538E0,2.929821491E0,8.477870137E0
6.799964173E0,3.295595646E0,7.043446541E0,2.931267500E0,8.310440361E0
6.804761829E0,3.387549639E0,6.565781116E0,9.751701355E-1,7.452243355E0
6.809559485E0,3.105724335E0,5.177769184E0,-9.653049469E0,1.138578857E1
6.814357142E0,2.367754936E0,2.810132980E0,-2.309862900E1,2.338909516E1
6.819154798E0,9.429115057E-1,-1.673316956E-2,-3.221553040E1,3.222933075E1
6.823952454E0,-5.760595798E-1,-2.909845352E0,-3.007325172E1,3.021919115E1
6.828750110E0,-2.079433441E0,-8.100309372E0,-2.965174103E1,3.080851832E1
6.833547715E0,-3.946008682E0,-1.149317837E1,-2.576905441E1,2.849049489E1
6.838345371E0,-4.683001518E0,-1.858922958E1,-1.808836365E1,2.635676117E1
6.843143027E0,-5.105067253E0,-2.649527168E1,-1.143172264E1,2.930435831E1
6.847940683E0,-5.030679703E0,-3.310383224E1,-5.295245171E0,3.390001577E1
6.852738340E0,-5.197992802E0,-4.114174652E1,1.703341246E0,4.150378064E1
6.857535996E0,-7.735078335E0,-4.871526337E1,7.595650673E0,4.990693570E1
6.862333652E0,-1.024209023E1,-5.135558319E1,1.062100124E1,5.343315454E1
6.867131256E0,-1.248124313E1,-4.915198898E1,1.029389477E1,5.174614692E1
6.871928913E0,-1.302766228E1,-4.371566772E1,6.977781296E0,4.614617016E1
6.876726569E0,-1.316929436E1,-3.730567932E1,3.247326136E0,3.969495120E1
6.881524225E0,-1.276832962E1,-3.038547134E1,7.122039795E-2,3.295925033E1
6.886321881E0,-1.153730965E1,-2.443619728E1,-3.689773560E0,2.727364443E1
6.891119538E0,-9.254961967E0,-2.123789597E1,-7.806776524E0,2.444684654E1
6.895917194E0,-7.111428261E0,-1.712406540E1,-1.076083374E1,2.143832014E1
6.900714798E0,-5.104382515E0,-1.402162933E1,-1.391156578E1,2.040079588E1
6.905512454E0,-4.155498505E0,-1.277930260E1,-1.631605148E1,2.113746150E1
6.910310110E0,-3.846010447E0,-1.221201706E1,-1.638934326E1,2.079749335E1
6.915107767E0,-3.898420811E0,-1.032182312E1,-1.479993439E1,1.846011309E1
6.919905423E0,-4.121959686E0,-9.893239975E0,-1.147748375E1,1.570348312E1
6.924703079E0,-4.059443474E0,-9.566644669E0,-8.549167633E0,1.345689558E1
6.929500735E0,-3.724837542E0,-8.939317703E0,-6.181281090E0,1.148886642E1
6.934298392E0,-3.502253771E0,-8.163649559E0,-4.719794273E0,1.005919547E1
6.939095996E0,-3.315368652E0,-7.279191017E0,-3.558620214E0,8.754545619E0
6.943893652E0,-3.197277546E0,-6.255334854E0,-2.957887650E0,7.622394453E0
6.948691308E0,-3.100328922E0,-5.574053764E0,-2.671742916E0,6.915224147E0
6.953488965E0,-3.116246700E0,-4.927647591E0,-2.060661316E0,6.183771449E0
6.958286621E0,-3.059072971E0,-4.553507805E0,-1.067044497E0,5.588465329E0
6.963084277E0,-2.961469650E0,-3.871520042E0,-9.255433083E-2,4.875196020E0
6.967881933E0,-2.758523941E0,-2.748661041E0,5.800864697E-1,3.937142640E0
6.972679590E0,-2.481879234E0,-2.697391510E0,7.241315842E-1,3.736309950E0
6.977477194E0,-2.117707729E0,-1.818374634E0,5.618865490E-1,2.847259881E0
6.982274850E0,-1.308140159E0,1.294537544E0,-1.084370136E0,2.136098481E0
6.987072506E0,-5.118659735E-1,4.403839111E0,-5.582519054E0,7.128837541E0
6.991870163E0,-1.292784452E0,5.151004791E-1,-1.523362160E0,2.063311032E0
6.996667819E0,-1.540243983E0,-1.125533104E0,1.167173505E0,2.236396719E0
7.001465475E0,-1.238830209E0,-1.407411575E0,2.844441652E0,3.406810230E0
7.006263131E0,-1.412681580E0,-1.734696388E0,4.495639801E0,5.021515511E0
7.011060735E0,-7.123647928E-1,-1.158558846E0,4.298680305E0,4.508699875E0
7.015858392E0,-2.315610647E-1,-2.397890091E-1,3.806594372E0,3.821162128E0
7.020656048E0,-3.884005547E-2,8.339653015E-1,3.412134409E0,3.512786344E0
7.025453704E0,6.466484070E-2,1.727265358E0,3.187298298E0,3.625809923E0
7.030251360E0,1.069967747E-1,2.592928886E0,3.045933008E0,4.001554249E0
7.035049017E0,1.057845354E-1,3.239585400E0,3.002494335E0,4.418266194E0
7.039846673E0,1.907683611E-1,3.975695133E0,3.037749529E0,5.007041697E0
7.044644277E0,2.642983198E-1,4.717525482E0,3.074861288E0,5.637346203E0
7.049441933E0,3.790805936E-1,5.371831417E0,3.073293209E0,6.200435954E0
7.054239590E0,4.732564688E-1,6.034423828E0,3.171242952E0,6.833375775E0
7.059037246E0,4.139074087E-1,6.726694107E0,3.277827263E0,7.494256769E0
7.063834902E0,5.069655180E-1,7.314812660E0,3.149320126E0,7.980082427E0
7.068632558E0,5.847905874E-1,7.951935768E0,3.110918999E0,8.558801289E0
7.073430215E0,6.718165874E-1,8.681089401E0,3.107183218E0,9.244849283E0
7.078227871E0,6.781072617E-1,9.406492233E0,3.083169937E0,9.922089621E0
7.083025475E0,6.858674288E-1,1.007523060E1,2.949266672E0,1.052040207E1
7.087823131E0,7.603975534E-1,1.082100964E1,2.868871450E0,1.122064514E1
7.092620788E0,8.074139953E-1,1.092694187E1,2.815619707E0,1.131272250E1
7.097418444E0,8.472730517E-1,1.082413292E1,2.648519039E0,1.117561534E1
7.102216100E0,8.250779510E-1,1.090705872E1,2.552294731E0,1.123204754E1
7.107013756E0,7.932884693E-1,1.088633060E1,2.381265640E0,1.117192583E1
7.111811360E0,7.519552708E-1,1.081701946E1,2.298289776E0,1.108401925E1
7.116609017E0,7.180140018E-1,1.079002762E1,2.269819975E0,1.104953949E1
7.121406673E0,6.798342466E-1,1.083872318E1,2.207599401E0,1.108212931E1
7.126204329E0,6.613578796E-1,1.078617001E1,2.111816645E0,1.101084135E1
7.131001985E0,6.312695146E-1,1.070191097E1,2.116070509E0,1.092735806E1
7.135799642E0,6.082265377E-1,1.055507183E1,2.145735264E0,1.078812591E1
7.140597298E0,5.989102125E-1,1.045809364E1,2.164940119E0,1.069660609E1
7.145394954E0,5.671507120E-1,1.038235092E1,2.223520994E0,1.063291664E1
7.150192558E0,5.633450747E-1,1.035646915E1,2.271389961E0,1.061758086E1
7.154990215E0,5.806424618E-1,1.041617870E1,2.280102730E0,1.067861381E1
7.159787871E0,6.005024910E-1,1.047284317E1,2.312278509E0,1.074186572E1
7.164585527E0,6.257383823E-1,1.059573364E1,2.298742533E0,1.086026414E1
7.169383183E0,6.351424456E-1,1.063888359E1,2.230460405E0,1.088871910E1
7.174180840E0,6.524599791E-1,1.065495396E1,2.141095877E0,1.088751760E1
7.178978496E0,6.268655658E-1,1.059612846E1,1.964134693E0,1.079484710E1
7.183776152E0,5.964435935E-1,1.062250423E1,1.748033047E0,1.078188113E1
7.188573756E0,6.352000833E-1,1.067885780E1,1.608207107E0,1.081793942E1
7.193371413E0,6.691721678E-1,1.082952309E1,1.509302616E0,1.095464997E1
7.198169069E0,7.344698310E-1,1.094517708E1,1.420675039E0,1.106140429E1
7.202966725E0,7.612109780E-1,1.093028069E1,1.387604952E0,1.104427116E1
7.207764381E0,7.705875635E-1,1.090685558E1,1.445802450E0,1.102921795E1
7.212562038E0,7.788245678E-1,1.095622063E1,1.494412303E0,1.108506230E1
7.217359694E0,8.047833443E-1,1.099944973E1,1.638274431E0,1.114986608E1
7.222157350E0,8.580075502E-1,1.105338764E1,1.823982835E0,1.123567838E1
7.226954954E0,9.191859961E-1,1.102493668E1,2.012563467E0,1.124475626E1
7.231752610E0,9.715806246E-1,1.109110546E1,2.222697258E0,1.135328025E1
7.236550267E0,1.065208197E0,1.111091805E1,2.441713810E0,1.142581002E1
7.241347923E0,1.142403603E0,1.127097034E1,2.637963295E0,1.163179732E1
7.246145579E0,1.215230703E0,1.137994003E1,2.811195850E0,1.178484802E1
7.250943235E0,1.290962219E0,1.152394485E1,2.896730900E0,1.195236120E1
7.255740892E0,1.465224385E0,1.153797817E1,2.921091318E0,1.199185546E1
7.260538496E0,1.592367411E0,1.184045124E1,2.986870766E0,1.231476011E1
7.265336152E0,1.694208145E0,1.193625546E1,3.048631668E0,1.243538060E1
7.270133808E0,1.847376347E0,1.200021172E1,3.113079786E0,1.253431874E1
7.274931465E0,1.958977222E0,1.202532673E1,3.198733807E0,1.259674453E1
7.279729121E0,2.076954365E0,1.144779205E1,3.240523577E0,1.207752770E1
7.284526777E0,2.015802622E0,1.100687313E1,3.383867264E0,1.169039238E1
7.289324433E0,1.908470392E0,1.047308350E1,3.508457661E0,1.120879174E1
7.294122090E0,1.734389544E0,1.003043938E1,3.564180851E0,1.078523093E1
7.298919694E0,1.641658068E0,9.583125114E0,3.525079012E0,1.034202641E1
7.303717350E0,1.622385025E0,9.174059868E0,3.489598274E0,9.948507614E0
7.308515006E0,1.615672469E0,8.762587547E0,3.467425108E0,9.561191083E0
7.313312663E0,1.689539433E0,8.394109726E0,3.370444775E0,9.201930209E0
7.318110319E0,1.927370787E0,7.922316551E0,2.808887959E0,8.623671448E0
7.322907975E0,2.410457611E0,6.960016251E0,-1.983211040E-1,7.368274110E0
7.327705631E0,3.023553371E0,5.034059525E0,-8.471304893E0,1.030760093E1
7.332503288E0,3.111810923E0,2.877737999E0,-1.657851410E1,1.711174664E1
7.337300892E0,2.675455332E0,6.237969398E-1,-2.159305954E1,2.176711750E1
7.342098548E0,1.876567721E0,-2.139938354E0,-2.301454544E1,2.318987159E1
7.346896204E0,8.835477829E-1,-2.416245461E0,-2.158072853E1,2.173353958E1
7.351693860E0,-4.487592578E-1,-2.436771393E0,-1.806339836E1,1.823254234E1
7.356491517E0,-2.264291286E0,-2.407670021E0,-1.569060326E1,1.603492814E1
7.361289173E0,-3.544994354E0,-8.718144417E0,-1.470372963E1,1.745774018E1
7.366086829E0,-4.389843464E0,-2.085260582E1,-1.499595928E1,2.605725791E1
7.370884433E0,-3.562734365E0,-3.006543732E1,-9.868291855E0,3.184347314E1
7.375682090E0,-1.910028458E0,-3.903083420E1,-4.758550167E0,3.936620412E1
7.380479746E0,-1.216488361E0,-4.716514587E1,2.161185265E0,4.723030331E1
7.385277402E0,-2.780431032E0,-5.037944031E1,7.224819183E0,5.097074469E1
7.390075058E0,-3.268058300E0,-4.834288025E1,1.025999832E1,4.952758667E1
7.394872715E0,-3.762241364E0,-4.277711868E1,9.829225540E0,4.405280942E1
7.399670371E0,-5.303136826E0,-3.532572556E1,6.990301609E0,3.639909975E1
7.404468027E0,-6.515021324E0,-2.807537460E1,3.370050907E0,2.901774294E1
7.409265631E0,-7.305339813E0,-2.213942337E1,-1.096843719E0,2.333934710E1
7.414063288E0,-7.186342239E0,-1.681879425E1,-7.245596409E0,1.967267196E1
7.418860944E0,-5.523270130E0,-1.217212105E1,-1.363298225E1,1.909254433E1
7.423658600E0,-3.256676674E0,-8.927447319E0,-1.862836647E1,2.091222838E1
7.428456256E0,-1.533734798E0,-6.326490402E0,-1.948960876E1,2.054803331E1
7.433253913E0,-8.204324245E-1,-5.505452156E0,-1.604233360E1,1.698056478E1
7.438051569E0,-3.868651986E-1,-7.437126160E0,-1.152041149E1,1.371788581E1
7.442849225E0,-4.253832102E-1,-8.853644371E0,-8.258515358E0,1.211491005E1
7.447646829E0,-6.400092244E-1,-9.247076035E0,-5.912119865E0,1.099414336E1
7.452444485E0,-1.052502632E0,-1.112133503E1,-4.796258926E0,1.215713594E1
7.457242142E0,-1.745027304E0,-1.185671234E1,-4.185090542E0,1.269416128E1
7.462039798E0,-2.520308256E0,-1.111981201E1,-3.773284912E0,1.200998967E1
7.466837454E0,-3.158304930E0,-9.889922142E0,-3.979001522E0,1.111835883E1
7.471635110E0,-2.978268147E0,-6.726184845E0,-4.149611473E0,8.445763382E0
7.476432767E0,-1.863687754E0,-4.283908844E0,-3.288129091E0,5.712880180E0
7.481230423E0,-9.117842317E-1,-7.253540993E0,-2.077255487E0,7.600013012E0
7.486028079E0,1.428192854E-2,-7.166076660E0,-1.670545816E0,7.358232260E0
7.490825683E0,1.747239828E-1,-8.655018806E0,-2.130023479E0,8.914980596E0
7.495623340E0,4.199966192E-1,-8.357473373E0,-3.096895933E0,8.922697057E0
7.500420996E0,1.025252938E0,-6.856297493E0,-2.180426121E0,7.267339057E0
7.505218652E0,1.556768060E0,-6.375691414E0,-1.325468302E0,6.695508496E0
7.510016308E0,1.297509670E0,-6.577627182E0,-1.106801271E0,6.795124704E0
7.514813965E0,8.706862926E-1,-6.675683022E0,-4.652013779E-1,6.748277613E0
7.519611621E0,3.565300107E-1,-6.119242668E0,2.774424553E-1,6.135895924E0
7.524409277E0,-8.231312037E-3,-4.568408966E0,7.582902908E-1,4.630921334E0
7.529206881E0,-1.814681292E-1,-3.140658379E0,8.830661774E-1,3.267487048E0
7.534004538E0,-4.191659689E-1,-3.151855469E0,8.228015900E-1,3.284340948E0
7.538802194E0,-5.258861780E-1,-2.049917221E0,6.346027851E-1,2.209397560E0
7.543599850E0,-6.181806326E-1,-1.336643219E0,4.732065201E-1,1.546831213E0
7.548397506E0,-7.453302145E-1,-5.451269150E-1,3.376741409E-1,9.832112222E-1
7.553195163E0,-7.475548387E-1,4.084882736E-1,3.490586281E-1,9.206208950E-1
7.557992819E0,-6.784698963E-1,1.127633095E0,4.488766193E-1,1.390456046E0
7.562790475E0,-4.438899159E-1,1.701378822E0,7.077178955E-1,1.895413616E0
7.567588079E0,-2.144650966E-1,2.232950211E0,1.148432612E0,2.520110987E0
7.572385735E0,1.620039344E-2,2.839807034E0,1.561913133E0,3.241039814E0
7.577183392E0,1.259673834E-1,3.522188663E0,1.884913206E0,3.996821056E0
7.581981048E0,5.666524172E-3,4.294484138E0,2.088284254E0,4.775307032E0
7.586778704E0,-6.695184112E-2,4.984688282E0,2.279047728E0,5.481392010E0
7.591576360E0,-8.254322410E-2,5.650534630E0,2.374961376E0,6.129909993E0
7.596374017E0,-7.488614321E-2,6.299361706E0,2.351693392E0,6.724435117E0
7.601171673E0,-1.104215533E-2,6.783191681E0,2.442908525E0,7.209688854E0
7.605969277E0,6.344006956E-2,7.300659657E0,2.497495651E0,7.716290598E0
7.610766933E0,1.346713454E-1,8.050032616E0,2.286038399E0,8.369416530E0
7.615564590E0,1.144782305E-1,8.591167450E0,2.382685900E0,8.916190639E0
7.620362246E0,3.210452199E-2,9.041413307E0,2.394974232E0,9.353292835E0
7.625159902E0,-8.064569533E-2,9.422162056E0,2.474226713E0,9.741942279E0
7.629957558E0,-1.514683515E-1,9.833782196E0,2.534528971E0,1.015628141E1
7.634755215E0,-2.443304360E-1,1.013750648E1,2.535627365E0,1.045266192E1
7.639552871E0,-3.085786700E-1,1.024976826E1,2.597248077E0,1.057821666E1
7.644350475E0,-3.440065384E-1,1.030692768E1,2.583423615E0,1.063132994E1
7.649148131E0,-4.267739654E-1,1.032577324E1,2.506237268E0,1.063414097E1
7.653945788E0,-4.946622849E-1,1.024655533E1,2.444794178E0,1.054578615E1
7.658743444E0,-5.425757170E-1,1.027246094E1,2.346829891E0,1.055108775E1
7.663541100E0,-5.798791647E-1,1.028862286E1,2.300952435E0,1.055871215E1
7.668338756E0,-6.232517958E-1,1.031656361E1,2.206761837E0,1.056833597E1
7.673136413E0,-6.750679612E-1,1.037298679E1,2.133688688E0,1.061165393E1
7.677934017E0,-6.847986579E-1,1.049608898E1,2.060342073E0,1.071829476E1
7.682731673E0,-7.312437296E-1,1.058784008E1,1.972314239E0,1.079477181E1
7.687529329E0,-7.710422873E-1,1.070088387E1,1.943718910E0,1.090327771E1
7.692326985E0,-8.204287291E-1,1.086868668E1,1.926754475E0,1.106859685E1
7.697124642E0,-8.887325525E-1,1.098363876E1,1.847478867E0,1.117333183E1
7.701922298E0,-9.206377864E-1,1.109838867E1,1.825656414E0,1.128515956E1
7.706719954E0,-9.709050059E-1,1.125836658E1,1.684461474E0,1.142501138E1
7.711517610E0,-9.918656349E-1,1.123885918E1,1.558012724E0,1.138960740E1
7.716315267E0,-1.038580298E0,1.129332924E1,1.420523167E0,1.142960281E1
7.721112871E0,-1.074995160E0,1.132836914E1,1.279972076E0,1.145102137E1
7.725910527E0,-1.098628163E0,1.142279816E1,1.115447044E0,1.152959339E1
7.730708183E0,-1.099930644E0,1.152153397E1,9.704295397E-1,1.161453081E1
7.735505840E0,-1.114879727E0,1.162692165E1,8.571956754E-1,1.171166292E1
7.740303496E0,-1.100425839E0,1.164818287E1,7.971916795E-1,1.172717424E1
7.745101152E0,-1.111812711E0,1.163800430E1,7.855786681E-1,1.171735489E1
7.749898808E0,-1.089541912E0,1.154623508E1,8.199124336E-1,1.162647421E1
7.754696465E0,-1.064894319E0,1.155462837E1,9.549832344E-1,1.164282739E1
7.759494069E0,-1.054773569E0,1.156028748E1,1.066433907E0,1.165718984E1
7.764291725E0,-1.021180153E0,1.157994461E1,1.209190369E0,1.168760315E1
7.769089381E0,-9.406448603E-1,1.142481518E1,1.256215334E0,1.153209832E1
7.773887038E0,-8.900355697E-1,1.130534554E1,1.327430844E0,1.141775256E1
7.778684694E0,-8.765760064E-1,1.138874340E1,1.427781582E0,1.151131713E1
7.783482350E0,-8.356702924E-1,1.151697063E1,1.500213265E0,1.164429462E1
7.788280006E0,-7.912998796E-1,1.167074776E1,1.588373303E0,1.180489045E1
7.793077663E0,-7.505325079E-1,1.184041214E1,1.711780667E0,1.198702848E1
7.797875267E0,-6.701778173E-1,1.202582359E1,1.863921165E0,1.218785352E1
7.802672923E0,-6.146063209E-1,1.216709709E1,2.009553909E0,1.234723854E1
7.807470579E0,-5.477362871E-1,1.219963741E1,2.201850414E0,1.240884013E1
7.812268235E0,-4.878349304E-1,1.207560921E1,2.465627193E0,1.233440870E1
7.817065892E0,-4.694483280E-1,1.155849075E1,2.703489065E0,1.187972825E1
7.821863548E0,-4.559579492E-1,1.098082542E1,2.808193445E0,1.134338464E1
7.826661204E0,-4.401119351E-1,1.049552345E1,2.815493584E0,1.087550988E1
7.831458860E0,-4.056260586E-1,1.004984188E1,2.774849176E0,1.043377411E1
7.836256465E0,-4.034795463E-1,9.672370911E0,2.714034557E0,1.005403095E1
7.841054121E0,-3.341511786E-1,9.358095169E0,2.582519770E0,9.713650733E0
7.845851777E0,-1.612146199E-1,8.859983444E0,1.723274708E0,9.027456591E0
7.850649433E0,1.414516568E-1,8.071688652E0,-6.363749504E-2,8.073178804E0
7.855447090E0,4.820234179E-1,6.960119724E0,-2.370352268E0,7.368458660E0
7.860244746E0,8.441644907E-1,5.502831459E0,-5.723257065E0,7.984324592E0
7.865042402E0,1.152071357E0,3.592713833E0,-9.414930344E0,1.014276957E1
7.869840058E0,1.315311432E0,2.590488911E0,-1.103387356E1,1.140995367E1
7.874637663E0,1.293876410E0,1.918733597E0,-1.015684795E1,1.041715965E1
7.879435319E0,1.307432652E0,1.753437996E0,-7.278223991E0,7.599767721E0
7.884232975E0,9.157125950E-1,1.123012543E0,-3.876534224E0,4.138502666E0
7.889030631E0,1.724281788E0,-4.327453613E0,-2.470617771E0,5.272945536E0
7.893828288E0,2.495817661E0,-1.218264484E1,-6.090784550E0,1.384715125E1
7.898625944E0,4.709959030E0,-2.462423134E1,-2.541113853E1,3.569681281E1
7.903423600E0,6.858263016E0,-3.916613007E1,-3.934432983E1,5.593744547E1
7.908221256E0,6.861842155E0,-5.083354568E1,-3.113139725E1,6.000248444E1
7.913018913E0,6.647093773E0,-5.379771042E1,-2.066968346E1,5.801390623E1
7.917816517E0,4.968542576E0,-4.757017899E1,-7.944262028E0,4.848422056E1
7.922614173E0,2.494073391E0,-3.774442291E1,1.941439629E0,3.787652374E1
7.927411829E0,3.266067505E-1,-2.900525665E1,7.710357666E0,3.001434991E1
7.932209485E0,-6.159096956E-1,-2.248867607E1,8.972227097E0,2.422025506E1
7.937007142E0,-1.297154427E0,-1.785911751E1,7.536314487E0,1.942747343E1
7.941804798E0,-1.652540922E0,-1.420008850E1,5.238543034E0,1.522549632E1
7.946602454E0,-1.514020801E0,-1.151399994E1,2.401570320E0,1.185883610E1
7.951400110E0,-1.242217779E0,-1.055460262E1,-8.264162540E-1,1.065953589E1
