"Time (s)","Linear Acceleration x (m/s^2)","Linear Acceleration y (m/s^2)","Linear Acceleration z (m/s^2)","Absolute acceleration (m/s^2)"
1.009397200E-2,0.000000000E0,0.000000000E0,0.000000000E0,0.000000000E0
1.498740900E-2,5.644860268E-1,-1.527662277E-1,5.918731689E-1,8.320431737E-1
1.988110700E-2,1.562586904E0,-9.195618629E-1,1.384781361E0,2.281423080E0
2.477470100E-2,4.470841289E-1,-3.740844727E-1,1.042325497E0,1.194263728E0
2.966829500E-2,-2.318319082E-1,1.758185387E0,1.304982185E0,2.201803895E0
3.456188800E-2,-2.765742540E-1,1.560709476E0,8.938245773E-1,1.819678478E0
3.945543000E-2,-3.644661903E-1,1.144653797E0,6.988515854E-1,1.389770290E0
4.434907600E-2,-2.577300072E-1,4.287395477E-1,4.703445435E-1,6.866340699E-1
4.924267000E-2,-1.729106903E-1,-4.212679863E-1,2.595338821E-1,5.241399232E-1
5.413621100E-2,4.263341427E-2,-1.221759081E0,1.797628403E-1,1.235648631E0
5.902980500E-2,4.787321687E-1,-1.773193121E0,5.948543549E-2,1.837644375E0
6.392339900E-2,7.735142112E-1,-1.891359806E0,-2.699851990E-1,2.061178827E0
6.881699200E-2,8.937529325E-1,-1.636490822E0,-7.466020584E-1,2.008559471E0
7.371058600E-2,8.214053512E-1,-1.171814203E0,-1.348963737E0,1.966610903E0
7.860418000E-2,6.987952590E-1,-6.474461555E-1,-2.101741791E0,2.307557127E0
8.349777400E-2,7.089518309E-1,-1.443784237E-1,-2.789669037E0,2.881963075E0
8.839136700E-2,8.337851763E-1,5.185127258E-3,-3.260231495E0,3.365164781E0
9.328496100E-2,1.120325565E0,-7.785058022E-2,-3.476841450E0,3.653712708E0
9.817855500E-2,1.464121103E0,-7.645678520E-2,-3.265613079E0,3.579626381E0
1.030721490E-1,1.510167122E0,-4.959561825E-1,-3.285452843E0,3.649764054E0
1.079657420E-1,1.609165430E0,-8.748350143E-1,-3.400830269E0,3.862692869E0
1.128593360E-1,1.728350878E0,-1.388025641E0,-3.577219009E0,4.208361650E0
1.177529300E-1,1.853637218E0,-1.676593542E0,-3.614711046E0,4.394664127E0
1.226465240E-1,1.881703377E0,-2.256925583E0,-3.740690947E0,4.756815052E0
1.275401170E-1,2.253823519E0,-2.250832796E0,-3.635526180E0,4.833530732E0
1.324337110E-1,2.402825356E0,-2.674495697E0,-3.824131489E0,5.248854977E0
1.373273050E-1,2.843231916E0,-2.787217617E0,-3.810580969E0,5.511177469E0
1.422208990E-1,3.043312311E0,-2.999409199E0,-3.731891155E0,5.673201650E0
1.471144400E-1,2.638335943E0,-3.314333200E0,-3.568269491E0,5.538787618E0
1.520080340E-1,1.482105255E-2,-2.832003117E0,-1.659949780E0,3.282665774E0
1.569016280E-1,1.656631947E0,-3.615960121E0,-2.032130241E0,4.466447170E0
1.617952220E-1,-3.017902374E-3,-6.781229019E0,-3.418731689E-1,6.789841926E0
1.666888150E-1,5.196509361E-1,-7.147370815E0,-1.704330444E-1,7.168262976E0
1.715824090E-1,-8.890771866E-2,-7.743920803E0,3.013458252E-1,7.750291820E0
1.764760030E-1,-8.737504482E-1,-6.694070816E0,3.906884193E-1,6.762149168E0
1.813695970E-1,-7.331566811E-1,-2.695979357E0,2.118512630E0,3.506268555E0
1.862631900E-1,3.499114513E-1,-4.871271551E-1,3.586545944E0,3.636350189E0
1.911567840E-1,5.624089241E-1,6.948077679E-1,4.963082790E0,5.042940850E0
1.960503780E-1,-4.463651180E-1,1.190038085E0,5.657479286E0,5.798491557E0
2.009439720E-1,-1.541004896E0,1.058031797E0,5.300922394E0,5.620845630E0
2.058375650E-1,-2.215066910E0,6.642053723E-1,4.626014709E0,5.171818083E0
2.107311590E-1,-2.175296783E0,6.296266317E-1,4.414800644E0,4.961734628E0
2.156247530E-1,-1.984117270E0,9.656738043E-1,4.376500607E0,4.901326840E0
2.205183470E-1,-2.521060705E0,1.062369943E0,4.999329567E0,5.698918590E0
2.254119400E-1,-2.677620411E0,7.307721376E-1,4.494887829E0,5.282773474E0
2.303055340E-1,-2.820592403E0,1.070949793E0,4.182227135E0,5.156907869E0
2.351991280E-1,-3.181109190E0,1.227178097E0,4.442917824E0,5.600441103E0
2.400926700E-1,-2.504881144E0,7.187340260E-1,2.607048035E0,3.686150783E0
2.449863150E-1,-1.491495967E0,8.207582235E-1,2.077486992E0,2.685918182E0
2.498798570E-1,-2.666997433E0,9.676898122E-1,2.869330406E0,4.035140129E0
2.546786590E-1,-2.909394026E0,9.446280003E-1,2.070682526E0,3.693862718E0
2.594763150E-1,-2.371279001E0,1.370307088E0,1.516276360E0,3.130463163E0
2.642739720E-1,-2.102740765E0,1.402966499E0,9.884471893E-1,2.714196302E0
2.690716280E-1,-1.750526786E0,1.071666718E0,5.465898514E-1,2.124046621E0
2.738692840E-1,-1.281937003E0,2.889462113E-1,2.459220886E-1,1.336910643E0
2.786669400E-1,-7.886254787E-1,-4.774847925E-1,3.653650284E-1,9.916720611E-1
2.834645970E-1,-4.356329441E-1,-1.206031084E0,4.198274612E-1,1.349274670E0
2.882622530E-1,-7.314944267E-2,-1.459769964E0,8.003854752E-1,1.666402142E0
2.930599090E-1,5.043704510E-1,-1.419677258E0,1.035003662E0,1.827869155E0
2.978575650E-1,1.171868086E0,-1.582460165E0,4.626522064E-1,2.022746165E0
3.026552220E-1,1.796488762E0,-1.420631409E0,1.532144547E-1,2.295438986E0
3.074528780E-1,2.309939146E0,-8.807824850E-1,1.077423096E-1,2.474511073E0
3.122505340E-1,2.403739214E0,-2.345105708E-1,3.468408585E-1,2.439929507E0
3.170481900E-1,2.088775873E0,3.928325176E-1,8.278160095E-1,2.280916785E0
3.218458470E-1,1.430073738E0,1.022003412E0,1.348491192E0,2.215407494E0
3.266435030E-1,6.904625893E-1,1.355665207E0,1.714070797E0,2.291856330E0
3.314411590E-1,1.419792175E-1,1.265408516E0,1.838045120E0,2.236029220E0
3.362388150E-1,-2.802746296E-1,6.851059794E-1,1.369059563E0,1.556357336E0
3.410364200E-1,-1.446931362E-1,8.964598179E-3,1.002478600E-1,1.762557832E-1
3.458340760E-1,2.687530518E-1,-5.333001614E-1,-9.594950676E-1,1.130162842E0
3.506317320E-1,-6.738662720E-3,-1.289644361E0,-9.861989021E-1,1.623519714E0
3.554293880E-1,-3.027849197E-1,-1.837869644E0,-1.083514214E0,2.154865793E0
3.602270450E-1,-2.565326691E-1,-2.106076002E0,-1.371380806E0,2.526272046E0
3.650247010E-1,6.438174248E-1,-1.954011679E0,-2.472934246E0,3.216841044E0
3.698223570E-1,6.838932037E-1,-2.146958113E0,-1.769918919E0,2.865266485E0
3.746200130E-1,2.248797417E-1,-2.045295000E0,-9.913635254E-1,2.283988655E0
3.794176700E-1,-6.406741142E-1,-1.814987063E0,-4.804935455E-1,1.983813350E0
3.842153260E-1,-1.316342831E0,-1.735951781E0,-6.737031937E-1,2.280386596E0
3.890129820E-1,-1.634440660E0,-1.736264467E0,-1.162065029E0,2.652622420E0
3.938106380E-1,-1.791569233E0,-1.627495766E0,-1.619143009E0,2.912058871E0
3.986082950E-1,-2.075255632E0,-1.644840956E0,-1.889324188E0,3.252957669E0
4.034059510E-1,-2.463351488E0,-1.882076383E0,-1.943256855E0,3.658764719E0
4.082036070E-1,-2.796238899E0,-2.104500055E0,-1.601583004E0,3.848758317E0
4.130012630E-1,-2.971910954E0,-2.318404675E0,-9.339404106E-1,3.883233143E0
4.177989200E-1,-3.152280807E0,-2.627139330E0,-1.646246910E-1,4.106803701E0
4.225965760E-1,-3.214807272E0,-2.912802219E0,5.926938057E-1,4.378434482E0
4.273942320E-1,-3.190649986E0,-3.047966719E0,1.049407959E0,4.535593183E0
4.321918360E-1,-3.141324520E0,-3.083156109E0,1.516326904E0,4.655428940E0
4.369894920E-1,-2.984195709E0,-2.696420431E0,1.821905613E0,4.415364904E0
4.417871490E-1,-3.073912621E0,-2.540646553E0,2.001039028E0,4.461836046E0
4.465848050E-1,-3.041016102E0,-2.437372684E0,1.760743618E0,4.276538626E0
4.513824610E-1,-2.742485285E0,-2.214092016E0,1.276917934E0,3.748859614E0
4.561801170E-1,-2.344662905E0,-2.350643158E0,7.676820755E-1,3.407682961E0
4.609777740E-1,-2.051709652E0,-2.423826218E0,1.161161423E0,3.381233781E0
4.657754300E-1,-1.897916317E0,-2.387645245E0,1.211966515E0,3.282041894E0
4.705730860E-1,-1.733607769E0,-2.894685507E0,7.362084389E-1,3.453491414E0
4.753707420E-1,-1.227754116E0,-3.094552040E0,6.998610497E-1,3.401975601E0
4.801683990E-1,-6.868929863E-1,-3.406083584E0,9.241094589E-1,3.595442344E0
4.849660550E-1,-1.809177399E-1,-3.746405840E0,1.249842644E0,3.953529383E0
4.897637110E-1,6.564946175E-1,-3.774929762E0,1.759561062E0,4.216293991E0
4.945613670E-1,2.009842396E0,-3.318800211E0,2.222486496E0,4.471392123E0
4.993590240E-1,2.402875423E0,-3.261981487E0,1.557439804E0,4.340501384E0
5.041566800E-1,3.492856026E-1,-3.452075720E0,2.851380348E0,4.491012926E0
5.089543360E-1,-6.271362305E-3,-3.276208401E0,4.695575237E0,5.725557407E0
5.137519920E-1,-3.803887367E-1,-3.009601831E0,6.750281811E0,7.400588037E0
5.185496490E-1,-6.386561394E-1,-2.893371582E0,7.350703239E0,7.925422316E0
5.233473050E-1,-7.540445328E-1,-2.840144157E0,7.891781807E0,8.421117627E0
5.281449610E-1,-2.668414116E-1,-2.722829819E0,7.825632095E0,8.290085901E0
5.329425650E-1,4.799509048E-1,-2.875949860E0,7.729035854E0,8.260716416E0
5.377402220E-1,1.169313431E0,-3.285344124E0,8.010189056E0,8.736355569E0
5.425378780E-1,1.779407978E0,-3.433067322E0,8.105826378E0,8.980905592E0
5.473355340E-1,2.162600517E0,-3.273775578E0,8.007583618E0,8.917165633E0
5.521331900E-1,2.312440395E0,-3.509346962E0,9.084874153E0,1.000988687E1
5.569308470E-1,2.645238400E0,-3.607318401E0,9.833480835E0,1.080311888E1
5.617285030E-1,2.994582653E0,-3.219151497E0,9.661649704E0,1.061498642E1
5.665261590E-1,3.131492138E0,-2.883507729E0,9.584954262E0,1.048771701E1
5.713238150E-1,3.236404419E0,-2.767589092E0,9.376677513E0,1.029834667E1
5.761214720E-1,3.316880226E0,-2.591744423E0,9.070954323E0,1.000005230E1
5.809191280E-1,3.427439690E0,-2.368068695E0,8.844997406E0,9.776966364E0
5.857167840E-1,3.555303574E0,-2.087165356E0,8.652372360E0,9.584361751E0
5.905144400E-1,3.666491032E0,-1.801011086E0,8.426328659E0,9.364283853E0
5.953120970E-1,3.715710640E0,-1.528123856E0,8.090416908E0,9.033078868E0
6.001097530E-1,3.734076023E0,-1.268104076E0,7.710679054E0,8.660599470E0
6.049074090E-1,3.754880905E0,-9.874935150E-1,7.309503555E0,8.276660938E0
6.097050650E-1,3.796563148E0,-6.677618027E-1,6.906464100E0,7.909427535E0
6.145027220E-1,3.969319820E0,-4.263548851E-1,6.580234528E0,7.696542390E0
6.193003780E-1,4.307472706E0,-9.594440460E-2,6.288774967E0,7.623136955E0
6.240980340E-1,4.670775414E0,2.768983841E-1,5.855092049E0,7.494992900E0
6.288956900E-1,5.022730350E0,4.910268784E-1,5.151739597E0,7.211750720E0
6.336933470E-1,5.504410744E0,5.024509430E-1,4.336472034E0,7.025381434E0
6.384910030E-1,6.548755169E0,2.863674164E-1,3.667995453E0,7.511483955E0
6.432886070E-1,8.848300934E0,-4.198441505E-1,2.560712814E0,9.220951613E0
6.480862630E-1,9.900164604E0,-4.580645561E-1,1.158484459E0,9.978234742E0
6.528839200E-1,9.952291489E0,1.571307182E-1,2.851910591E-1,9.957616677E0
6.576815760E-1,1.059212875E1,6.836600304E-1,-7.072710991E-2,1.061440459E1
6.624792320E-1,1.208617401E1,1.027017593E0,-3.242413998E-1,1.213406362E1
6.672768880E-1,1.472288513E1,9.018716812E-1,-5.432825089E-1,1.476048356E1
6.720745450E-1,1.331653881E1,1.589936256E0,-4.522368908E-1,1.341874142E1
6.768722010E-1,1.160892296E1,2.037310123E0,-3.661391735E-1,1.179202199E1
6.816698570E-1,8.494481087E0,3.394871235E0,-6.796126366E-1,9.172962061E0
6.864675130E-1,5.562736511E0,5.061861038E0,-9.424357414E-1,7.579885210E0
6.912651700E-1,4.438102245E0,5.058941364E0,-1.998170376E0,7.020137044E0
6.960628260E-1,3.643705845E0,4.151599884E0,-2.086272240E0,5.904651195E0
7.008604820E-1,4.078130722E0,2.888219833E0,-1.355368376E0,5.177836172E0
7.056581380E-1,3.985744953E0,1.281938553E0,-9.794285297E-1,4.299861571E0
7.104557950E-1,4.360357761E0,4.964351654E-2,-3.077561855E-1,4.371486950E0
7.152534510E-1,4.150279999E0,-7.237195969E-1,2.171440363E0,4.739593587E0
7.200511070E-1,4.434487343E0,-9.884977341E-1,4.199278831E0,6.186739729E0
7.248487630E-1,4.581146240E0,-1.250586510E0,5.191694260E0,7.035947468E0
7.296464200E-1,4.593617916E0,-1.492693901E0,5.254942417E0,7.137498193E0
7.344440760E-1,4.631841183E0,-1.634072304E0,4.861441612E0,6.910698922E0
7.392417320E-1,4.698283672E0,-1.425750732E0,4.457098007E0,6.631165604E0
7.440393880E-1,4.652270317E0,-9.863052368E-1,4.249240398E0,6.377496459E0
7.488369920E-1,4.468263149E0,-3.692674637E-1,3.931952000E0,5.963386669E0
7.536346490E-1,4.243228912E0,1.447019577E-1,3.555142879E0,5.537596153E0
7.584323050E-1,4.177719116E0,5.008239746E-1,2.916602373E0,5.119641694E0
7.632299610E-1,4.157055855E0,6.467599869E-1,2.157617807E0,4.728078517E0
7.680276170E-1,4.199326992E0,8.207616806E-1,1.244283915E0,4.456034042E0
7.728252740E-1,4.143531799E0,9.529924393E-1,6.765356064E-1,4.305200435E0
7.776229300E-1,4.166546822E0,1.135646820E0,-3.442404270E-1,4.332240481E0
7.824205860E-1,4.166724205E0,1.207351685E0,-6.963565350E-1,4.393654642E0
7.872182420E-1,4.061775208E0,1.329062462E0,-8.770911694E-1,4.362764466E0
7.920158990E-1,2.332893562E1,-4.307573318E0,-3.539719582E0,2.398591336E1
7.968135550E-1,5.721727848E0,4.179636478E0,1.393022060E0,7.221360060E0
8.016112110E-1,1.787972641E1,-1.102905273E-1,-1.590662003E-1,1.788077410E1
8.064088670E-1,4.499660492E0,4.873273849E0,-1.436996460E0,6.786803473E0
8.112065240E-1,2.690297127E0,4.278113365E0,-3.209608555E0,5.986780409E0
8.160041800E-1,4.043871403E0,3.176721573E0,-4.683479309E0,6.955532640E0
8.208018360E-1,2.501604795E0,3.146268368E0,-5.287924767E0,6.642227001E0
8.255994920E-1,3.343755245E0,3.099137306E0,-4.342226028E0,6.296052578E0
8.303971490E-1,6.509062767E0,1.408174515E0,-3.021365404E0,7.312968103E0
8.351948050E-1,4.864717484E0,2.330173492E0,-2.359092712E0,5.887317142E0
8.399924610E-1,4.161386967E0,1.903358936E0,-2.041445494E0,5.010730130E0
8.447901170E-1,3.377870560E0,1.076514244E0,-1.589964747E0,3.885470413E0
8.495877740E-1,2.115070581E0,7.818155289E-1,-1.232400417E0,2.569741208E0
8.543853780E-1,8.325196505E-1,6.442079544E-1,-5.447597504E-1,1.185266233E0
8.591830340E-1,9.402847290E-2,3.694105148E-1,6.926131248E-2,3.874307830E-1
8.639806900E-1,-4.206975102E-1,6.260681152E-2,3.380541801E-1,5.433108104E-1
8.687783470E-1,-5.376847982E-1,-2.640800476E-1,2.611970901E-1,6.535037366E-1
8.735760030E-1,-5.984208584E-1,-3.365974426E-1,5.980386734E-1,9.105249129E-1
8.783736590E-1,-5.678021312E-1,-2.132682800E-1,6.686217785E-1,9.027390000E-1
8.831713150E-1,1.821876764E-1,-6.071271896E-1,6.011240482E-1,8.735822201E-1
8.879689720E-1,6.602853537E-1,-5.279922485E-1,4.326295853E-1,9.496951726E-1
8.927666280E-1,5.239903331E-1,-1.258420944E-1,1.412675381E-1,5.570983927E-1
8.975642840E-1,2.737912536E-1,4.508018494E-1,-4.210975170E-1,6.749126438E-1
9.023619400E-1,1.497035921E-1,1.135890007E0,-1.613256574E0,1.978700090E0
9.071595970E-1,2.979287803E-1,1.887341976E0,-2.337982416E0,3.019434230E0
9.119572530E-1,7.499743700E-1,2.674825668E0,-3.318452358E0,4.327733814E0
9.167549090E-1,9.687427282E-1,2.890530109E0,-3.457894802E0,4.609844168E0
9.215525650E-1,1.167914152E0,3.486813068E0,-3.942078114E0,5.390906111E0
9.263502220E-1,2.076555967E0,3.477962017E0,-3.675682068E0,5.469821125E0
9.311478780E-1,6.166568756E0,2.835769653E0,-3.208089352E0,7.507329554E0
9.359455340E-1,1.799106598E-3,2.891552925E0,-3.495123386E0,4.536184414E0
9.407431900E-1,3.038152456E-1,2.490858078E0,-1.927587032E0,3.164217034E0
9.455408470E-1,4.049003422E-1,1.869014740E0,-8.800119162E-1,2.105132147E0
9.503385030E-1,-5.075643659E-1,1.850911140E0,-1.161530375E0,2.243356068E0
9.551361590E-1,-7.176858783E-1,1.820886612E0,-1.042259336E0,2.217432208E0
9.599338150E-1,-1.084473848E0,1.590197563E0,-1.131350994E-1,1.928110829E0
9.647314720E-1,-1.288367271E0,1.753422260E0,2.716290951E-1,2.192752201E0
9.695291280E-1,-9.047790766E-1,2.899088860E0,-1.941568136E0,3.604584334E0
9.743267840E-1,-7.444465160E-1,3.615798950E0,-2.493403196E0,4.454802146E0
9.791243880E-1,-9.841933250E-1,3.843368530E0,-2.281911135E0,4.576815114E0
9.839220450E-1,-1.412962437E0,3.826858997E0,-1.976533413E0,4.532989848E0
9.887197010E-1,-1.785282612E0,3.736149788E0,-1.587085128E0,4.434511072E0
9.935173570E-1,-2.147292137E0,3.742955685E0,-1.184338212E0,4.474733264E0
9.983150130E-1,-2.290206909E0,3.620772839E0,-8.712099791E-1,4.371961855E0
1.003112670E0,-2.415505409E0,3.572763443E0,-6.597285271E-1,4.362859926E0
1.007910326E0,-2.296402693E0,3.643866539E0,-3.470799923E-1,4.321075468E0
1.012707982E0,-2.204831362E0,3.573859215E0,-1.819007397E-1,4.203193893E0
1.017505638E0,-2.095076084E0,3.325585842E0,-1.126894951E-1,3.932119519E0
1.022303295E0,-2.241214991E0,3.256694317E0,7.520675659E-2,3.954081254E0
1.027100951E0,-2.385900497E0,3.113698483E0,3.099684715E-1,3.934935816E0
1.031898607E0,-2.636570454E0,3.146412849E0,5.289626122E-1,4.138987681E0
1.036696263E0,-2.664947510E0,3.234466076E0,5.580821037E-1,4.227903932E0
1.041493920E0,-2.866167545E0,3.384281158E0,5.311820507E-1,4.466590392E0
1.046291576E0,-2.779712677E0,3.285900593E0,5.202071667E-1,4.335269400E0
1.051089232E0,-2.609083652E0,3.095365047E0,4.856357574E-1,4.077308471E0
1.055886888E0,-2.283137083E0,2.798888683E0,5.665960312E-1,3.656162450E0
1.060684545E0,-2.069374561E0,2.930409908E0,6.316292286E-1,3.642604671E0
1.065482201E0,-1.917283773E0,3.068843365E0,4.195480347E-1,3.642773287E0
1.070279857E0,-1.797905445E0,3.156967640E0,3.656268120E-1,3.651382154E0
1.075077513E0,-1.351905823E0,2.945200443E0,2.748942375E-1,3.252294858E0
1.079875170E0,-1.014614820E0,2.932894707E0,1.861927509E-1,3.109016297E0
1.084672826E0,-8.677067757E-1,3.019438267E0,5.521297455E-1,3.189791490E0
1.089470482E0,-2.006585598E-1,2.834043503E0,1.691870689E-1,2.846171235E0
1.094268138E0,8.004755974E-1,3.062978268E0,-9.825873375E-2,3.167373017E0
1.099065742E0,1.716114521E0,3.393004894E0,-3.624939919E-2,3.802478834E0
1.103863451E0,1.900726795E0,3.399579525E0,1.117246151E-1,3.896458095E0
1.108661055E0,1.366609573E0,3.113887787E0,1.596724987E-1,3.404322867E0
1.113458711E0,7.641537189E-1,2.974306107E0,1.108544350E0,3.264858082E0
1.118256367E0,-1.142571926E0,2.583707809E0,3.867954969E0,4.789790423E0
1.123054024E0,-3.003977776E0,-4.504613876E-1,9.584195137E0,1.005403374E1
1.127851680E0,-2.560763836E0,-2.474289894E0,1.481508923E1,1.523701056E1
1.132649336E0,7.862589359E-1,-2.333192825E0,6.626324654E-1,2.549720310E0
1.137446992E0,3.275346279E0,3.619681358E0,-5.685106277E0,7.493358377E0
1.142244649E0,3.171667337E0,8.839932442E0,-4.499807835E0,1.041403619E1
1.147042305E0,3.151969671E0,7.537832737E0,-5.056214333E0,9.608284891E0
1.151839961E0,3.392638683E0,4.301594734E0,-5.211560249E0,7.561354027E0
1.156637617E0,2.986315727E0,3.737954140E0,-2.449128866E0,5.374813018E0
1.161435274E0,2.647301197E0,3.822471142E0,2.402853966E-2,4.649738340E0
1.166232930E0,2.667421341E0,2.995085239E0,8.821592331E-1,4.106565124E0
1.171030586E0,3.015390873E0,2.222491264E0,8.358397484E-1,3.838056490E0
1.175828242E0,3.320840836E0,2.188045979E0,9.294047356E-1,4.084032593E0
1.180625899E0,3.087071896E0,2.237020969E0,1.510429382E0,4.100691725E0
1.185423555E0,2.818773746E0,1.599017143E0,2.217532158E0,3.926804061E0
1.190221211E0,2.726619720E0,9.236679077E-1,2.764900684E0,3.991527690E0
1.195018867E0,3.333720684E0,8.734703064E-1,8.151552677E-1,3.541344672E0
1.199816524E0,3.772855282E0,1.482627392E0,-3.187212944E-1,4.066227272E0
1.204614180E0,3.707663059E0,1.908943176E0,-4.109913111E-1,4.190434735E0
1.209411836E0,3.543582439E0,1.363798141E0,-6.625776291E-1,3.854339242E0
1.214209492E0,3.615735054E0,4.068155289E-1,-7.993655205E-1,3.725322012E0
1.219007149E0,4.057354927E0,-3.142547607E-1,-5.498464108E-1,4.106484644E0
1.223804805E0,4.408113956E0,-6.171045303E-1,2.138471603E-2,4.451150858E0
1.228602461E0,5.181907177E0,-1.380599976E0,1.566874981E-1,5.364957526E0
1.233400117E0,5.944086075E0,-2.073473930E0,-6.064176559E-3,6.295354651E0
1.238197774E0,7.085157394E0,-2.615168571E0,-3.625322580E-1,7.561084023E0
1.242995430E0,4.549643993E0,-1.237451553E0,-5.875778198E-2,4.715294189E0
1.247793034E0,2.685278893E0,-1.980459213E0,-9.217208624E-1,3.461576342E0
1.252590690E0,1.499706984E0,-3.293752670E0,-1.388754487E0,3.876411577E0
1.257388347E0,6.566259861E-1,-3.713862419E0,-1.243962407E0,3.971318953E0
1.262186003E0,4.491300583E-1,-4.020813942E0,-6.643428802E-1,4.100001711E0
1.266983659E0,5.440616608E-1,-4.431368828E0,-5.823409557E-2,4.465022283E0
1.271781315E0,4.716761112E-1,-4.901842117E0,4.179897308E-1,4.942190801E0
1.276578972E0,2.696852684E-1,-5.364837646E0,8.337004185E-1,5.435923979E0
1.281376628E0,-7.169771194E-2,-5.800704002E0,9.688518047E-1,5.881494819E0
1.286174284E0,-6.669259071E-1,-6.261449814E0,1.112097859E0,6.394318227E0
1.290971940E0,-1.196937561E0,-6.781870842E0,1.424402475E0,7.032450075E0
1.295769597E0,-1.594947815E0,-7.308172226E0,1.886816502E0,7.714487431E0
1.300567253E0,-2.129382610E0,-7.646812439E0,2.184424639E0,8.232844088E0
1.305364909E0,-2.740692139E0,-8.148866653E0,2.644155502E0,8.994830707E0
1.310162565E0,-3.349970341E0,-8.573174477E0,3.014790058E0,9.685586249E0
1.314960222E0,-3.778168678E0,-8.936977386E0,3.158560514E0,1.020395158E1
1.319757878E0,-4.209200859E0,-9.386174202E0,3.300785303E0,1.080337085E1
1.324555534E0,-4.382961273E0,-9.615312576E0,3.316135168E0,1.107525792E1
1.329353190E0,-4.475957394E0,-9.732514381E0,3.192610741E0,1.117804966E1
1.334150847E0,-4.318762302E0,-9.897886276E0,3.110754251E0,1.123817835E1
1.338948503E0,-4.023719788E0,-9.925336838E0,3.042891741E0,1.113381437E1
1.343746159E0,-4.344662666E0,-9.159898758E0,2.465083361E0,1.043343064E1
1.348543815E0,-4.255429268E0,-8.762372017E0,1.993235826E0,9.942878390E0
1.353341472E0,-3.986309052E0,-7.338586807E0,1.620864391E0,8.507215617E0
1.358139128E0,-3.529420614E0,-7.700748444E0,1.797048330E0,8.659544974E0
1.362936784E0,-3.236897707E0,-6.497816086E0,2.848511696E0,7.798277985E0
1.367734440E0,-2.689145327E0,-7.280795097E0,4.141807556E0,8.797502468E0
1.372532097E0,-2.194233894E0,-1.009664345E1,5.650706291E0,1.177655947E1
1.377329753E0,-2.260642290E0,-1.280898380E1,6.678705692E0,1.462141167E1
1.382127409E0,-3.011793137E0,-1.345318508E1,8.234588623E0,1.605825447E1
1.386925065E0,-3.782706261E0,-1.269576073E1,9.245279312E0,1.615445439E1
1.391722722E0,-4.024067879E0,-1.317832470E1,9.063743591E0,1.649281092E1
1.396520378E0,-3.349730253E0,-1.398117638E1,8.056549072E0,1.648035099E1
1.401318034E0,-2.421204567E0,-1.331666756E1,6.955934525E0,1.521778208E1
1.406115690E0,-1.436175346E0,-1.161211681E1,4.086106300E0,1.239355160E1
1.410913347E0,1.267354488E-1,-1.108381939E1,1.429990292E0,1.117640310E1
1.415711003E0,1.045119882E0,-9.810839653E0,8.668317795E-1,9.904354981E0
1.420508659E0,2.588491917E0,-1.062314510E1,8.572523594E-1,1.096751494E1
1.425306263E0,2.906454802E0,-1.074170399E1,1.097370625E0,1.118194555E1
1.430103920E0,2.022121668E0,-8.910016060E0,8.299646378E-1,9.174214055E0
1.434901576E0,5.208721161E-1,-6.732121468E0,-2.641148567E-1,6.757405114E0
1.439699232E0,-1.552219391E-1,-6.574620247E0,-1.119149446E0,6.670998480E0
1.444496888E0,-2.569684982E-1,-7.603881836E0,-1.274621367E0,7.714253782E0
1.449294545E0,-9.195504189E-1,-7.828520775E0,-9.866766930E-1,7.943855575E0
1.454092201E0,-9.449923038E-1,-7.567296982E0,-6.918492317E-1,7.657391816E0
1.458889857E0,-8.340935707E-1,-5.866351128E0,-6.508665085E-1,5.960991096E0
1.463687513E0,-1.050787449E0,-3.977671623E0,-1.515793204E0,4.384478857E0
1.468485170E0,-1.823319197E0,-1.956684113E0,-2.675204754E0,3.782833076E0
1.473282826E0,-2.541410208E0,-3.894519806E-1,-3.538121700E0,4.373641944E0
1.478080482E0,-3.008936167E0,1.087084770E0,-3.923924446E0,5.062868082E0
1.482878138E0,-3.067917109E0,2.464454651E0,-4.073567867E0,5.663886235E0
1.487675795E0,-3.028866529E0,3.204374790E0,-4.052226543E0,5.988538236E0
1.492473451E0,-3.016642094E0,3.807425499E0,-3.610157251E0,6.052260225E0
1.497271107E0,-2.806591034E0,4.346103668E0,-3.042384148E0,6.001805697E0
1.502068763E0,-2.425753593E0,4.992622375E0,-2.608585835E0,6.133129604E0
1.506866420E0,-2.051272869E0,5.686408997E0,-2.579903603E0,6.572584747E0
1.511664076E0,-1.711985111E0,6.523905277E0,-2.937850714E0,7.356847144E0
1.516461732E0,-1.672867298E0,7.681375504E0,-3.240316391E0,8.503038571E0
1.521259388E0,-9.701998234E-1,7.234709740E0,-3.722273827E0,8.193755864E0
1.526057045E0,-4.027898312E-1,7.562347412E0,-3.997378111E0,8.563315350E0
1.530854701E0,1.579673290E-1,8.558852196E0,-4.008913517E0,9.452528348E0
1.535652357E0,7.909569740E-1,8.991272926E0,-4.215673447E0,9.961952840E0
1.540450013E0,1.442682266E0,8.735568047E0,-4.635159492E0,9.993807319E0
1.545247670E0,2.015676022E0,8.584061623E0,-4.694085598E0,9.989169303E0
1.550045326E0,2.470419407E0,9.004179955E0,-4.742359161E0,1.047225855E1
1.554842982E0,2.530783653E0,9.672482491E0,-5.401463985E0,1.136387243E1
1.559640638E0,2.556140661E0,1.016433144E1,-6.459903717E0,1.231169544E1
1.564438295E0,2.376915693E0,1.061649036E1,-6.782867432E0,1.282056498E1
1.569235951E0,2.275863171E0,1.081925011E1,-6.592955589E0,1.287255955E1
1.574033607E0,2.433297873E0,1.069293499E1,-6.579490662E0,1.278864710E1
1.578831263E0,2.691210270E0,1.079612827E1,-6.515066147E0,1.289360637E1
1.583628920E0,3.430215120E0,1.087745094E1,-6.769604683E0,1.326321463E1
1.588426576E0,4.282444954E0,1.150814056E1,-6.856987953E0,1.406395811E1
1.593224232E0,4.673918724E0,1.199175644E1,-6.546745300E0,1.443979268E1
1.598021888E0,4.664492607E0,1.239691925E1,-6.211471081E0,1.462954104E1
1.602819545E0,4.464289188E0,1.209879017E1,-6.289407730E0,1.434807482E1
1.607617201E0,4.546454430E0,1.208498192E1,-5.960515976E0,1.422127936E1
1.612414857E0,4.608616829E0,1.221079636E1,-5.612860203E0,1.420729025E1
1.617212513E0,4.764009953E0,1.206242275E1,-5.156424999E0,1.395659530E1
1.622010170E0,4.861830235E0,1.158066082E1,-4.604472160E0,1.337722924E1
1.626807826E0,4.849040985E0,1.121011543E1,-4.237264156E0,1.292804293E1
1.631605482E0,5.031465054E0,1.102644348E1,-3.997549295E0,1.276238602E1
1.636403138E0,5.115340710E0,1.071872902E1,-3.844465971E0,1.248350035E1
1.641200795E0,5.255406380E0,1.048018456E1,-3.910506010E0,1.235902997E1
1.645998451E0,5.326252937E0,1.040277863E1,-4.050566673E0,1.236906884E1
1.650796107E0,5.445350647E0,1.022067261E1,-4.151120186E0,1.230226772E1
1.655593763E0,5.623554230E0,9.941003799E0,-4.063893795E0,1.212283595E1
1.660391420E0,5.711819172E0,9.726092339E0,-3.929527044E0,1.194415896E1
1.665189024E0,5.744947433E0,9.485096931E0,-3.649484158E0,1.167434021E1
1.669986680E0,5.828632355E0,9.440173149E0,-3.445302010E0,1.161722558E1
1.674784336E0,5.855346680E0,9.550334930E0,-3.163851023E0,1.164061576E1
1.679581992E0,5.669666290E0,9.612392426E0,-2.691153049E0,1.147978696E1
1.684379649E0,5.210049629E0,9.795797348E0,-2.366876841E0,1.134479479E1
1.689177305E0,4.593671799E0,9.823446274E0,-2.043046236E0,1.103521433E1
1.693974961E0,3.848667860E0,9.672384262E0,-1.759894252E0,1.055767443E1
1.698772617E0,2.948218107E0,9.310218811E0,-1.466722727E0,9.875395682E0
1.703570274E0,2.168456554E0,8.926289558E0,-1.161372185E0,9.259029888E0
1.708367930E0,1.565048456E0,8.458725929E0,-8.111290932E-1,8.640448566E0
1.713165586E0,1.084283710E0,8.141508102E0,-9.202797413E-1,8.264789177E0
1.717963242E0,7.566752434E-1,7.964508533E0,-1.282746077E0,8.102554603E0
1.722760899E0,5.032293797E-1,7.731770992E0,-2.109724045E0,8.030221543E0
1.727558555E0,2.403342724E-1,7.357785702E0,-3.072215796E0,7.977047128E0
1.732356211E0,-1.612069607E-1,6.754308224E0,-3.342866659E0,7.537998724E0
1.737153867E0,-6.323659420E-1,5.937875748E0,-3.388902664E0,6.866069935E0
1.741951524E0,-1.089637280E0,5.323409081E0,-3.330247879E0,6.373111059E0
1.746749180E0,-1.353357792E0,4.845227242E0,-3.218542337E0,5.972170385E0
1.751546836E0,-1.358671188E0,3.975460529E0,-3.588078976E0,5.524905841E0
1.756344492E0,-1.364065170E0,3.683718204E0,-3.433987617E0,5.217540087E0
1.761142149E0,-1.543547630E0,2.906482220E0,-3.814959526E0,5.038263031E0
1.765939805E0,-1.970552444E0,1.644453526E0,-4.015310287E0,4.765503230E0
1.770737461E0,-3.225518465E0,5.367112160E-1,-3.743271112E0,4.970322617E0
1.775535117E0,-4.209230900E0,-6.286439896E-1,-2.572765827E0,4.973121961E0
1.780332774E0,-4.503253937E0,-3.455312729E0,-3.308272362E-1,5.685765448E0
1.785130430E0,-4.697707176E0,-6.278058052E0,3.741386652E0,8.687947957E0
1.789928086E0,-3.922834158E0,-1.041113091E1,8.385576248E0,1.393191170E1
1.794725742E0,-5.282316208E0,-9.035948753E0,4.852998257E0,1.153701983E1
1.799523399E0,-7.619184971E0,-7.361455917E0,3.655453920E0,1.120737954E1
1.804321055E0,-8.139065742E0,-1.000981045E1,4.147576332E0,1.355149755E1
1.809118711E0,-7.517443657E0,-1.157049561E1,7.350999832E0,1.563411418E1
1.813916367E0,-7.583668709E0,-1.219142723E1,9.783013344E0,1.737383893E1
1.818714024E0,-6.934344292E0,-1.406797409E1,9.488614082E0,1.833103442E1
1.823511680E0,-5.644214630E0,-1.485583115E1,8.416012764E0,1.798282927E1
1.828309336E0,-3.635779381E0,-1.481437778E1,5.691713810E0,1.628128640E1
1.833106992E0,-1.691484690E0,-1.443205643E1,3.057825327E0,1.484909657E1
1.837904649E0,-2.476489544E-1,-1.448812580E1,1.479210377E0,1.456554780E1
1.842702305E0,3.659272194E-1,-1.456858253E1,1.015966892E0,1.460854847E1
1.847499961E0,4.161217213E-1,-1.489533424E1,1.056809902E0,1.493857378E1
1.852297617E0,1.475381851E-2,-1.471186924E1,1.069569588E0,1.475070484E1
1.857095274E0,9.895396233E-2,-1.377693272E1,7.185125351E-1,1.379601128E1
1.861892930E0,-9.229636192E-2,-1.337547588E1,6.303122044E-1,1.339063730E1
1.866690586E0,-1.023571968E0,-1.371465302E1,1.052848101E0,1.379303795E1
1.871488242E0,-2.399144411E0,-1.429742718E1,2.021729708E0,1.463761281E1
1.876285899E0,-3.640377522E0,-1.485909081E1,3.095551252E0,1.560856706E1
1.881083555E0,-4.415285587E0,-1.539075184E1,4.164450645E0,1.654426300E1
1.885881211E0,-5.052216053E0,-1.578572655E1,5.201655388E0,1.737156494E1
1.890678867E0,-5.404344559E0,-1.585524368E1,6.102705002E0,1.782803132E1
1.895476524E0,-5.403137207E0,-1.561586857E1,6.386476040E0,1.771542602E1
1.900274180E0,-5.119126320E0,-1.505357456E1,6.204077721E0,1.706769292E1
1.905071836E0,-4.550724030E0,-1.448156071E1,6.116482258E0,1.636569720E1
1.909869492E0,-3.825876236E0,-1.408094406E1,6.083424091E0,1.580880651E1
1.914667149E0,-3.074894428E0,-1.367462444E1,6.073023796E0,1.527520695E1
1.919464805E0,-2.178130388E0,-1.328166294E1,6.018978119E0,1.474363999E1
1.924262461E0,-1.529782057E0,-1.281864262E1,6.121435165E0,1.428740005E1
1.929060117E0,-1.043086767E0,-1.228376961E1,5.970870972E0,1.369782194E1
1.933857774E0,-5.476946831E-1,-1.179186058E1,5.530062675E0,1.303570246E1
1.938655430E0,-4.465286732E-1,-1.131859303E1,5.008857727E0,1.238541851E1
1.943453086E0,-6.810779572E-1,-1.098609352E1,5.225089073E0,1.218440289E1
1.948250742E0,-6.585619450E-1,-1.059853840E1,5.133195877E0,1.179459283E1
1.953048399E0,-5.950088501E-1,-1.009868145E1,4.896031380E0,1.123870659E1
1.957846055E0,-5.515882969E-1,-9.493391991E0,4.776882648E0,1.064177377E1
1.962643711E0,-6.207215786E-1,-8.552609444E0,4.273499489E0,9.580982280E0
1.967441367E0,-6.490750313E-1,-7.622152328E0,3.567014456E0,8.440503341E0
1.972239024E0,-7.590529919E-1,-6.801011086E0,2.997695208E0,7.471016650E0
1.977036680E0,-1.149698973E0,-5.725639343E0,2.200385809E0,6.240709200E0
1.981834336E0,-1.487855434E0,-4.829321861E0,1.582970142E0,5.295456345E0
1.986631992E0,-1.731034040E0,-4.167293549E0,9.037573338E-1,4.602129039E0
1.991429649E0,-1.870025396E0,-3.464803696E0,2.856743336E-1,3.947590336E0
1.996227305E0,-1.963541985E0,-3.017896652E0,-1.939806938E-1,3.605665797E0
2.001024961E0,-1.971915722E0,-2.262548447E0,-8.374285698E-1,3.115904956E0
2.005822617E0,-2.102801323E0,-1.479099274E0,-1.667243481E0,3.064181602E0
2.010620274E0,-2.229140043E0,-6.372718811E-1,-2.339392900E0,3.293621096E0
2.015417930E0,-2.163474083E0,-1.097583771E-1,-3.083291531E0,3.768202976E0
2.020215586E0,-2.311752081E0,5.387229919E-1,-3.767350674E0,4.452791399E0
2.025013242E0,-2.756803989E0,1.508384705E0,-4.382296085E0,5.392560768E0
2.029810899E0,-3.254828215E0,2.378187180E0,-5.017411232E0,6.436155408E0
2.034608555E0,-3.607122183E0,3.200821400E0,-5.366179943E0,7.214740138E0
2.039406211E0,-3.711696863E0,3.823813438E0,-5.728903294E0,7.824230043E0
2.044203867E0,-3.559857607E0,4.598386288E0,-5.983451843E0,8.343826376E0
2.049001524E0,-3.254262209E0,5.368509293E0,-6.149152756E0,8.787672853E0
2.053799180E0,-2.934539080E0,5.952383041E0,-6.129781246E0,9.034190700E0
2.058596836E0,-2.621991396E0,6.474307060E0,-5.790208817E0,9.072927253E0
2.063394492E0,-2.147716522E0,6.847987652E0,-5.322319984E0,8.935027205E0
2.068192149E0,-1.812321424E0,7.083627224E0,-6.029726982E0,9.477335653E0
2.072989805E0,-1.319325447E0,7.291845798E0,-6.076125145E0,9.582845692E0
2.077787461E0,-1.228229761E0,8.445335388E0,-5.558732033E0,1.018487801E1
2.082585117E0,-1.064435244E0,8.578772545E0,-4.603390217E0,9.793853289E0
2.087382774E0,-1.308148384E0,8.979948997E0,-4.061972141E0,9.942351526E0
2.092180430E0,-1.462567925E0,1.022083282E1,-4.477767467E0,1.125410725E1
2.096978086E0,-1.089214444E0,1.070821571E1,-4.664339542E0,1.173065792E1
2.101775742E0,-2.316321135E-1,1.069254875E1,-4.199298859E0,1.148992442E1
2.106573399E0,5.295029879E-1,1.071285820E1,-3.500877857E0,1.128281215E1
2.111371055E0,1.191113710E0,1.068969345E1,-2.763388157E0,1.110516150E1
2.116168711E0,1.700588226E0,1.070616055E1,-2.558727741E0,1.113826565E1
2.120966367E0,2.234587431E0,1.059646320E1,-2.409323692E0,1.109428925E1
2.125764024E0,2.724616766E0,1.113994217E1,-2.300858021E0,1.169682845E1
2.130561680E0,3.273967266E0,1.208899879E1,-3.032088280E0,1.288628390E1
2.135359336E0,3.577350378E0,1.273028278E1,-3.342455626E0,1.363926483E1
2.140156992E0,3.636220932E0,1.373381042E1,-3.324757099E0,1.459087596E1
2.144954649E0,4.052955151E0,1.430853081E1,-3.977545977E0,1.539419927E1
2.149752305E0,4.573369026E0,1.317446136E1,-3.751492500E0,1.444146227E1
2.154549961E0,4.371534348E0,1.227402878E1,-2.349417210E0,1.323940543E1
2.159347617E0,4.308063507E0,1.193116379E1,-1.357285023E0,1.275751947E1
2.164145274E0,4.096649647E0,1.145042992E1,-4.788975716E-1,1.217062967E1
2.168942930E0,4.602045536E0,1.121776104E1,-6.704668999E-1,1.214357903E1
2.173740586E0,4.914271355E0,1.131078911E1,-1.174569845E0,1.238804373E1
2.178538242E0,4.986713886E0,1.138270950E1,-1.766438961E0,1.255203958E1
2.183335899E0,5.275551796E0,1.136656094E1,-2.289822578E0,1.273865934E1
2.188133555E0,5.694185257E0,1.135073948E1,-3.063751698E0,1.306329235E1
2.192931211E0,6.164725304E0,1.136383247E1,-3.788618803E0,1.347197680E1
2.197728867E0,6.926078320E0,1.106692600E1,-4.552215576E0,1.382642682E1
2.202526524E0,7.499317169E0,1.042066383E1,-5.040708065E0,1.379270570E1
2.207324180E0,8.152014732E0,9.476433754E0,-5.563880920E0,1.368265003E1
2.212121836E0,7.654145241E0,9.162089348E0,-5.680996895E0,1.322132922E1
2.216919492E0,5.934540272E0,9.143699646E0,-5.308023930E0,1.212440223E1
2.221717149E0,4.130824089E0,8.767105103E0,-5.524249077E0,1.115540978E1
2.226514805E0,2.661940336E0,8.281733513E0,-5.868771553E0,1.049359404E1
2.231312461E0,1.719419003E0,8.025962830E0,-5.926407814E0,1.012397109E1
2.236110117E0,1.232472897E0,7.867053986E0,-5.768453598E0,9.832831981E0
2.240907774E0,9.092379808E-1,8.006070137E0,-5.672998428E0,9.854277442E0
2.245705430E0,5.872299671E-1,8.182491302E0,-5.807341576E0,1.005103075E1
2.250503086E0,1.062250137E-1,8.042750359E0,-5.693901062E0,9.854827568E0
2.255300742E0,-3.704299927E-1,7.809398651E0,-5.285504818E0,9.437186384E0
2.260098399E0,-7.246816158E-1,7.602092743E0,-4.885022163E0,9.065341640E0
2.264896055E0,-9.236793518E-1,7.390120506E0,-4.245541573E0,8.572729314E0
2.269693711E0,-9.671492577E-1,7.013814449E0,-3.785814762E0,8.028783484E0
2.274491367E0,-1.171523094E0,6.901339054E0,-3.808220148E0,7.968907566E0
2.279289024E0,-1.102705956E0,6.574678421E0,-3.493107080E0,7.526231051E0
2.284086680E0,-4.585878849E-1,6.309054375E0,-3.019889355E0,7.009579279E0
2.288884336E0,1.577203274E-1,6.023334980E0,-2.608081102E0,6.565632264E0
2.293681992E0,-1.008899689E0,5.951187134E0,-2.653751135E0,6.593701689E0
2.298479649E0,-1.672087193E0,5.995034218E0,-2.697902918E0,6.783435045E0
2.303277305E0,1.570166826E0,5.932425499E0,5.892286301E-1,6.164923888E0
2.308074961E0,1.743560791E0,6.112071037E0,2.106087923E0,6.695746630E0
2.312872617E0,-2.935576439E-2,4.867081642E0,-1.077194095E0,4.984946598E0
2.317670274E0,6.180115938E-1,4.045694828E0,-1.055765271E0,4.226609194E0
2.322467982E0,1.089430809E0,3.396833420E0,6.967186928E-1,3.634660054E0
2.327265586E0,1.245617509E0,2.581450939E0,1.626658916E0,3.295674614E0
2.332063242E0,1.458329797E0,1.483218193E0,2.559486628E0,3.298125801E0
2.336860899E0,1.202883005E0,4.532203674E-1,3.604282141E0,3.826641605E0
2.341658607E0,5.743794441E-1,-8.586912155E-1,4.126778603E0,4.254123175E0
2.346456263E0,-4.683506489E-1,-2.054614067E0,3.846866846E0,4.386248491E0
2.351253920E0,-2.184532166E0,-3.378114700E0,2.741559505E0,4.868263369E0
2.356051576E0,-3.543498993E0,-5.437680244E0,2.447161674E0,6.936378869E0
2.360849232E0,-2.788159847E0,-9.560577393E0,4.429404259E0,1.089945400E1
2.365646888E0,-1.231823921E0,-1.377768612E1,7.616845131E0,1.579108466E1
2.370444545E0,-4.743764400E-1,-1.630680466E1,9.057147980E0,1.865928296E1
2.375242201E0,-1.076436043E0,-1.693974304E1,8.109337807E0,1.881156476E1
2.380039857E0,-2.357041597E0,-1.695356941E1,5.724368095E0,1.804847780E1
2.384837513E0,-4.229155540E0,-1.616695786E1,3.145860195E0,1.700449115E1
2.389635170E0,-4.921386719E0,-1.556823349E1,1.293678999E0,1.637875290E1
2.394432826E0,-5.318022728E0,-1.635114288E1,-3.727297783E-1,1.719826058E1
2.399230482E0,-4.766753197E0,-1.735328865E1,-3.106334209E-1,1.799875152E1
2.404028138E0,-4.109638214E0,-1.818035126E1,2.089064121E-1,1.864022371E1
2.408825795E0,-5.290677071E0,-1.882776642E1,9.360568523E-1,1.957938341E1
2.413623451E0,-7.928257942E0,-1.933427048E1,1.888567209E0,2.098184870E1
2.418421107E0,-9.625579834E0,-1.976188087E1,3.244107246E0,2.221953993E1
2.423218763E0,-9.901012421E0,-2.019703102E1,4.140616417E0,2.287126611E1
2.428016420E0,-9.251455307E0,-2.009189987E1,5.222018242E0,2.272758985E1
2.432814076E0,-8.021791458E0,-1.956119156E1,5.663950920E0,2.188766076E1
2.437611732E0,-6.990888596E0,-1.922273254E1,5.179887772E0,2.110017078E1
2.442409388E0,-5.582621574E0,-1.834160423E1,4.572641850E0,1.971012844E1
2.447207045E0,-3.729502916E0,-1.715539169E1,4.182527542E0,1.804744283E1
2.452004701E0,-1.794296503E0,-1.579454422E1,4.075492382E0,1.641026402E1
2.456802357E0,7.248818874E-2,-1.437123871E1,4.286319256E0,1.499700935E1
2.461600013E0,1.433377266E0,-1.298085880E1,4.647501945E0,1.386205396E1
2.466397670E0,2.088766336E0,-1.177918339E1,5.400320053E0,1.312537858E1
2.471195326E0,1.625748992E0,-9.717907906E0,6.616013050E0,1.186812633E1
2.475992982E0,2.862141132E0,-1.112758827E1,6.855712891E0,1.337968131E1
2.480790638E0,2.345391512E0,-1.063950062E1,8.404376984E0,1.375984692E1
2.485588295E0,2.217721701E0,-9.830981255E0,8.491592407E0,1.317852889E1
2.490385951E0,1.913777590E0,-9.144746780E0,8.217813492E0,1.244272466E1
2.495183607E0,1.873277903E0,-8.611714363E0,7.447344303E0,1.153835914E1
2.499981263E0,1.460195780E0,-8.021104813E0,7.029506683E0,1.076495510E1
2.504778920E0,1.446955442E0,-7.638454437E0,6.277562141E0,9.992369723E0
2.509576576E0,1.375298142E0,-7.506792068E0,6.036358833E0,9.730416235E0
2.514374232E0,1.008799791E0,-7.582890511E0,5.957725048E0,9.695998827E0
2.519171888E0,9.985743761E-1,-7.553428650E0,5.711375713E0,9.522145120E0
2.523969545E0,3.423662186E-1,-7.451253891E0,5.153430462E0,9.066214464E0
2.528767201E0,-1.882969141E-1,-8.564867973E0,3.725686073E0,9.342010268E0
2.533564857E0,8.778452873E-3,-5.961337090E0,1.898319244E0,6.256295462E0
2.538362513E0,-4.113537073E-1,-4.845435143E0,-1.150266647E0,4.997055828E0
2.543160170E0,-4.933165312E-1,-4.648216248E0,-3.125858307E0,5.623189988E0
2.547957878E0,-9.435546398E-1,-3.405785561E0,-2.412260532E0,4.278863344E0
2.552755534E0,-1.327120304E0,-3.194951057E0,-3.554401636E0,4.960114066E0
2.557553190E0,-1.010196090E0,-3.210423470E0,-3.775715590E0,5.057997944E0
2.562350847E0,1.891219616E-2,-1.553688049E0,-3.361703396E0,3.703424624E0
2.567148503E0,4.575887322E-1,-1.675222397E0,-5.367517471E0,5.641453831E0
2.571946159E0,6.384797692E-1,-8.773784637E-1,-7.144516945E0,7.226449457E0
2.576743815E0,1.761495829E0,1.256397247E0,-6.985598564E0,7.313001360E0
2.581541472E0,1.516848803E0,3.296705723E0,-6.353017807E0,7.316415391E0
2.586339128E0,1.911310554E0,3.882154465E0,-6.797907829E0,8.058274144E0
2.591136784E0,1.636144996E0,5.186468601E0,-6.180335045E0,8.232433921E0
2.595934440E0,2.214589596E0,5.408513069E0,-6.572991371E0,8.795489541E0
2.600732097E0,1.172643661E0,7.299068451E0,-5.832838058E0,9.416660407E0
2.605529753E0,1.380043030E-1,8.818186760E0,-5.555611610E0,1.042325685E1
2.610327409E0,-1.108089685E-1,8.748915672E0,-5.482124329E0,1.032518722E1
2.615125065E0,2.473878860E-2,8.852792740E0,-5.090833664E0,1.021220538E1
2.619922722E0,-2.629066110E-1,9.467834473E0,-4.226372719E0,1.037165541E1
2.624720378E0,9.685379267E-1,9.030490875E0,-4.082960129E0,9.957830817E0
2.629518034E0,1.390328050E0,9.101862907E0,-2.926990032E0,9.661479758E0
2.634315690E0,1.676271200E0,9.530490875E0,-2.900665760E0,1.010217815E1
2.639113347E0,4.005609989E0,8.780033112E0,-2.390086412E0,9.942152980E0
2.643911003E0,1.161156178E0,1.073893547E1,-1.948462725E0,1.097586105E1
2.648708659E0,-1.057205558E0,1.170279312E1,-9.733402729E-1,1.179069301E1
2.653506315E0,-2.928828001E0,1.144258881E1,-1.353135109E0,1.188872771E1
2.658303972E0,-4.435859680E0,1.172896481E1,-1.107891679E0,1.258860161E1
2.663101628E0,-6.198294640E0,1.263101196E1,-1.275703549E0,1.412758788E1
2.667899284E0,-5.875703812E0,1.220630550E1,-2.993903160E-1,1.355018169E1
2.672696940E0,-6.435456753E0,1.238977051E1,-2.153146267E-1,1.396308982E1
2.677494597E0,-5.793300629E0,1.201210213E1,9.885475636E-1,1.337273928E1
2.682292253E0,-7.457849026E0,1.362800217E1,-5.464123487E-1,1.554479082E1
2.687089909E0,-7.422377586E0,1.403785610E1,-1.512258053E-1,1.588004919E1
2.691887565E0,-6.201594353E0,1.400530529E1,-1.858463287E-1,1.531805757E1
2.696685222E0,-4.008356094E0,1.395120811E1,-7.217502594E-2,1.451579607E1
2.701482878E0,-2.751072168E0,1.452756691E1,-2.932453156E-1,1.478866428E1
2.706280534E0,-2.047305346E0,1.508120728E1,-7.839114666E-1,1.523971093E1
2.711078190E0,-1.185274959E0,1.507958412E1,-1.345233679E0,1.518579559E1
2.715875847E0,-6.007121205E-1,1.493691635E1,-1.869619012E0,1.506545055E1
2.720673503E0,-2.243883610E-1,1.472035408E1,-2.015600204E0,1.485940169E1
2.725471211E0,-3.249144554E-2,1.452318382E1,-2.068015099E0,1.466971746E1
2.730268867E0,1.495635957E-1,1.395139027E1,-2.198301315E0,1.412431196E1
2.735066524E0,2.925498188E-1,1.318724537E1,-2.135848045E0,1.336229294E1
2.739864180E0,1.768351197E-1,1.271846008E1,-2.016525507E0,1.287854311E1
2.744661836E0,-1.016684324E-1,1.223878765E1,-1.902253389E0,1.238615467E1
2.749459492E0,-1.753059328E-1,1.166223145E1,-1.831066728E0,1.180640419E1
2.754257149E0,-4.105755091E-1,1.107962894E1,-1.700370193E0,1.121686269E1
2.759054805E0,-6.138936877E-1,1.062702274E1,-1.486722708E0,1.074806133E1
2.763852461E0,-6.320080161E-1,1.031372452E1,-1.565202355E0,1.045094283E1
2.768650117E0,-8.175747991E-1,9.773902893E0,-1.522236347E0,9.925462700E0
2.773447774E0,-1.158951283E0,9.304066658E0,-1.209919572E0,9.453715133E0
2.778245430E0,-1.446120262E0,8.739134789E0,-7.891361117E-1,8.893057768E0
2.783043086E0,-1.745529175E0,8.079113007E0,-2.752705812E-1,8.270109610E0
2.787840742E0,-1.884502411E0,7.517513752E0,1.729216576E-1,7.752049035E0
2.792638399E0,-1.988795042E0,7.142425537E0,5.829162598E-1,7.437024918E0
2.797436055E0,-1.956461906E0,6.836360931E0,7.331162691E-1,7.148498684E0
2.802233711E0,-1.764815807E0,6.510861397E0,7.687387466E-1,6.789466122E0
2.807031367E0,-1.301156282E0,6.316502571E0,6.438708305E-1,6.481186778E0
2.811829024E0,-7.541225553E-1,6.066817284E0,1.385675669E-1,6.115077575E0
2.816626680E0,-1.139841080E-1,5.800290108E0,-2.180883884E-1,5.805507752E0
2.821424336E0,4.117842317E-1,5.562534809E0,-6.357370615E-1,5.613868663E0
2.826221992E0,7.138785124E-1,5.341724873E0,-9.941464067E-1,5.480143632E0
2.831019649E0,9.220890403E-1,5.219174385E0,-1.326454163E0,5.463470518E0
2.835817305E0,1.051958799E0,5.128029823E0,-1.801603794E0,5.536161433E0
2.840614961E0,1.119032621E0,4.939441204E0,-2.237009764E0,5.536652969E0
2.845412617E0,1.355852604E0,4.529564857E0,-2.442578316E0,5.321793204E0
2.850210274E0,1.711881161E0,3.767466545E0,-2.374660492E0,4.771095653E0
2.855007930E0,1.992783308E0,3.000124931E0,-2.350310802E0,4.300685502E0
2.859805586E0,2.223857403E0,1.914574146E0,-2.169966698E0,3.649642637E0
2.864603242E0,2.286894798E0,1.404699802E0,-2.303121090E0,3.536585374E0
2.869400951E0,2.715546131E0,-1.573839188E-1,-2.017351151E0,3.386541917E0
2.874198607E0,2.996118546E0,-1.685557365E0,-1.209800005E0,3.644371828E0
2.878996263E0,2.891930103E0,-3.304399490E0,-3.164273500E-1,4.402549487E0
2.883793920E0,2.322908878E0,-4.610404968E0,6.885031462E-1,5.208241182E0
2.888591576E0,1.827949524E0,-6.318712234E0,1.912627697E0,6.850231271E0
2.893389232E0,1.818399668E0,-8.390805244E0,3.346487284E0,9.214725560E0
2.898186888E0,2.562365532E0,-1.002593613E1,5.114479065E0,1.154309354E1
2.902984545E0,2.644796610E0,-1.308821297E1,4.539217949E0,1.410321833E1
2.907782201E0,2.424281120E0,-1.470849514E1,4.979450226E0,1.571661200E1
2.912579857E0,2.431345940E0,-1.578941917E1,4.857180595E0,1.669758678E1
2.917377513E0,2.132142544E0,-1.749501038E1,4.042780399E0,1.808218718E1
2.922175170E0,1.703475237E0,-1.859379578E1,2.945504427E0,1.890256770E1
2.926972826E0,1.654331207E0,-1.967665863E1,2.298519850E0,1.987940895E1
2.931770482E0,1.625199795E0,-2.001488495E1,1.810618043E0,2.016222288E1
2.936568138E0,1.767338753E0,-2.021864891E1,1.525114059E0,2.035296595E1
2.941365795E0,2.100272179E0,-2.084229279E1,1.177531242E0,2.098091732E1
2.946163451E0,2.276436329E0,-2.114937592E1,-6.610471010E-2,2.127163919E1
2.950961107E0,2.259177923E0,-2.084414673E1,-3.467890620E-1,2.096908678E1
2.955758763E0,2.118386269E0,-2.155416107E1,1.741421223E-2,2.165801753E1
2.960556420E0,1.991087317E0,-2.218126297E1,4.461200237E-1,2.227491591E1
2.965354076E0,1.911179304E0,-2.297434998E1,1.168586493E0,2.308330474E1
2.970151732E0,1.669692039E0,-2.368979454E1,2.409732580E0,2.387050582E1
2.974949388E0,1.255024672E0,-2.372556305E1,3.531589031E0,2.401977415E1
2.979747045E0,8.694278002E-1,-2.357722473E1,3.885459423E0,2.391104819E1
2.984544701E0,6.498314142E-1,-2.329288101E1,4.761972904E0,2.378354416E1
2.989342409E0,5.797516108E-1,-2.300447083E1,4.895267487E0,2.352669619E1
2.994140065E0,8.873278499E-1,-2.164175224E1,4.672140121E0,2.215810651E1
2.998937722E0,1.059430361E0,-2.061764526E1,3.893520355E0,2.100878839E1
3.003735378E0,1.149315953E0,-1.978816032E1,2.671220541E0,2.000069087E1
3.008533034E0,1.901585460E0,-1.792296219E1,1.997362137E0,1.813389248E1
3.013330690E0,2.669279099E0,-1.557834339E1,2.217923164E0,1.596023236E1
3.018128347E0,3.128939867E0,-1.296300793E1,2.234530687E0,1.352120433E1
3.022926003E0,3.533770084E0,-1.206033134E1,1.631492615E0,1.267284070E1
3.027723659E0,3.609779835E0,-1.035430241E1,1.253063917E0,1.103685906E1
3.032521315E0,3.657933950E0,-9.148221016E0,1.425107837E0,9.954966644E0
3.037318972E0,3.756044865E0,-9.729207039E0,6.477278471E-1,1.044915757E1
3.042116628E0,3.109267235E0,-6.630681992E0,2.295011520E0,7.674670305E0
3.046914284E0,3.389801979E0,-4.299412727E0,1.773026466E0,5.754939627E0
3.051711940E0,3.789498091E0,-3.553406715E0,1.012993336E0,5.292745088E0
3.056509597E0,4.087229729E0,-2.421391487E0,5.158587098E-1,4.778566082E0
3.061307253E0,3.797247648E0,-1.727504730E-1,-5.977588892E-2,3.801645116E0
3.066104909E0,3.966049194E0,-3.573999405E-1,-1.641078591E-1,3.985500260E0
3.070902565E0,3.806052208E0,1.385831833E-1,-6.482401490E-1,3.863347512E0
3.075700222E0,3.361178398E0,1.686594963E0,-7.489122152E-1,3.834448109E0
3.080497878E0,2.661844492E0,3.508317471E0,-1.254737735E0,4.579090997E0
3.085295534E0,2.055274487E0,4.284429550E0,-1.894987583E0,5.115805677E0
3.090093190E0,1.310115337E0,4.460869312E0,-2.499235153E0,5.278440449E0
3.094890847E0,6.172913313E-1,4.695766449E0,-2.856832743E0,5.531072631E0
3.099688503E0,-5.865216255E-3,5.147082806E0,-2.704508781E0,5.814366995E0
3.104486159E0,-8.116031885E-1,5.671289921E0,-2.870496750E0,6.407962289E0
3.109283815E0,-1.510320544E0,6.034036160E0,-2.894671440E0,6.860742180E0
3.114081524E0,-2.043216467E0,6.644262314E0,-2.552991629E0,7.405317109E0
3.118879180E0,-2.457888126E0,7.186523438E0,-2.061517000E0,7.870018139E0
3.123676836E0,-2.913338184E0,7.594473362E0,-1.636378765E0,8.297065776E0
3.128474492E0,-3.362491131E0,8.138762474E0,-1.216168404E0,8.889593174E0
3.133272149E0,-3.608419418E0,8.697525978E0,-9.698268175E-1,9.466161466E0
3.138069805E0,-4.018276215E0,9.046058655E0,-1.010996580E0,9.949866080E0
3.142867461E0,-4.135145664E0,9.303835869E0,-9.030416012E-1,1.022136369E1
3.147665117E0,-3.908008337E0,9.714422226E0,-8.118433952E-1,1.050245771E1
3.152462774E0,-3.443389893E0,1.010284328E1,-6.016834974E-1,1.069048172E1
3.157260430E0,-2.897163868E0,1.047133350E1,-3.216626644E-1,1.086949174E1
3.162058086E0,-2.653469563E0,1.087005615E1,9.710431099E-3,1.118924107E1
3.166855742E0,-2.493086100E0,1.119635201E1,4.211364985E-1,1.147828961E1
3.171653399E0,-2.397281408E0,1.152713680E1,7.897686362E-1,1.180023625E1
3.176451055E0,-2.390602350E0,1.192024040E1,1.080455303E0,1.220551083E1
3.181248711E0,-2.521967411E0,1.246449566E1,1.343778849E0,1.278787368E1
3.186046367E0,-2.442462921E0,1.292593384E1,1.130965948E0,1.320319941E1
3.190844024E0,-2.400914192E0,1.311607456E1,1.464703798E0,1.341421478E1
3.195641680E0,-1.025268435E0,1.335056305E1,3.469530344E0,1.383207685E1
3.200439336E0,-1.662568450E0,1.404228020E1,3.004380226E0,1.445600455E1
3.205236992E0,-2.513402224E0,1.468356323E1,2.386682510E0,1.508709625E1
3.210034649E0,-3.107168198E0,1.482240677E1,2.294129372E0,1.531735180E1
3.214832305E0,-3.757379532E0,1.475526810E1,2.285743952E0,1.539676794E1
3.219629961E0,-3.203768492E0,1.495014000E1,1.961602569E0,1.541488577E1
3.224427670E0,-3.534306765E0,1.505280876E1,2.945646763E0,1.574024176E1
3.229225326E0,-3.514044523E0,1.554607391E1,3.073938847E0,1.623200613E1
3.234022982E0,-3.067984343E0,1.501266003E1,3.444374084E0,1.570529216E1
3.238820638E0,-2.446024418E0,1.415682411E1,3.353278637E0,1.475273473E1
3.243618295E0,-1.796612382E0,1.337600899E1,3.139786482E0,1.385653967E1
3.248415951E0,-1.230763793E0,1.277791977E1,2.951183558E0,1.317192080E1
3.253213607E0,-7.868416309E-1,1.222621822E1,2.731665134E0,1.255235142E1
3.258011263E0,-5.055981278E-1,1.162767029E1,2.705628872E0,1.194900721E1
3.262808920E0,-3.487079740E-1,1.111380196E1,2.776893616E0,1.146077350E1
3.267606576E0,-3.617357016E-1,1.060560608E1,2.723132849E0,1.095560065E1
3.272404232E0,-4.833184481E-1,1.018886948E1,2.712433338E0,1.055480708E1
3.277201888E0,-5.970579386E-1,9.707816124E0,2.423516750E0,1.002355254E1
3.281999545E0,-4.682750702E-1,9.355846405E0,2.725523949E0,9.756004525E0
3.286797201E0,-4.260038733E-1,9.367292404E0,3.009249449E0,9.848006323E0
3.291594857E0,-1.020773172E0,8.991841316E0,1.551350594E0,9.181605349E0
3.296392513E0,-1.464676499E0,8.925891876E0,1.396050453E0,9.152364716E0
3.301190170E0,-1.438457251E0,8.770675659E0,1.372748017E0,8.993239010E0
3.305987826E0,-1.366512060E0,8.839420319E0,2.114816427E0,9.191036683E0
3.310785482E0,-1.546581745E0,8.753856659E0,2.510445356E0,9.237113044E0
3.315583138E0,-1.706367254E0,8.623877525E0,2.006795406E0,9.017215789E0
3.320380795E0,-1.717670918E0,8.236774445E0,1.240896463E0,8.504979169E0
3.325178451E0,-1.614406943E0,7.853271484E0,7.844347954E-1,8.055775613E0
3.329976107E0,-1.613847256E0,7.659646034E0,7.235479355E-1,7.861183241E0
3.334773815E0,-1.798195839E0,7.421485424E0,3.819686174E-1,7.645773617E0
3.339571472E0,-1.678470373E0,7.088867664E0,3.139641285E-1,7.291630890E0
3.344369128E0,-1.507995367E0,6.886072159E0,-5.165678263E-1,7.068159741E0
3.349166784E0,-1.424023747E0,6.829291344E0,-9.101339579E-1,7.035297272E0
3.353964440E0,-1.512542129E0,6.683934689E0,-1.117052436E0,6.943383380E0
3.358762097E0,-1.744865060E0,6.347264767E0,-1.409428239E0,6.731924840E0
3.363559753E0,-1.855723381E0,5.563952446E0,-1.445913434E0,6.040856044E0
3.368357409E0,-1.944830179E0,4.753024101E0,-1.032044053E0,5.238197921E0
3.373155065E0,-1.958366394E0,3.389190674E0,-3.898454905E-1,3.933674092E0
3.377952722E0,-2.219525337E0,1.927762985E0,2.076739073E-1,2.947149691E0
3.382750378E0,-2.205401897E0,4.650020599E-1,6.593827605E-1,2.348363275E0
3.387548034E0,-2.219480515E0,-1.367000580E0,9.450861216E-1,2.772719264E0
3.392345690E0,-2.346338272E0,-3.735308647E0,5.659143329E-1,4.447256796E0
3.397143347E0,-3.662257195E0,-5.323024750E0,3.042936325E-1,6.468331691E0
3.401941003E0,-3.875814438E0,-4.544869423E0,1.150001287E0,6.082785430E0
3.406738659E0,5.034267902E-2,-8.076046944E0,-1.442486048E-1,8.077491955E0
3.411536315E0,1.686097145E0,-1.125713253E1,-6.754534245E-1,1.140272747E1
3.416333972E0,3.054244995E0,-1.444654846E1,-3.864452839E-1,1.477093480E1
3.421131628E0,4.500959396E0,-1.664482498E1,1.929396629E0,1.735025664E1
3.425929284E0,5.273307800E0,-1.715846062E1,2.289863348E0,1.809596696E1
3.430726940E0,5.983351707E0,-1.720678329E1,4.960692525E-1,1.822415907E1
3.435524597E0,6.705362320E0,-1.734033012E1,-1.636196375E0,1.866349569E1
3.440322253E0,7.359986782E0,-1.719093704E1,-3.762704849E0,1.907500117E1
3.445119961E0,7.551066399E0,-1.732019234E1,-5.196105480E0,1.959610110E1
3.449917617E0,7.034432888E0,-1.886990547E1,-5.501720428E0,2.087643423E1
3.454715274E0,5.561924458E0,-2.118323135E1,-3.700760365E0,2.221170686E1
3.459512930E0,3.350287199E0,-2.199573517E1,-1.580982566E0,2.230552164E1
3.464310586E0,1.023595095E0,-2.162200546E1,8.354646564E-1,2.166233755E1
3.469108242E0,1.382649541E-1,-1.993420029E1,2.244400024E0,2.006062785E1
3.473905899E0,-6.731848717E-1,-2.101762009E1,2.988990784E0,2.123976454E1
3.478703555E0,2.048065662E-1,-2.048371506E1,2.937005043E0,2.069421482E1
3.483501211E0,1.256672382E0,-1.960398865E1,1.275441885E0,1.968558733E1
3.488298867E0,1.517830133E0,-1.907008553E1,-7.896534801E-1,1.914668438E1
3.493096524E0,1.954229116E0,-1.906096268E1,-1.607995749E0,1.922823341E1
3.497894180E0,3.335083961E0,-1.829680061E1,4.974336922E-1,1.860492241E1
3.502691836E0,3.279530764E0,-1.967238235E1,1.160054922E0,1.997757936E1
3.507489492E0,3.050943375E0,-1.987548065E1,1.601378202E0,2.017194583E1
3.512287149E0,2.885355234E0,-1.974136353E1,2.523143768E0,2.011002146E1
3.517084805E0,3.018889904E0,-1.906282425E1,2.582870483E0,1.947244680E1
3.521882461E0,2.326645136E0,-1.756595993E1,1.855141759E0,1.781622229E1
3.526680117E0,2.246918440E0,-1.518236732E1,1.164707541E0,1.539186356E1
3.531477826E0,2.638507605E0,-1.361259747E1,3.209348321E-1,1.386966226E1
3.536275482E0,2.664808035E0,-1.235867405E1,-5.056082606E-1,1.265281257E1
3.541073138E0,2.514507294E0,-1.114528561E1,-8.052728772E-1,1.145375932E1
3.545870795E0,2.174739122E0,-1.001285172E1,-7.136803865E-1,1.027112601E1
3.550668451E0,1.908906579E0,-9.307726860E0,-3.104537129E-1,9.506528553E0
3.555466107E0,1.479492903E0,-8.711445808E0,-1.359487772E-1,8.837231998E0
3.560263763E0,1.222347021E0,-8.259748459E0,1.863230467E-1,8.351783829E0
3.565061420E0,9.445437193E-1,-7.641862869E0,1.218658686E-1,7.700979304E0
3.569859076E0,8.690934777E-1,-7.302513123E0,2.977840900E-1,7.360074507E0
3.574656732E0,6.474170685E-1,-6.839934349E0,1.263734102E-1,6.871667992E0
3.579454388E0,3.500514030E-1,-6.129981041E0,-2.368165255E-1,6.144532986E0
3.584252045E0,2.146448493E-1,-5.290001869E0,-5.052769184E-1,5.318411130E0
3.589049701E0,-1.757740974E-2,-4.243629456E0,-5.728471279E-1,4.282155270E0
3.593847357E0,-2.527133524E-1,-3.041337013E0,-8.949108124E-1,3.180323919E0
3.598645013E0,-5.543297529E-1,-1.783658981E0,-1.166357160E0,2.202069449E0
3.603442670E0,-1.062899828E0,-5.876569748E-1,-1.249152899E0,1.742262819E0
3.608240326E0,-1.363747358E0,4.464082718E-1,-9.759219885E-1,1.735370545E0
3.613037982E0,-1.555642843E0,1.321027756E0,-9.201396704E-1,2.238704089E0
3.617835638E0,-1.561241984E0,2.122242928E0,-9.471085072E-1,2.799715361E0
3.622633295E0,-1.785369635E0,2.972012520E0,-9.327611923E-1,3.590326809E0
3.627431003E0,-2.139921665E0,3.911039352E0,-6.774876118E-1,4.509377231E0
3.632228659E0,-2.509643316E0,4.353995323E0,-6.869962215E-1,5.072233104E0
3.637026315E0,-2.401039600E0,5.281543732E0,1.332640648E-2,5.801712932E0
3.641823972E0,-2.119531155E0,6.444723129E0,3.818336725E-1,6.795047129E0
3.646621628E0,-2.084191322E0,7.549377441E0,5.094616413E-1,7.848344054E0
3.651419284E0,-2.234701157E0,8.507252693E0,6.139495373E-1,8.817265544E0
3.656216940E0,-2.404875517E0,9.347350121E0,8.888570070E-1,9.692597552E0
3.661014597E0,-2.419269085E0,9.893088341E0,1.245605230E0,1.026048694E1
3.665812253E0,-2.387816906E0,1.023574352E1,1.442658424E0,1.060911770E1
3.670609909E0,-2.590175152E0,1.006015873E1,1.283689022E0,1.046726605E1
3.675407565E0,-2.613418579E0,1.039699078E1,1.340157509E0,1.080386024E1
3.680205222E0,-2.353475571E0,1.106655312E1,1.582784414E0,1.142421339E1
3.685002878E0,-1.998237848E0,1.175786972E1,1.863136172E0,1.207111143E1
3.689800534E0,-1.682715058E0,1.284374046E1,2.167185545E0,1.313354074E1
3.694598190E0,-1.652008533E0,1.391503525E1,2.304015398E0,1.420090931E1
3.699395847E0,-1.764217496E0,1.487361908E1,2.458815336E0,1.517836555E1
3.704193503E0,-1.680480957E0,1.590801811E1,2.712008953E0,1.622479735E1
3.708991211E0,-1.565099239E0,1.663041496E1,2.917393684E0,1.695675156E1
3.713788867E0,-1.226979017E0,1.719608498E1,3.102586746E0,1.751675942E1
3.718586472E0,-1.123305798E0,1.743989372E1,3.032108068E0,1.773711894E1
3.723384180E0,-1.352475405E0,1.707036591E1,2.902734756E0,1.736814472E1
3.728181836E0,-1.899117470E0,1.600424194E1,2.083938599E0,1.625069868E1
3.732979492E0,-2.217921734E0,1.455281639E1,1.584991217E0,1.480593931E1
3.737777149E0,-2.259744167E0,1.361520863E1,1.839846134E0,1.392355499E1
3.742574805E0,-2.323637962E0,1.327247047E1,2.660042763E0,1.373439454E1
3.747372461E0,-2.178660870E0,1.352253819E1,2.655236721E0,1.395191328E1
3.752170117E0,-1.995710373E0,1.360534477E1,2.610455036E0,1.399652606E1
3.756967774E0,-1.303205490E0,1.322480774E1,2.594112873E0,1.353969371E1
3.761765430E0,-1.346101165E-1,1.326529789E1,1.752518892E0,1.338123950E1
3.766563086E0,-7.765217423E-1,1.259809780E1,1.341850042E0,1.269313262E1
3.771360742E0,-3.504351974E-1,1.216946507E1,-1.054497480E0,1.222009205E1
3.776158399E0,-7.455247641E-1,1.083423805E1,1.367695808E0,1.094564357E1
3.780956055E0,-2.763272762E0,1.064054108E1,3.177932024E0,1.144360270E1
3.785753711E0,-3.352263451E0,1.035213470E1,3.425760031E0,1.140790055E1
3.790551420E0,-3.365870953E0,9.792544365E0,3.365664005E0,1.088809931E1
3.795349076E0,-3.408683300E0,9.746157646E0,2.904834032E0,1.072589257E1
3.800146732E0,-3.129321098E0,9.363367081E0,2.892539978E0,1.028747205E1
3.804944388E0,-2.600010872E0,9.419461250E0,2.883688211E0,1.018832491E1
3.809742045E0,-2.554893494E0,9.558291435E0,3.048596382E0,1.035289118E1
3.814539701E0,-2.795934200E0,9.693737030E0,3.090479851E0,1.055162790E1
3.819337357E0,-2.474861860E0,9.845230103E0,2.580361843E0,1.047433837E1
3.824135013E0,-2.162205696E0,9.541362762E0,2.266546726E0,1.004240862E1
3.828932670E0,-1.449551821E0,9.092926025E0,2.165469885E0,9.458951528E0
3.833730326E0,-1.185887694E0,9.252914429E0,1.770463824E0,9.495119652E0
3.838527982E0,-7.024495602E-1,8.932884216E0,1.570266485E0,9.097010093E0
3.843325638E0,-4.498746395E-1,9.017273903E0,1.893128872E0,9.224833481E0
3.848123295E0,-5.131816864E-1,8.680624008E0,1.441248178E0,8.814407804E0
3.852920951E0,-4.512186050E-1,7.750758171E0,1.051547050E0,7.834768768E0
3.857718607E0,2.085833549E-1,6.663181305E0,1.224283934E0,6.777932079E0
3.862516263E0,7.248146534E-1,5.803053856E0,1.155320644E0,5.961170701E0
3.867313920E0,1.075272322E0,5.316524506E0,1.147519827E0,5.544226288E0
3.872111576E0,9.896605015E-1,5.325697899E0,9.040995836E-1,5.491801351E0
3.876909284E0,7.087800503E-1,5.558017731E0,7.333376408E-1,5.650815370E0
3.881706940E0,5.153377056E-1,5.781604290E0,7.116284966E-1,5.847985656E0
3.886504597E0,2.894215584E-1,6.046710968E0,6.231568456E-1,6.085622632E0
3.891302253E0,2.064108849E-2,6.262387276E0,3.571179509E-1,6.272595450E0
3.896099909E0,-2.729098797E-1,6.509807587E0,1.060533524E-2,6.515534291E0
3.900897565E0,-3.413259983E-1,6.693165302E0,-2.738900185E-1,6.707457115E0
3.905695222E0,-6.203210354E-1,6.628456116E0,-3.751883507E-1,6.667982826E0
3.910492878E0,-1.204491496E0,6.371325493E0,-5.504283905E-1,6.507500266E0
3.915290534E0,-1.484985113E0,5.576061249E0,-1.023075342E0,5.860402972E0
3.920088190E0,-1.386675477E0,4.219921112E0,-1.468607187E0,4.678398245E0
3.924885847E0,-1.241672039E0,2.731551170E0,-1.749155283E0,3.473134816E0
3.929683503E0,-1.154830217E0,1.417043686E0,-1.432726026E0,2.322573896E0
3.934481159E0,-1.299187541E0,8.758831024E-2,-3.285849094E-1,1.342954959E0
3.939278815E0,-1.900311828E0,-1.143705368E0,1.469428778E0,2.660539033E0
3.944076524E0,-3.051604986E0,-1.716856003E0,3.424231052E0,4.897473413E0
3.948874180E0,-3.355257988E0,-2.844912529E0,3.631289721E0,5.704169396E0
3.953671836E0,-3.052502632E0,-2.602460861E0,3.502374172E0,5.325147857E0
3.958469492E0,-1.249216437E0,-2.129101753E0,2.365525246E0,3.418965585E0
3.963267149E0,1.301587582E0,-3.510806084E0,1.399731040E0,3.997391221E0
3.968064805E0,3.371227741E0,-6.761697769E0,1.138434172E0,7.640796134E0
3.972862461E0,4.139224052E0,-8.071275711E0,2.849133015E0,9.507693006E0
3.977660117E0,4.433075905E0,-7.943316460E0,3.729885817E0,9.831606510E0
3.982457774E0,3.907706738E0,-9.689537048E0,3.306443691E0,1.095855237E1
3.987255430E0,3.944736481E0,-1.214408493E1,3.715481281E0,1.329829109E1
3.992053086E0,3.828823328E0,-1.458970737E1,4.139472961E0,1.564144129E1
3.996850742E0,3.166407347E0,-1.616163635E1,3.929664135E0,1.693123992E1
4.001648399E0,2.668925285E0,-1.821852684E1,3.872354984E0,1.881576508E1
4.006446055E0,2.241285801E0,-2.300182915E1,4.148030758E0,2.348006953E1
4.011243763E0,1.656842947E0,-2.694032288E1,4.719140053E0,2.740066437E1
4.016041367E0,1.388825536E0,-3.226952362E1,5.530754089E0,3.276950155E1
4.020839076E0,1.955703616E0,-4.306048584E1,5.743576050E0,4.348584693E1
4.025636732E0,2.376308680E0,-4.869564056E1,7.476769447E0,4.932356774E1
4.030434388E0,2.379477739E0,-4.142057419E1,8.469123840E0,4.234444402E1
4.035232045E0,1.538376093E0,-2.838136482E1,7.322247028E0,2.935104379E1
4.040029701E0,2.353443503E-1,-1.850565338E1,4.630528927E0,1.907764116E1
4.044827357E0,-4.128186405E-1,-1.364864731E1,2.682979107E0,1.391597533E1
4.049625013E0,-4.019058347E-1,-1.613212013E1,1.116820812E0,1.617572617E1
4.054422670E0,6.099840403E-1,-2.000360489E1,-8.233795166E-1,2.002983382E1
4.059220326E0,9.298125505E-1,-2.190595436E1,-3.303465843E0,2.217314309E1
4.064017982E0,1.154445887E0,-2.154493904E1,-3.033289909E0,2.178802403E1
4.068815638E0,1.119953156E0,-2.024221802E1,-2.128326178E0,2.038458873E1
4.073613347E0,1.040419459E0,-1.853442192E1,-1.397288322E0,1.861611354E1
4.078411003E0,1.451900959E0,-1.661577225E1,-1.511487722E0,1.674743261E1
4.083208659E0,2.343310595E0,-1.546893406E1,-1.314281940E0,1.570052109E1
4.088006315E0,2.630434275E0,-1.451218128E1,-2.588994801E-1,1.475091926E1
4.092803972E0,2.654244661E0,-1.320762348E1,-1.458349705E0,1.355039175E1
4.097601628E0,3.248792410E0,-1.178566742E1,4.765836000E-1,1.223453066E1
4.102399284E0,2.269209146E0,-1.052621841E1,2.265228271E0,1.100371952E1
4.107196940E0,1.347255468E0,-9.240025520E0,2.845902920E0,9.761779159E0
4.111994597E0,1.149660587E0,-7.848110199E0,5.868730545E-1,7.953550977E0
4.116792253E0,1.226321459E0,-7.516657829E0,6.709204912E-1,7.645530953E0
4.121589909E0,6.816669106E-1,-6.367994308E0,1.692353249E0,6.624204164E0
4.126387565E0,3.400921226E-1,-4.446385384E0,1.337513447E0,4.655636138E0
4.131185222E0,3.881233335E-1,-3.612370491E0,3.733163774E-1,3.652290433E0
4.135982930E0,2.562648654E-1,-2.865628242E0,7.146234810E-2,2.877951315E0
4.140780534E0,3.688040376E-1,-1.823582649E0,-3.138746321E-1,1.886792882E0
4.145578242E0,4.487876296E-1,-9.382295609E-1,-5.494982600E-1,1.176279466E0
4.150375899E0,1.670219898E-1,-1.950178146E-1,-8.300395608E-1,8.688463418E-1
4.155173555E0,-1.058810353E-1,4.276885986E-1,-1.154322386E0,1.235551902E0
4.159971211E0,-3.856093287E-1,9.371881485E-1,-1.607433796E0,1.900226194E0
4.164768867E0,-4.190157354E-1,1.582053185E0,-1.846024990E0,2.467037642E0
4.169566524E0,-4.377693236E-1,2.440739155E0,-2.153281450E0,3.284124024E0
4.174364180E0,-3.670569062E-1,3.216683865E0,-1.585237145E0,3.604824915E0
4.179161836E0,-6.181953549E-1,4.091665745E0,-1.337371349E0,4.348845386E0
4.183959492E0,-9.627220631E-1,4.788339138E0,-2.021481752E0,5.285963862E0
4.188757149E0,-9.395645857E-1,5.462312698E0,-2.277133465E0,5.992076305E0
4.193554805E0,-7.162156701E-1,5.886628628E0,-2.417881012E0,6.404022960E0
4.198352461E0,-5.544268489E-1,6.281485558E0,-2.285492182E0,6.707303814E0
4.203150117E0,-5.062863827E-1,7.029313087E0,-1.689098001E0,7.247111179E0
4.207947826E0,-3.866196573E-1,7.649340153E0,-1.038318396E0,7.729164549E0
4.212745482E0,-2.252124101E-1,8.134592056E0,-8.853165507E-1,8.185725010E0
4.217543138E0,-1.018274948E-1,8.353801727E0,-1.085561752E0,8.424655272E0
4.222340795E0,-5.999276042E-2,8.687348366E0,-1.235003710E0,8.774899140E0
4.227138451E0,-2.266248465E-1,8.853147507E0,-1.458093405E0,8.975278044E0
4.231936107E0,-3.694164157E-1,9.056928635E0,-1.453002214E0,9.180176481E0
4.236733763E0,-4.331643581E-1,9.016669273E0,-1.337068081E0,9.125552433E0
4.241531420E0,-3.849600554E-1,9.041020393E0,-1.005431175E0,9.104896257E0
4.246329076E0,-3.420292139E-1,9.270927429E0,-8.311195970E-1,9.314388824E0
4.251126732E0,-1.638010740E-1,9.579542160E0,-4.008134007E-1,9.589322717E0
4.255924388E0,5.633696914E-3,9.990786552E0,6.446504593E-2,9.990996117E0
4.260722097E0,4.589038789E-1,1.009597015E1,4.950428307E-1,1.011851143E1
4.265519753E0,8.337792158E-1,1.029944706E1,7.878300548E-1,1.036313050E1
4.270317409E0,1.012793064E0,1.047448349E1,8.209401965E-1,1.055530658E1
4.275115065E0,1.057110906E0,1.066650200E1,9.124496579E-1,1.075752354E1
4.279912722E0,7.123680115E-1,1.041415501E1,7.761090398E-1,1.046730328E1
4.284710378E0,1.845331043E-1,9.586366653E0,1.488435268E-2,9.588154130E0
4.289508034E0,-5.513605475E-2,9.228102684E0,-1.244877577E-1,9.229107017E0
4.294305690E0,-4.951955378E-2,9.431950569E0,4.981987476E-1,9.445228728E0
4.299103347E0,-2.629888803E-2,9.685811996E0,9.159786105E-1,9.729062775E0
4.303901003E0,-9.127758443E-2,9.970520020E0,1.188386202E0,1.004150700E1
4.308698659E0,3.782233596E-2,1.020488262E1,1.455104589E0,1.030817099E1
4.313496315E0,1.005112380E-1,1.054197407E1,1.956324816E0,1.072243100E1
4.318293972E0,9.495238960E-2,1.095776653E1,2.220269680E0,1.118084347E1
4.323091680E0,1.020158082E-2,1.133020878E1,2.417013884E0,1.158514960E1
4.327889336E0,-2.860753536E-1,1.193646431E1,2.571221352E0,1.221360711E1
4.332686992E0,-6.318387985E-1,1.272834015E1,2.540534973E0,1.299477515E1
4.337484649E0,-1.025835991E0,1.352394295E1,2.313800812E0,1.375874437E1
4.342282305E0,-1.322167873E0,1.395523453E1,1.755035877E0,1.412716707E1
4.347079961E0,-1.587463379E0,1.435716534E1,1.788378477E0,1.455494878E1
4.351877617E0,-1.766386986E0,1.473923874E1,1.963027954E0,1.497393603E1
4.356675274E0,-1.817963123E0,1.495331192E1,1.636605024E0,1.515206267E1
4.361472930E0,-1.864476442E0,1.500681496E1,1.308983803E0,1.517874192E1
4.366270586E0,-1.894408226E0,1.494057846E1,1.011413336E0,1.509412549E1
4.371068242E0,-1.955822945E0,1.487428093E1,7.961342931E-1,1.502342525E1
4.375865899E0,-2.077542543E0,1.471952248E1,6.653280258E-1,1.488029524E1
4.380663607E0,-2.180451393E0,1.450037003E1,5.825546980E-1,1.467496062E1
4.385461263E0,-2.397802353E0,1.431496525E1,4.827721119E-1,1.452242249E1
4.390258920E0,-2.618554115E0,1.414183998E1,5.666748285E-1,1.439338682E1
4.395056576E0,-2.691563129E0,1.372532272E1,7.408235669E-1,1.400634911E1
4.399854232E0,-2.729058504E0,1.329758263E1,8.637868166E-1,1.360219069E1
4.404651888E0,-2.707155466E0,1.278217506E1,9.139745235E-1,1.309763488E1
4.409449545E0,-2.621543646E0,1.224131584E1,9.513980746E-1,1.255497762E1
4.414247201E0,-2.594775915E0,1.167019653E1,9.288122654E-1,1.199120684E1
4.419044857E0,-2.508205891E0,1.100187016E1,7.485574484E-1,1.130896025E1
4.423842513E0,-2.379561901E0,1.027223396E1,5.688066483E-1,1.055957605E1
4.428640170E0,-2.166718006E0,9.705951691E0,3.802427948E-1,9.952122875E0
4.433437826E0,-1.946869254E0,9.274099350E0,2.571522295E-1,9.479733431E0
4.438235482E0,-1.629811049E0,9.026667595E0,2.782464921E-1,9.176842215E0
4.443033190E0,-1.381185055E0,8.786555290E0,3.733862340E-1,8.902283039E0
4.447830847E0,-1.085065961E0,8.391180038E0,5.533165932E-1,8.479117279E0
4.452628503E0,-8.595072031E-1,7.943438053E0,7.403964996E-1,8.024035625E0
4.457426159E0,-8.501949906E-1,7.495950699E0,7.475916147E-1,7.580963107E0
4.462223815E0,-8.984392881E-1,6.926842690E0,6.295424700E-1,7.013178061E0
4.467021472E0,-8.627030253E-1,6.248197556E0,4.602757096E-1,6.324245641E0
4.471819128E0,-7.545018792E-1,5.486423969E0,3.022717237E-1,5.546304107E0
4.476616784E0,-6.235114932E-1,4.529292107E0,3.420272470E-1,4.584783114E0
4.481414440E0,-3.454004526E-1,3.341149330E0,5.385577083E-1,3.401856070E0
4.486212097E0,-1.112509966E-1,1.833815575E0,5.090101361E-1,1.906396513E0
4.491009753E0,-1.302607059E-1,-1.046199799E-1,-1.167544872E-1,2.038254203E-1
4.495807461E0,-6.100261807E-1,-2.810473442E0,-1.235745788E0,3.130169414E0
4.500605117E0,-1.487240314E0,-6.524207115E0,-1.268175483E0,6.810685082E0
4.505402774E0,-1.253525853E0,-1.244733810E1,2.021606445E0,1.267258638E1
4.510200430E0,5.782650113E-1,-2.323589325E1,6.720577717E0,2.419519147E1
4.514998086E0,2.908973455E0,-3.552919769E1,9.418190002E0,3.687123972E1
4.519795742E0,5.727855206E0,-4.755678558E1,7.149415016E0,4.843108831E1
4.524593399E0,9.386617661E0,-5.084079742E1,7.755746841E-1,5.170586804E1
4.529391055E0,9.433334351E0,-4.056654739E1,-4.998446465E0,4.194778935E1
4.534188711E0,7.845876694E0,-2.722756958E1,-6.917946339E0,2.916772716E1
4.538986367E0,6.572058201E0,-1.801800156E1,-6.932242870E0,2.039353624E1
4.543784024E0,5.319898129E0,-1.237105656E1,-5.904418945E0,1.470396271E1
4.548581732E0,4.299126625E0,-9.301576614E0,-4.387218475E0,1.114672612E1
4.553379388E0,3.633529902E0,-8.033854485E0,-2.915154457E0,9.286736937E0
4.558177045E0,3.395877361E0,-6.328121185E0,-3.586409330E0,8.027417559E0
4.562974701E0,3.222966909E0,-7.866392136E0,-1.292807341E0,8.598778503E0
4.567772357E0,2.398911953E0,-1.250391006E1,3.890418768E0,1.331307266E1
4.572570013E0,1.152851582E0,-1.536894989E1,5.121574879E0,1.624081946E1
4.577367670E0,1.730509996E-1,-1.810297775E1,6.759045601E0,1.932440032E1
4.582165326E0,9.738910198E-2,-1.988556290E1,9.712266922E0,2.213082071E1
4.586962982E0,-8.126101494E-1,-1.864022064E1,9.174738884E0,2.079168089E1
4.591760638E0,5.611792803E-1,-1.949962997E1,1.380903244E1,2.390062485E1
4.596558347E0,1.506597757E0,-2.351394272E1,1.350463676E1,2.715788197E1
4.601356003E0,2.114307880E0,-2.278772354E1,1.011066341E1,2.501951552E1
4.606153659E0,2.373283863E0,-1.958187103E1,6.557042122E0,2.078646076E1
4.610951315E0,2.349741459E0,-1.716075897E1,4.512315273E0,1.789899222E1
4.615748972E0,2.077210903E0,-1.564464760E1,2.131062031E0,1.592517595E1
4.620546628E0,2.055257320E0,-1.422403622E1,1.361615658E-1,1.437239816E1
4.625344284E0,2.199288368E0,-1.310398388E1,-5.511201620E-1,1.329868400E1
4.630141940E0,2.641754627E0,-1.242034531E1,-8.911883831E-1,1.272941718E1
4.634939597E0,3.284114122E0,-1.229015350E1,-6.603096724E-1,1.273849628E1
4.639737253E0,4.353466511E0,-1.162625408E1,-1.052799940E0,1.245916700E1
4.644534961E0,4.578660965E0,-1.233691788E1,1.870882154E0,1.329149649E1
4.649332617E0,4.278213978E0,-1.279773998E1,2.796238422E0,1.378057375E1
4.654130274E0,4.233814716E0,-1.118821526E1,1.275708914E0,1.203032755E1
4.658927930E0,4.221294880E0,-9.595079422E0,7.640178800E-1,1.051040451E1
4.663725586E0,3.974644423E0,-8.307748795E0,1.132340193E0,9.278937581E0
4.668523242E0,3.541457653E0,-9.680283546E0,1.284257174E0,1.038745052E1
4.673320899E0,2.715703964E0,-8.827136040E0,1.353739619E0,9.334130363E0
4.678118555E0,2.472685099E0,-6.800304413E0,-3.813166618E-1,7.245944666E0
4.682916211E0,1.821463585E0,-6.591078758E0,4.817421436E-1,6.855080181E0
4.687713867E0,1.425805330E0,-4.473671913E0,-3.329827785E-1,4.707179491E0
4.692511524E0,1.314123392E0,-1.704820633E0,-5.380850434E-1,2.218753973E0
4.697309232E0,1.116743326E0,-1.363385201E0,-1.855963841E-2,1.762463992E0
4.702106888E0,7.161216736E-1,-9.848642349E-1,-1.821933091E-1,1.231252295E0
4.706904545E0,7.054656744E-2,-1.762053490E0,-8.670809865E-1,1.965105279E0
4.711702201E0,-6.270843744E-1,-6.608009338E-1,-1.414747953E0,1.682677764E0
4.716499857E0,-1.393165708E0,1.719246864E0,-1.078353047E0,2.461618525E0
4.721297513E0,-1.284009337E0,1.657924652E0,-1.370156169E0,2.504939532E0
4.726095170E0,-1.304338455E0,1.779986382E0,-1.180733919E0,2.502755064E0
4.730892826E0,-2.026163101E0,3.514674664E0,2.045490265E0,4.543380385E0
4.735690482E0,-1.730988741E0,4.439075470E0,-6.309769750E-1,4.806229811E0
4.740488138E0,-1.553842545E0,5.335518837E0,-6.058091521E-1,5.590097731E0
4.745285847E0,-1.336462855E0,6.239930630E0,-9.798641801E-1,6.456237375E0
4.750083503E0,-1.201363683E0,6.691056252E0,-1.018800020E0,6.873969882E0
4.754881159E0,-1.116156459E0,7.647806168E0,-4.266914725E-1,7.740594940E0
4.759678815E0,-1.163080335E0,8.700947762E0,9.736788273E-2,8.778879673E0
4.764476472E0,-1.218985796E0,9.709440231E0,4.166603088E-1,9.794527135E0
4.769274128E0,-1.211674809E0,1.052760696E1,7.462759614E-1,1.062335126E1
4.774071784E0,-1.293686628E0,1.131589031E1,1.131073475E0,1.144562475E1
4.778869440E0,-1.418649197E0,1.208634472E1,1.458427668E0,1.225639855E1
4.783667097E0,-1.514152408E0,1.286776829E1,1.665829778E0,1.306319666E1
4.788464753E0,-1.522520900E0,1.361238384E1,1.839562178E0,1.382024069E1
4.793262409E0,-1.468012094E0,1.425338554E1,1.924473524E0,1.445744297E1
4.798060065E0,-1.279821515E0,1.474554348E1,1.953956723E0,1.492939860E1
4.802857774E0,-1.045585752E0,1.505567074E1,2.001667261E0,1.522409744E1
4.807655430E0,-7.621741295E-1,1.528684235E1,2.188945293E0,1.546156330E1
4.812453086E0,-6.150741577E-1,1.543690300E1,2.402454138E0,1.563483535E1
4.817250742E0,-5.813513994E-1,1.558494091E1,2.486063004E0,1.579268381E1
4.822048399E0,-5.946227312E-1,1.560676384E1,2.628215790E0,1.583768203E1
4.826846055E0,-6.888214350E-1,1.565082550E1,2.823103666E0,1.591831424E1
4.831643711E0,-8.926194906E-1,1.564789677E1,2.907259464E0,1.594069008E1
4.836441367E0,-1.291677237E0,1.573192978E1,2.801206112E0,1.603149401E1
4.841239024E0,-1.667529702E0,1.577854347E1,2.848917007E0,1.612015563E1
4.846036680E0,-2.059726954E0,1.580199528E1,2.866582394E0,1.619144294E1
4.850834336E0,-2.411128283E0,1.589307785E1,2.677641869E0,1.629641768E1
4.855632045E0,-2.996541739E0,1.658209991E1,2.718504667E0,1.706855494E1
4.860429701E0,-3.335873127E0,1.678063202E1,2.300727129E0,1.726299527E1
4.865227357E0,-3.616383553E0,1.662540817E1,2.095462322E0,1.714273576E1
4.870025013E0,-3.738601685E0,1.632469749E1,1.881902695E0,1.685272822E1
4.874822670E0,-3.770681381E0,1.587385941E1,1.644881010E0,1.639826467E1
4.879620326E0,-3.838995934E0,1.504368401E1,1.354042411E0,1.558472807E1
4.884417982E0,-3.855560303E0,1.395417404E1,1.169668674E0,1.452420198E1
4.889215638E0,-3.938065767E0,1.288046265E1,1.060892582E0,1.351074288E1
4.894013295E0,-3.981701851E0,1.185120964E1,1.046907663E0,1.254596091E1
4.898811003E0,-3.946092129E0,1.093325806E1,1.037160754E0,1.166976766E1
4.903608659E0,-3.710067272E0,9.975926399E0,1.036096692E0,1.069379273E1
4.908406315E0,-3.773605347E0,9.113142014E0,1.105442286E0,9.925293815E0
4.913203972E0,-3.603718519E0,8.313734055E0,1.165927410E0,9.135882433E0
4.918001628E0,-3.392321110E0,7.658905983E0,1.250419617E0,8.469370259E0
4.922799284E0,-3.044837475E0,6.976377487E0,1.320026875E0,7.725499922E0
4.927596940E0,-2.818261623E0,6.454937935E0,1.273684263E0,7.157589952E0
4.932394597E0,-2.531906605E0,6.041730404E0,1.240238428E0,6.667176965E0
4.937192253E0,-2.190527201E0,5.963702202E0,1.089923143E0,6.446090740E0
4.941989909E0,-1.884139061E0,6.237216949E0,8.490911722E-1,6.570678130E0
4.946787565E0,-1.586799622E0,6.269097328E0,6.062463522E-1,6.495155809E0
4.951585274E0,-1.336633563E0,6.511258125E0,3.859057724E-1,6.658227611E0
4.956382930E0,-9.990743995E-1,6.982513428E0,1.269704998E-1,7.054768950E0
4.961180586E0,-5.124105215E-1,7.221220016E0,-5.917340517E-2,7.239619089E0
4.965978242E0,1.266450882E-1,7.237109661E0,-3.132678866E-1,7.244993581E0
4.970775899E0,6.846008897E-1,7.216763496E0,-6.231412888E-1,7.275895739E0
4.975573555E0,1.148697615E0,7.437414646E0,-8.814927936E-1,7.577049054E0
4.980371211E0,1.681017876E0,7.807952404E0,-9.934171438E-1,8.048404778E0
4.985168867E0,2.212297440E0,7.902854919E0,-9.576200843E-1,8.262349065E0
4.989966524E0,2.588028669E0,7.818148613E0,-8.731517792E-1,8.281529699E0
4.994764232E0,2.880810261E0,7.867201805E0,-7.485277057E-1,8.411434225E0
4.999561888E0,3.051081419E0,7.889801979E0,-5.875078440E-1,8.479577735E0
5.004359545E0,3.083247900E0,7.747408867E0,-4.439580142E-1,8.350201224E0
5.009157201E0,3.138011932E0,7.373269081E0,-2.755444646E-1,8.017988562E0
5.013954857E0,3.198339462E0,6.755591393E0,-2.996826172E-2,7.474509246E0
5.018752513E0,3.225060225E0,5.827556610E0,2.193105668E-1,6.664047315E0
5.023550170E0,3.188688517E0,4.527238846E0,3.023625612E-1,5.545723500E0
5.028347826E0,3.053275824E0,3.125097275E0,4.658918381E-1,4.393834480E0
5.033145482E0,2.931641102E0,1.724102497E0,9.447212219E-1,3.529808374E0
5.037943138E0,2.955724239E0,1.930150986E-1,1.397914171E0,3.275320540E0
5.042740847E0,3.226354122E0,-1.673204422E0,1.418489218E0,3.901420975E0
5.047538503E0,3.803339958E0,-4.124753952E0,1.379884720E0,5.777808567E0
5.052336159E0,4.513328552E0,-7.031875610E0,2.775202274E0,8.804496401E0
5.057133815E0,4.755886078E0,-1.085548496E1,5.326067924E0,1.299334467E1
5.061931472E0,4.996139050E0,-1.905998611E1,7.362557411E0,2.103453655E1
5.066729128E0,6.358639717E0,-3.878413010E1,8.458146095E0,4.020175720E1
5.071526784E0,7.735218525E0,-5.348426437E1,6.088449955E0,5.438262006E1
5.076324440E0,6.177803993E0,-5.530623627E1,4.184135914E0,5.580727574E1
5.081122097E0,2.533211470E0,-4.795157242E1,5.564686060E-1,4.802166298E1
5.085919805E0,6.181915998E-1,-3.650074005E1,-3.128349304E0,3.663977012E1
5.090717461E0,1.280966401E-1,-2.636851692E1,-4.480298996E0,2.674674134E1
5.095515117E0,-4.310968220E-1,-1.966108513E1,-3.871081352E0,2.004318796E1
5.100312774E0,-9.894913435E-1,-1.526425171E1,-2.261706829E0,1.546259329E1
5.105110430E0,-1.296234488E0,-1.262168598E1,1.687164307E-1,1.268919407E1
5.109908086E0,-1.550601959E0,-1.203946114E1,3.321019650E0,1.258499751E1
5.114705742E0,-1.495393515E0,-1.213850975E1,6.892135143E0,1.403855931E1
5.119503399E0,-8.769848347E-1,-1.283910847E1,9.440123558E0,1.596019240E1
5.124301055E0,3.951849937E-1,-1.432003689E1,1.098689651E1,1.805357368E1
5.129098763E0,1.755411029E0,-1.636818695E1,1.190482521E1,2.031560669E1
5.133896420E0,2.768764019E0,-1.721752548E1,1.267899513E1,2.156075498E1
5.138694076E0,3.237847805E0,-1.928230286E1,1.156179714E1,2.271488532E1
5.143491732E0,4.150886059E0,-1.878450394E1,8.574842453E0,2.106217857E1
5.148289388E0,5.143456936E0,-1.778764153E1,5.855577469E0,1.942017322E1
5.153087045E0,5.989593506E0,-1.662949562E1,3.191697836E0,1.796113276E1
5.157884701E0,6.825108528E0,-1.575518417E1,2.323159933E0,1.732642510E1
5.162682357E0,7.127831936E0,-1.554449368E1,8.321326971E-2,1.710099986E1
5.167480013E0,6.922331810E0,-1.501670933E1,-6.509930491E-1,1.654823340E1
5.172277722E0,6.773358822E0,-1.474051952E1,-1.880854607E0,1.633091913E1
5.177075378E0,6.801823616E0,-1.500208092E1,-1.987031698E0,1.659142945E1
5.181873034E0,7.517076492E0,-1.403659439E1,-2.092404842E0,1.605959461E1
5.186670690E0,8.210886955E0,-1.307631493E1,-2.253038645E0,1.560400140E1
5.191468347E0,7.693607330E0,-1.239427567E1,-2.566351891E0,1.481201624E1
5.196266003E0,6.940948963E0,-1.116860485E1,-2.084240913E0,1.331384869E1
5.201063659E0,5.876055241E0,-9.670398712E0,-1.350118279E0,1.139594032E1
5.205861315E0,4.757696152E0,-8.065114021E0,-8.623446226E-1,9.403476756E0
5.210658972E0,3.808145046E0,-6.446203232E0,-7.531186342E-1,7.524805145E0
5.215456628E0,2.847699642E0,-4.894944191E0,-5.948767662E-1,5.694185653E0
5.220254284E0,1.871723652E0,-3.456542969E0,-4.233167171E-1,3.953509298E0
5.225051992E0,9.143173099E-1,-1.922713280E0,-2.571870387E-1,2.144515720E0
5.229849649E0,-6.017714739E-2,-5.203666687E-1,-1.793431044E-1,5.536846648E-1
5.234647305E0,-9.297704697E-1,6.433572769E-1,-2.647230625E-1,1.161232109E0
5.239444961E0,-1.643000007E0,1.673988342E0,-4.911919236E-1,2.396446431E0
5.244242617E0,-2.122789860E0,2.511943817E0,-7.001586556E-1,3.362487275E0
5.249040274E0,-2.442413330E0,3.319932938E0,-9.167526960E-1,4.222294766E0
5.253837930E0,-2.712581158E0,4.241425514E0,-9.876511097E-1,5.130618057E0
5.258635586E0,-2.940358400E0,5.262017250E0,-1.010671973E0,6.111954753E0
5.263433295E0,-3.180388927E0,6.221571445E0,-9.667196274E-1,7.053890545E0
5.268230951E0,-3.415480614E0,7.067698002E0,-9.587239027E-1,7.908034799E0
5.273028607E0,-3.585976362E0,7.771885872E0,-8.023240566E-1,8.596811058E0
5.277826263E0,-3.747358561E0,8.413216591E0,-5.838097334E-1,9.228528777E0
5.282623920E0,-3.868755102E0,9.070655823E0,-3.652971983E-1,9.868004111E0
5.287421576E0,-3.976195812E0,9.703561783E0,-1.128834486E-1,1.048722971E1
5.292219232E0,-4.006962776E0,1.040755463E1,1.477029324E-1,1.115323989E1
5.297016888E0,-3.967724562E0,1.116582203E1,2.997487187E-1,1.185361840E1
5.301814545E0,-3.855815887E0,1.178707409E1,5.232661963E-1,1.241274503E1
5.306612253E0,-3.688036680E0,1.240049839E1,8.137197495E-1,1.296287448E1
5.311409909E0,-3.459969044E0,1.301801586E1,1.104288220E0,1.351516094E1
5.316207565E0,-3.171653509E0,1.364198589E1,1.395178914E0,1.407514438E1
5.321005222E0,-3.047441006E0,1.430830956E1,1.643083930E0,1.472122087E1
5.325802878E0,-2.919624805E0,1.494287777E1,1.910049200E0,1.534477413E1
5.330600534E0,-2.732923746E0,1.566287613E1,2.317769527E0,1.606756411E1
5.335398190E0,-2.575338364E0,1.625078583E1,2.648396015E0,1.666536556E1
5.340195847E0,-2.494626045E0,1.685504150E1,2.932268143E0,1.728912316E1
5.344993503E0,-2.290242195E0,1.721269226E1,3.038168669E0,1.762817214E1
5.349791211E0,-2.072444916E0,1.737181091E1,3.112170696E0,1.776964965E1
5.354588867E0,-1.905907869E0,1.751899338E1,3.271658182E0,1.792348630E1
5.359386524E0,-1.845108271E0,1.751328468E1,3.423290253E0,1.793985733E1
5.364184180E0,-1.881970644E0,1.749588203E1,3.476654053E0,1.793696811E1
5.368981836E0,-1.968084097E0,1.737361526E1,3.400957108E0,1.781242184E1
5.373779492E0,-1.988130212E0,1.724226952E1,3.346762180E0,1.767623650E1
5.378577149E0,-2.025108576E0,1.664542580E1,3.039560080E0,1.704142571E1
5.383374805E0,-1.935399055E0,1.572696400E1,2.796143293E0,1.609041899E1
5.388172461E0,-1.841180086E0,1.481216431E1,2.517233849E0,1.513692907E1
5.392970170E0,-1.840593576E0,1.398219490E1,2.229933739E0,1.427803080E1
5.397767826E0,-1.847400188E0,1.317714119E1,1.978110313E0,1.345224360E1
5.402565482E0,-1.851846695E0,1.238743401E1,1.737990141E0,1.264509657E1
5.407363138E0,-1.853774309E0,1.157486343E1,1.564426184E0,1.182630001E1
5.412160795E0,-1.807617903E0,1.075148010E1,1.404337645E0,1.099245064E1
5.416958451E0,-1.698873520E0,9.915020943E0,1.397874117E0,1.015617367E1
5.421756107E0,-1.508649826E0,9.051238060E0,1.395701647E0,9.281644133E0
5.426553763E0,-1.289942503E0,8.179361343E0,1.410884380E0,8.399791568E0
5.431351420E0,-1.069674492E0,7.308966637E0,1.382681608E0,7.515118445E0
5.436149076E0,-9.055818319E-1,6.456803322E0,1.341244936E0,6.656525037E0
5.440946784E0,-7.097575665E-1,5.720788002E0,1.221427798E0,5.892627346E0
5.445744440E0,-5.499233007E-1,5.076776028E0,1.039780617E0,5.211258409E0
5.450542097E0,-3.600590825E-1,4.531667709E0,8.060841560E-1,4.616863268E0
5.455339753E0,-2.127986550E-1,4.121003628E0,5.496127009E-1,4.162935057E0
5.460137409E0,-1.373096704E-1,3.858776093E0,2.405038774E-1,3.868701202E0
5.464935065E0,-6.458783150E-2,3.747040272E0,-5.062341690E-2,3.747938782E0
5.469732722E0,-8.298659325E-2,3.778346539E0,-3.486484289E-1,3.795305662E0
5.474530378E0,-1.489322186E-1,3.990725994E0,-6.186484098E-1,4.041138530E0
5.479328086E0,-2.142993212E-1,4.333735943E0,-8.925333023E-1,4.429876648E0
5.484125742E0,-2.052485943E-1,4.792821407E0,-1.171130896E0,4.938097974E0
5.488923399E0,-2.474164963E-2,5.026010990E0,-1.369716048E0,5.209368549E0
5.493721055E0,9.215855598E-2,5.294043064E0,-1.652985334E0,5.546868096E0
5.498518711E0,1.478633881E-1,5.685308456E0,-1.841165185E0,5.977832807E0
5.503316367E0,9.259617329E-2,6.187737465E0,-1.895631313E0,6.472255176E0
5.508114024E0,4.869103432E-2,6.760601044E0,-1.876216531E0,7.016287178E0
5.512911680E0,-4.095208645E-2,7.298686981E0,-1.788166881E0,7.514655649E0
5.517709336E0,-1.308948994E-1,7.785308838E0,-1.630047321E0,7.955200905E0
5.522507045E0,-2.261880636E-1,8.232462883E0,-1.317540646E0,8.340294930E0
5.527304701E0,-3.413842916E-1,8.590014458E0,-8.983542919E-1,8.643606426E0
5.532102357E0,-4.862228632E-1,8.956100464E0,-2.633548677E-1,8.973154628E0
5.536900013E0,-6.105958819E-1,9.316453934E0,6.266199350E-1,9.357445900E0
5.541697670E0,-9.148126841E-1,9.673624039E0,1.543209553E0,9.838565953E0
5.546495326E0,-1.421073675E0,1.002068615E1,2.347936869E0,1.038972612E1
5.551292982E0,-2.164827585E0,1.010468292E1,2.951293230E0,1.074714972E1
5.556090638E0,-3.020650148E0,9.364722252E0,3.182706118E0,1.034175848E1
5.560888295E0,-3.434320927E0,8.170068741E0,3.384484529E0,9.486797088E0
5.565686003E0,-3.786565065E0,7.109456539E0,3.494741917E0,8.780413905E0
5.570483659E0,-4.079983711E0,5.929740906E0,3.686924696E0,8.087119883E0
5.575281315E0,-3.988025904E0,4.509439945E0,3.870147228E0,7.156635997E0
5.580078972E0,-3.629602432E0,2.865694523E0,3.586791754E0,5.852460508E0
5.584876628E0,-3.018318653E0,8.649692535E-1,2.982039690E0,4.330240180E0
5.589674284E0,-2.130181789E0,-1.951330185E0,2.282454014E0,3.681706163E0
5.594471940E0,-8.836164474E-1,-5.558885574E0,7.025039196E-1,5.672345072E0
5.599269597E0,4.398289919E-1,-1.028992081E1,-1.709661007E0,1.044025194E1
5.604067305E0,1.803159237E0,-1.987999344E1,9.426944256E-1,1.998384836E1
5.608864961E0,4.634804249E0,-3.821414185E1,3.541023493E0,3.865670569E1
5.613662617E0,8.323974609E0,-4.943692017E1,4.011662483E0,5.029305185E1
5.618460274E0,9.569757462E0,-5.067497253E1,-5.742191076E-1,5.157385798E1
5.623257930E0,7.831723213E0,-4.105291367E1,-6.218609333E0,4.225338698E1
5.628055586E0,5.763128281E0,-3.018409538E1,-9.476393700E0,3.215735218E1
5.632853242E0,4.413589001E0,-2.156810760E1,-9.065258026E0,2.380844255E1
5.637650899E0,2.671451092E0,-1.960109711E1,-5.278402328E0,2.047440328E1
5.642448607E0,1.204376578E0,-1.814367676E1,-1.188675642E0,1.822241694E1
5.647246263E0,7.427890301E-1,-1.641937256E1,-3.413097858E-1,1.643970873E1
5.652043920E0,4.860827923E-1,-1.837233162E1,4.261619568E0,1.886637875E1
5.656841576E0,2.648445368E-1,-2.015911865E1,6.876462936E0,2.130131334E1
5.661639232E0,7.279689312E-1,-2.074396896E1,9.359237671E0,2.276922302E1
5.666436888E0,1.632899761E0,-2.046292114E1,1.048011208E1,2.304843275E1
5.671234545E0,2.693399429E0,-1.959674072E1,1.066823769E1,2.247438415E1
5.676032201E0,3.560915947E0,-1.821800423E1,1.052676773E1,2.133983691E1
5.680829909E0,3.987172604E0,-1.676737976E1,8.926357269E0,1.940933856E1
5.685627565E0,4.307373524E0,-1.523347759E1,6.460046291E0,1.709808481E1
5.690425222E0,4.633526802E0,-1.492862320E1,3.779807806E0,1.608167617E1
5.695222878E0,5.313796997E0,-1.395836067E1,1.031251907E0,1.497116401E1
5.700020534E0,5.628756523E0,-1.306847000E1,-5.379560590E-1,1.423928386E1
5.704818190E0,5.867154598E0,-1.242341518E1,-2.473740578E0,1.396009099E1
5.709615847E0,5.774348736E0,-1.171464634E1,-2.863962650E0,1.337080118E1
5.714413503E0,5.114972115E0,-1.286346340E1,-1.933250427E0,1.397744925E1
5.719211211E0,5.275852680E0,-1.208520126E1,-4.838427544E0,1.404624833E1
5.724008867E0,6.381527901E0,-1.160221577E1,-5.243794918E0,1.424193436E1
5.728806524E0,4.876017570E0,-1.180730820E1,-3.238353729E0,1.317858145E1
5.733604180E0,3.317258358E0,-1.175644398E1,-1.852002025E0,1.235508355E1
5.738401836E0,2.082167625E0,-1.099398613E1,-1.114569426E0,1.124479515E1
5.743199492E0,1.450103164E0,-9.826953888E0,-1.206161499E0,1.000633037E1
5.747997149E0,9.486389160E-1,-8.643211365E0,-1.051567197E0,8.758470874E0
5.752794805E0,5.459566116E-1,-7.055637360E0,-6.317173839E-1,7.104868333E0
5.757592461E0,3.352415562E-2,-5.999088287E0,-1.842759550E-1,6.002011478E0
5.762390170E0,-4.184628725E-1,-5.195510864E0,-1.357597560E-1,5.214103473E0
5.767187826E0,-9.323439598E-1,-4.362563133E0,-9.223166108E-2,4.462031940E0
5.771985482E0,-1.451491594E0,-3.134626389E0,-4.563704133E-1,3.484391539E0
5.776783138E0,-2.005940199E0,-2.073811531E0,-8.658531904E-1,3.012339970E0
5.781580795E0,-2.422395229E0,-9.839620590E-1,-1.320121884E0,2.928976232E0
5.786378451E0,-2.692388773E0,2.089462280E-1,-1.373510957E0,3.029710907E0
5.791176107E0,-2.919675589E0,1.335123062E0,-1.358818412E0,3.486179371E0
5.795973763E0,-3.071117878E0,2.416210651E0,-1.182812214E0,4.082754421E0
5.800771472E0,-3.118502140E0,3.392511368E0,-1.117406726E0,4.741601709E0
5.805569128E0,-3.097778320E0,4.369291306E0,-8.340676427E-1,5.420572467E0
5.810366784E0,-3.123447895E0,5.246211052E0,-4.691091180E-1,6.123619887E0
5.815164440E0,-3.180653095E0,5.997174263E0,-1.566965580E-1,6.790228793E0
5.819962097E0,-3.092178345E0,6.784816742E0,2.756744623E-2,7.456276893E0
5.824759753E0,-3.230118990E0,7.568594933E0,5.515584350E-1,8.247515665E0
5.829557409E0,-3.189260483E0,8.432248116E0,8.700633049E-1,9.057107754E0
5.834355065E0,-3.277167320E0,9.151151657E0,1.131261110E0,9.785865010E0
5.839152774E0,-3.335157156E0,9.947835922E0,1.320815086E0,1.057484115E1
5.843950430E0,-3.395945549E0,1.073627186E1,1.505649090E0,1.136076400E1
5.848748086E0,-3.396502495E0,1.151661682E1,1.690268278E0,1.212541542E1
5.853545742E0,-3.317188025E0,1.226749992E1,1.795497179E0,1.283429394E1
5.858343399E0,-3.121566772E0,1.307749748E1,1.960041523E0,1.358701153E1
5.863141055E0,-2.854989052E0,1.379359818E1,2.200964451E0,1.425687755E1
5.867938711E0,-2.560526371E0,1.454267502E1,2.560675859E0,1.498675258E1
5.872736367E0,-2.209805965E0,1.522200966E1,2.803997517E0,1.563506388E1
5.877534076E0,-2.049438715E0,1.579597092E1,3.147207737E0,1.623631155E1
5.882331732E0,-1.845559120E0,1.622176933E1,3.337959766E0,1.666414907E1
5.887129388E0,-1.794423461E0,1.645420265E1,3.500372648E0,1.691784115E1
5.891927045E0,-1.895631433E0,1.673491096E1,3.639288425E0,1.723064374E1
5.896724701E0,-2.114769220E0,1.688943481E1,3.886492252E0,1.745938370E1
5.901522357E0,-2.341085911E0,1.699446487E1,4.127344131E0,1.764447475E1
5.906320013E0,-2.545312881E0,1.693540955E1,4.232730865E0,1.764093888E1
5.911117670E0,-2.705695152E0,1.683671188E1,4.117152214E0,1.754270776E1
5.915915378E0,-2.786453247E0,1.666962814E1,3.877161741E0,1.733993101E1
5.920713034E0,-2.830603123E0,1.647955322E1,3.434708595E0,1.707000913E1
5.925510690E0,-2.883552551E0,1.628550148E1,2.810174704E0,1.677586110E1
5.930308347E0,-2.894800663E0,1.627380180E1,2.179295778E0,1.667230716E1
5.935106003E0,-2.909162998E0,1.604986763E1,1.423849106E0,1.637341829E1
5.939903659E0,-2.728568077E0,1.530074501E1,8.487549424E-1,1.556529044E1
5.944701315E0,-2.454419374E0,1.439258194E1,5.547292829E-1,1.461089710E1
5.949498972E0,-2.250315428E0,1.335886097E1,4.797999859E-1,1.355556321E1
5.954296680E0,-2.074086428E0,1.233824158E1,5.613072515E-1,1.252394129E1
5.959094336E0,-1.929037571E0,1.139271545E1,6.748362780E-1,1.157456502E1
5.963891992E0,-1.823381186E0,1.047187805E1,7.435816526E-1,1.065541471E1
5.968689649E0,-1.784272552E0,9.611464500E0,7.621666789E-1,9.805344279E0
5.973487305E0,-1.838384867E0,8.768350601E0,7.706463933E-1,8.992081352E0
5.978284961E0,-1.940735459E0,7.990263939E0,7.371913195E-1,8.255557097E0
5.983082617E0,-2.031858921E0,7.281870365E0,6.514134407E-1,7.588044950E0
5.987880274E0,-2.090422630E0,6.654994011E0,4.865561724E-1,6.992535232E0
5.992677930E0,-2.173473358E0,6.135836601E0,2.781691551E-1,6.515355348E0
5.997475638E0,-2.297221661E0,5.688426495E0,-1.183882356E-2,6.134783085E0
6.002273295E0,-2.417966366E0,5.334208965E0,-3.134108484E-1,5.865029667E0
6.007070951E0,-2.534868717E0,5.168727398E0,-6.628994346E-1,5.794888954E0
6.011868607E0,-2.585378170E0,5.003007412E0,-9.958758354E-1,5.718918790E0
6.016666263E0,-2.435910463E0,4.913548946E0,-1.358462691E0,5.649959639E0
6.021463920E0,-2.306166410E0,4.881260395E0,-1.766641617E0,5.680328262E0
6.026261576E0,-2.288520575E0,5.040093422E0,-2.214770079E0,5.961969022E0
6.031059284E0,-2.205570698E0,5.313472748E0,-2.604388475E0,6.315090979E0
6.035856940E0,-1.990612984E0,5.581833363E0,-2.963421345E0,6.625803333E0
6.040654597E0,-1.761474013E0,5.904922009E0,-3.234081030E0,6.959179171E0
6.045452253E0,-1.466218710E0,6.230053902E0,-3.370982885E0,7.233733098E0
6.050249909E0,-1.208275914E0,6.607343674E0,-3.272139072E0,7.471533659E0
6.055047565E0,-8.972000480E-1,7.039026260E0,-2.929651260E0,7.676960019E0
6.059845222E0,-6.387908459E-1,7.481870174E0,-2.259783983E0,7.841750997E0
6.064642878E0,-4.045267105E-1,7.871210098E0,-1.502196908E0,8.023477165E0
6.069440586E0,-2.685335875E-1,8.173544884E0,-8.029734492E-1,8.217281340E0
6.074238242E0,-1.805250645E-1,8.424714088E0,-1.600496769E-1,8.428167812E0
6.079035899E0,-1.115247011E-1,8.533864975E0,5.983543396E-1,8.555543062E0
6.083833555E0,-1.153364182E-1,8.513158798E0,1.601587176E0,8.663270554E0
6.088631211E0,-4.068342447E-1,8.499250412E0,2.401815891E0,8.841464316E0
6.093428867E0,-6.963837743E-1,8.079024315E0,2.481873512E0,8.480287753E0
6.098226524E0,-9.488983750E-1,6.930629730E0,1.775523901E0,7.217099258E0
6.103024180E0,-9.559249282E-1,5.406404018E0,1.239340782E0,5.628406742E0
6.107821888E0,-5.721273422E-1,3.877235889E0,1.512639523E0,4.200995854E0
6.112619545E0,2.587648630E-1,2.402801991E0,2.306606293E0,3.340785723E0
6.117417201E0,1.217781425E0,1.080924034E0,3.217516661E0,3.606078456E0
6.122214857E0,2.117457390E0,-1.508378983E-1,3.804078102E0,4.356304406E0
6.127012513E0,2.715374470E0,-1.125439644E0,3.558492661E0,4.615489456E0
6.131810170E0,3.230484724E0,-2.684573174E0,2.664033651E0,4.973936064E0
6.136607826E0,3.877242088E0,-4.971247673E0,2.440995455E0,6.760530190E0
6.141405482E0,4.245817184E0,-8.859813690E0,3.159629822E0,1.032019975E1
6.146203190E0,5.149183273E0,-2.111257553E1,4.707180977E0,2.223538816E1
6.151000847E0,6.985066891E0,-3.420966339E1,5.712253571E0,3.537968442E1
6.155798503E0,8.336778641E0,-4.210488892E1,6.229952812E0,4.337206314E1
6.160596159E0,7.189196110E0,-4.201434708E1,5.293143272E0,4.295238371E1
6.165393815E0,5.070663929E0,-3.731123352E1,3.504120827E0,3.781690948E1
6.170191472E0,4.078034401E0,-3.022871780E1,1.192454100E0,3.052585284E1
6.174989180E0,4.058085442E0,-2.401206970E1,1.641402245E-1,2.435312076E1
6.179786836E0,4.029128075E0,-2.017817116E1,1.588981867E0,2.063776460E1
6.184584492E0,3.508742809E0,-1.728276443E1,2.112091541E0,1.776136688E1
6.189382149E0,3.579159260E0,-1.673661041E1,5.394093037E0,1.794493658E1
6.194179805E0,3.516932249E0,-1.775534058E1,5.250667572E0,1.884649679E1
6.198977461E0,3.181276560E0,-1.786751938E1,5.764287472E0,1.904194789E1
6.203775117E0,3.501514912E0,-1.779044151E1,5.690557480E0,1.900375911E1
6.208572774E0,4.005752563E0,-1.788449478E1,6.372764587E0,1.940395155E1
6.213370482E0,4.642817497E0,-1.646102142E1,8.744955063E0,1.920924828E1
6.218168138E0,5.308768749E0,-1.672132111E1,4.932065010E0,1.822390931E1
6.222965795E0,5.247357368E0,-1.726732826E1,5.292707443E0,1.880712994E1
6.227763451E0,4.861786842E0,-1.704704857E1,5.097265720E0,1.844507940E1
6.232561107E0,5.309793472E0,-1.786565208E1,1.377974749E0,1.868888026E1
6.237358763E0,5.616170406E0,-1.772531509E1,-1.964855790E0,1.869729455E1
6.242156420E0,4.128881454E0,-1.687902069E1,1.469379663E0,1.743869485E1
6.246954128E0,3.115872383E0,-1.573457718E1,2.898170948E-1,1.604274209E1
6.251751784E0,2.943051338E0,-1.440427685E1,-1.727159500E0,1.480296668E1
6.256549440E0,2.908010960E0,-1.297401714E1,-2.357664347E0,1.350334143E1
6.261347097E0,2.930132389E0,-1.199931431E1,-1.740230441E0,1.247387757E1
6.266144753E0,3.079600811E0,-1.093079281E1,-5.507766008E-1,1.136967578E1
6.270942409E0,3.146140099E0,-1.041696262E1,4.023302794E-1,1.088913116E1
6.275740065E0,3.116813660E0,-1.019973660E1,1.038873076E0,1.071580194E1
6.280537774E0,3.117718697E0,-9.954602242E0,1.381331444E0,1.052246892E1
6.285335430E0,3.078054428E0,-9.610662460E0,1.419033289E0,1.019082467E1
6.290133086E0,3.084871292E0,-9.185260773E0,1.397784472E0,9.789752182E0
6.294930742E0,3.070381403E0,-8.492229462E0,1.107951164E0,9.097953560E0
6.299728399E0,2.758954048E0,-7.605936050E0,1.221106052E0,8.182492935E0
6.304526055E0,2.225230932E0,-6.545492172E0,1.232825518E0,7.022462477E0
6.309323711E0,1.630165696E0,-5.392086029E0,9.595219493E-1,5.714255359E0
6.314121367E0,1.050505042E0,-4.167143822E0,5.237523317E-1,4.329314608E0
6.318919076E0,5.935868025E-1,-2.875420570E0,9.088703990E-2,2.937456247E0
6.323716732E0,9.888899326E-2,-1.679415703E0,-2.287604511E-1,1.697806667E0
6.328514388E0,-3.739415407E-1,-6.123676300E-1,-4.705326855E-1,8.580369446E-1
6.333312045E0,-8.486663699E-1,4.526605606E-1,-4.980819821E-1,1.083153660E0
6.338109701E0,-1.332514882E0,1.453608513E0,-5.571933389E-1,2.049155445E0
6.342907357E0,-1.749230385E0,2.299773216E0,-6.112906933E-1,2.953377744E0
6.347705013E0,-2.118199110E0,3.051109791E0,-5.735825300E-1,3.758328797E0
6.352502722E0,-2.461062908E0,3.726870060E0,-5.010532141E-1,4.494156807E0
6.357300378E0,-2.751448631E0,4.506419182E0,-4.174696207E-1,5.296467152E0
6.362098034E0,-3.075680256E0,5.286847591E0,-2.772300243E-1,6.122697361E0
6.366895690E0,-3.397709370E0,5.924801826E0,-4.704138637E-2,6.830074563E0
6.371693347E0,-3.669279575E0,6.499412060E0,7.684144378E-2,7.464038741E0
6.376491003E0,-3.885530949E0,7.092067719E0,1.466870606E-1,8.088033900E0
6.381288659E0,-4.077634811E0,7.719514847E0,2.003743052E-1,8.732592112E0
6.386086315E0,-4.238295555E0,8.400904655E0,2.685616910E-1,9.413313637E0
6.390884024E0,-4.326858044E0,9.179226875E0,1.960055828E-1,1.014979432E1
6.395681680E0,-4.429695606E0,9.922948837E0,2.500883937E-1,1.086966701E1
6.400479336E0,-4.563503265E0,1.068239975E1,3.677134216E-1,1.162215297E1
6.405276992E0,-4.601609230E0,1.142658997E1,5.673037767E-1,1.233140703E1
6.410074649E0,-4.601826668E0,1.216038799E1,7.906830907E-1,1.302601338E1
6.414872305E0,-4.335004807E0,1.292448139E1,9.850512147E-1,1.366765568E1
6.419669961E0,-4.525912285E0,1.345837593E1,1.365366459E0,1.426450105E1
6.424467670E0,-4.612693310E0,1.424279022E1,1.663031340E0,1.506318977E1
6.429265326E0,-4.478593826E0,1.492855644E1,1.920753479E0,1.570378598E1
6.434062982E0,-4.604509354E0,1.569985008E1,2.224342346E0,1.651164734E1
6.438860638E0,-4.543410301E0,1.621719742E1,2.616952658E0,1.704372349E1
6.443658295E0,-4.522798538E0,1.674139023E1,3.084123850E0,1.761367859E1
6.448455951E0,-4.420654774E0,1.707404327E1,3.408665419E0,1.796341121E1
6.453253607E0,-4.303464890E0,1.721059036E1,3.866457701E0,1.815691950E1
6.458051315E0,-4.230181694E0,1.731378555E1,4.142742157E0,1.829819444E1
6.462848972E0,-4.310049057E0,1.735021591E1,4.207304955E0,1.836594484E1
6.467646628E0,-4.344184875E0,1.721245003E1,3.991024971E0,1.819529221E1
6.472444284E0,-4.382637978E0,1.705839539E1,3.439783573E0,1.794515199E1
6.477241940E0,-4.384799004E0,1.689518356E1,2.824423790E0,1.768194163E1
6.482039597E0,-4.260167122E0,1.662953949E1,2.111968517E0,1.729598273E1
6.486837253E0,-4.104508400E0,1.635942459E1,1.383067608E0,1.692308004E1
6.491634961E0,-3.905887604E0,1.600592232E1,1.006543040E0,1.650632110E1
6.496432617E0,-3.721878290E0,1.590377998E1,6.070816517E-2,1.633359364E1
6.501230274E0,-3.433277607E0,1.576823235E1,-5.644685030E-1,1.614754381E1
6.506027930E0,-2.997786999E0,1.540325546E1,-9.670737386E-1,1.572203032E1
6.510825586E0,-2.449857950E0,1.460348129E1,-1.072969437E0,1.484637105E1
6.515623242E0,-1.985897779E0,1.376370239E1,-9.465397596E-1,1.393840848E1
6.520420899E0,-1.651421905E0,1.291977501E1,-7.337077260E-1,1.304553976E1
6.525218607E0,-1.493913770E0,1.215296841E1,-5.157792568E-1,1.225530284E1
6.530016263E0,-1.481513500E0,1.141068649E1,-2.976104021E-1,1.151030931E1
6.534813920E0,-1.515140295E0,1.063327217E1,-1.079120338E-1,1.074121838E1
6.539611576E0,-1.562633038E0,9.840046883E0,1.222647727E-1,9.964100227E0
6.544409232E0,-1.606212616E0,9.050327301E0,3.132206798E-1,9.197089236E0
6.549206888E0,-1.618938804E0,8.154294968E0,4.308060408E-1,8.324607085E0
6.554004545E0,-1.605508327E0,7.259668350E0,5.602694750E-1,7.456161441E0
6.558802201E0,-1.568399072E0,6.435745716E0,6.817533374E-1,6.659090492E0
6.563599909E0,-1.521951318E0,5.682431221E0,7.923123240E-1,5.935833489E0
6.568397565E0,-1.494797707E0,4.997217655E0,9.227488637E-1,5.296986874E0
6.573195222E0,-1.455521226E0,4.537741184E0,1.056268692E0,4.881120839E0
6.577992878E0,-1.485080600E0,4.272639751E0,1.180820346E0,4.674960056E0
6.582790534E0,-1.544598818E0,4.129980087E0,1.224820614E0,4.576320199E0
6.587588190E0,-1.717041969E0,4.181317329E0,1.202788711E0,4.677429680E0
6.592385847E0,-1.868094206E0,4.388134480E0,1.229907632E0,4.925258669E0
6.597183503E0,-1.881170511E0,4.687949657E0,1.268287301E0,5.208092469E0
6.601981211E0,-1.707783341E0,4.829435825E0,1.282801867E0,5.280677510E0
6.606778867E0,-1.226544738E0,4.735917568E0,1.252342820E0,5.049919776E0
6.611576524E0,-6.291249990E-1,4.598499775E0,1.248337269E0,4.806281763E0
6.616374180E0,-3.918093443E-1,4.660912514E0,1.163696170E0,4.819938672E0
6.621171836E0,-4.795855284E-1,4.882482052E0,8.496527076E-1,4.979010242E0
6.625969492E0,-3.204703331E-1,4.907067299E0,4.178515077E-1,4.935241695E0
6.630767149E0,2.473176718E-1,4.615467548E0,2.851117849E-1,4.630874156E0
6.635564857E0,1.033663630E0,4.115559578E0,4.675428867E-1,4.269061664E0
6.640362513E0,1.810734391E0,3.567638874E0,7.991203666E-1,4.079877392E0
6.645160170E0,2.504365921E0,2.945473194E0,9.855481982E-1,3.989857924E0
6.649957826E0,2.930848122E0,2.375933647E0,8.485633135E-1,3.867168357E0
6.654755482E0,3.224782228E0,1.808907032E0,4.822893739E-1,3.728802504E0
6.659553138E0,3.479881287E0,1.144126892E0,6.257250309E-1,3.716198586E0
6.664350795E0,3.576940060E0,2.692708969E-1,1.431940317E0,3.862312789E0
6.669148503E0,3.742378235E0,-1.167149544E0,2.679886341E0,4.748623349E0
6.673946159E0,3.920830488E0,-4.374141693E0,3.764242172E0,6.976786252E0
6.678743815E0,6.262392044E0,-1.871667099E1,4.320410728E0,2.020389259E1
6.683541472E0,7.910456181E0,-3.194743156E1,2.127660751E0,3.298091328E1
6.688339128E0,7.984384537E0,-4.266392517E1,-1.389212251E0,4.342684444E1
6.693136784E0,5.826817989E0,-4.536819839E1,-2.223307133E0,4.579485045E1
6.697934440E0,3.323006392E0,-4.262462997E1,-8.039353490E-1,4.276152200E1
6.702732149E0,3.357248306E-1,-3.578696823E1,1.905919552E0,3.583925691E1
6.707529805E0,-1.623841286E0,-2.732309723E1,4.220870972E0,2.769484166E1
6.712327461E0,-2.231284618E0,-1.724917793E1,4.483485222E0,1.796147016E1
6.717125117E0,-1.725043654E0,-1.675845337E1,3.940503359E0,1.730170806E1
6.721922774E0,-1.396997213E0,-1.600426102E1,3.636226654E0,1.647149405E1
6.726720430E0,-5.622823238E-1,-1.412385941E1,2.457246542E0,1.434704243E1
6.731518138E0,5.030467510E-1,-1.290018559E1,1.901131272E0,1.304922006E1
6.736315795E0,1.793952346E0,-1.312392521E1,1.815349936E0,1.336978584E1
6.741113451E0,2.638057232E0,-1.428426266E1,1.769214511E0,1.463316868E1
6.745911107E0,2.758491516E0,-1.523496342E1,1.189334393E0,1.552829360E1
6.750708763E0,3.009931087E0,-1.602096939E1,1.536573887E0,1.637352145E1
6.755506420E0,3.218528509E0,-1.691200638E1,2.076875687E0,1.734036615E1
6.760304076E0,2.450798750E0,-1.691463089E1,1.532677531E0,1.715984420E1
6.765101784E0,1.525832057E0,-1.532884979E1,1.509136915E0,1.547834919E1
6.769899440E0,1.057382345E0,-1.387978554E1,1.613847733E0,1.401324404E1
6.774697097E0,8.191281557E-1,-1.231883812E1,5.801467896E-1,1.235966480E1
6.779494753E0,1.205478668E0,-1.076687241E1,-7.829742432E-1,1.086240162E1
6.784292409E0,2.357535362E0,-9.367023468E0,-2.722828388E0,1.003558150E1
6.789090065E0,3.193042040E0,-1.238232708E1,1.494189620E0,1.287439878E1
6.793887722E0,2.978501081E0,-1.429046345E1,3.500233412E0,1.501134398E1
6.798685430E0,2.451844215E0,-1.468397999E1,3.766342163E0,1.535630625E1
6.803483086E0,2.128539324E0,-1.590297604E1,8.551754951E0,1.818152467E1
6.808280742E0,3.128650188E0,-1.427602291E1,-4.565625191E0,1.531137536E1
6.813078399E0,3.241958141E0,-1.199597168E1,-6.930932045E0,1.422854343E1
6.817876055E0,3.185657740E0,-1.030973625E1,-2.975501299E0,1.119342150E1
6.822673711E0,3.124828815E0,-1.006999016E1,2.489485145E-1,1.054662184E1
6.827471420E0,2.001876831E0,-9.396084785E0,2.935564756E0,1.004546965E1
6.832269076E0,1.308330059E0,-7.888674736E0,2.735281467E0,8.451312403E0
6.837066732E0,9.193317890E-1,-6.372724533E0,2.893945217E0,7.059157728E0
6.841864388E0,4.620105028E-1,-5.375976562E0,2.447153091E0,5.924789951E0
6.846662045E0,1.385012865E-1,-4.668098450E0,1.980267763E0,5.072650802E0
6.851459701E0,-1.170785427E-1,-3.933075905E0,1.651520729E0,4.267354471E0
6.856257357E0,-2.822035551E-1,-3.020266533E0,1.423608780E0,3.350867162E0
6.861055013E0,-4.133723974E-1,-2.051725388E0,1.221460104E0,2.423307366E0
6.865852722E0,-5.402898192E-1,-1.048987389E0,9.004059434E-1,1.484256882E0
6.870650378E0,-6.873552799E-1,-2.488136292E-3,4.776296020E-1,8.370146404E-1
6.875448034E0,-7.523230910E-1,9.992952347E-1,2.705453336E-2,1.251124673E0
6.880245690E0,-7.524207830E-1,1.970735550E0,-3.590762019E-1,2.139829751E0
6.885043347E0,-7.025647163E-1,2.935701847E0,-6.803886294E-1,3.094328878E0
6.889841003E0,-6.651427746E-1,3.982571125E0,-9.011181593E-1,4.137064371E0
6.894638711E0,-6.211409569E-1,4.977361679E0,-1.000112653E0,5.114701427E0
6.899436367E0,-5.994116068E-1,5.814926147E0,-1.009049654E0,5.932186914E0
6.904234024E0,-6.048756838E-1,6.406979561E0,-8.443387151E-1,6.490621661E0
6.909031680E0,-6.615289450E-1,6.913882256E0,-6.182843447E-1,6.972923628E0
6.913829336E0,-7.379168272E-1,7.546024799E0,-3.864104152E-1,7.591859095E0
6.918626992E0,-8.049061298E-1,8.183756828E0,-1.710113883E-1,8.225022468E0
6.923424649E0,-9.075199366E-1,8.760162354E0,6.776368618E-2,8.807305423E0
6.928222357E0,-9.807413816E-1,9.354208946E0,3.029188514E-1,9.410358043E0
6.933020013E0,-1.057784200E0,9.963529587E0,5.072050691E-1,1.003235198E1
6.937817670E0,-1.073727250E0,1.055471992E1,7.442612052E-1,1.063526810E1
6.942615326E0,-1.138311625E0,1.120197678E1,9.080385566E-1,1.129621933E1
6.947412982E0,-1.191955447E0,1.185990524E1,1.021513939E0,1.196334405E1
6.952210638E0,-1.211081862E0,1.248078060E1,1.177139401E0,1.259453298E1
6.957008295E0,-1.207954407E0,1.311974525E1,1.383377194E0,1.324766401E1
6.961806003E0,-1.154506564E0,1.361437607E1,1.586758614E0,1.375506903E1
6.966603659E0,-1.137310624E0,1.416330719E1,1.762889862E0,1.431783946E1
6.971401315E0,-1.087831020E0,1.463265800E1,2.045634985E0,1.481494783E1
6.976198972E0,-9.494863153E-1,1.508003616E1,2.055912495E0,1.524912427E1
6.980996628E0,-9.310259223E-1,1.539096451E1,2.277359009E0,1.558637103E1
6.985794284E0,-9.249695539E-1,1.560159969E1,2.493721962E0,1.582669046E1
6.990591940E0,-1.079067588E0,1.589386940E1,2.708837986E0,1.615912357E1
6.995389649E0,-1.320926905E0,1.606458092E1,2.791272163E0,1.635869213E1
7.000187305E0,-1.606575608E0,1.623575211E1,2.923381090E0,1.657488729E1
7.004984961E0,-2.035297394E0,1.629973221E1,2.958310604E0,1.669057540E1
7.009782617E0,-2.545971155E0,1.644060516E1,2.849529266E0,1.687884132E1
7.014580274E0,-3.010696411E0,1.655058861E1,2.589565277E0,1.702034443E1
7.019377930E0,-3.452142239E0,1.654119492E1,2.352659225E0,1.706058090E1
7.024175586E0,-3.859647274E0,1.653437805E1,2.112017393E0,1.710973852E1
7.028973295E0,-4.148434162E0,1.634618378E1,1.887659788E0,1.696969327E1
7.033770951E0,-4.260107517E0,1.596967697E1,1.669378996E0,1.661222215E1
7.038568607E0,-4.024785995E0,1.515892792E1,1.523025036E0,1.575790605E1
7.043366263E0,-3.651163101E0,1.414858055E1,1.528742552E0,1.469184731E1
7.048163920E0,-3.314202547E0,1.323998642E1,1.732108235E0,1.375795689E1
7.052961576E0,-2.999771357E0,1.239957047E1,1.862882495E0,1.289256790E1
7.057759232E0,-2.758221865E0,1.157708836E1,1.906563401E0,1.205287296E1
7.062556940E0,-2.580120087E0,1.082033443E1,1.925111890E0,1.128905278E1
7.067354597E0,-2.367689133E0,1.009340000E1,1.903585196E0,1.054069789E1
7.072152253E0,-2.178558588E0,9.353269577E0,1.798169374E0,9.770526209E0
7.076949909E0,-2.043690920E0,8.664564133E0,1.662909269E0,9.056302304E0
7.081747565E0,-1.855358362E0,8.034454346E0,1.535189152E0,8.387587080E0
7.086545222E0,-1.618755937E0,7.417502403E0,1.325187564E0,7.706869323E0
7.091342930E0,-1.284252882E0,6.785019875E0,1.108237505E0,6.993853768E0
7.096140586E0,-1.079555988E0,6.211112499E0,8.328347206E-1,6.359007256E0
7.100938242E0,-8.953006268E-1,5.669367790E0,4.049458802E-1,5.753892206E0
7.105735899E0,-7.032940388E-1,5.212267876E0,-7.549083233E-2,5.260043515E0
7.110533555E0,-6.091659665E-1,4.892196655E0,-5.081167817E-1,4.956092609E0
7.115331211E0,-4.627992511E-1,4.725593090E0,-8.402652740E-1,4.821976662E0
7.120128867E0,-3.914248943E-1,4.771906853E0,-1.181881309E0,4.931647989E0
7.124926576E0,-3.285291195E-1,4.978178501E0,-1.520735502E0,5.215633139E0
7.129724232E0,-2.867662907E-1,5.358407974E0,-1.930512667E0,5.702775647E0
7.134521888E0,-1.811496615E-1,5.357774734E0,-2.222044945E0,5.803106844E0
7.139319545E0,-5.531609058E-3,5.270576000E0,-2.379026413E0,5.782626449E0
7.144117201E0,-1.543290019E-1,5.400379181E0,-2.358980656E0,5.895142278E0
7.148914857E0,-4.568450749E-1,5.565267563E0,-2.222278833E0,6.009944566E0
7.153712513E0,-8.194093704E-1,5.490297794E0,-1.986491799E0,5.895841861E0
7.158510222E0,-1.019978285E0,5.252088547E0,-1.571581960E0,5.576258572E0
7.163307878E0,-1.232979298E0,4.575849533E0,-8.974491358E-1,4.823282269E0
7.168105534E0,-1.222167373E0,3.574178219E0,-2.398078293E-1,3.784963781E0
7.172903190E0,-1.114537716E0,2.388212204E0,3.108490109E-1,2.653748096E0
7.177700847E0,-9.551420212E-1,1.056243896E0,9.142987132E-1,1.692303042E0
7.182498503E0,-8.052946925E-1,-3.737468719E-1,1.585495830E0,1.817136014E0
7.187296211E0,-6.043502092E-1,-1.679201126E0,2.461881161E0,3.040693087E0
7.192093867E0,-2.824172378E-1,-2.893387794E0,4.027280807E0,4.966934983E0
7.196891524E0,1.599875689E-1,-4.235970497E0,6.034950256E0,7.374935028E0
7.201689180E0,7.097944617E-1,-6.251271248E0,7.459808826E0,9.758634542E0
7.206486836E0,1.593948245E0,-1.125370979E1,7.847961426E0,1.381221031E1
7.211284492E0,3.382283688E0,-2.419919205E1,7.880260468E0,2.567370725E1
7.216082149E0,4.774371147E0,-3.161570549E1,6.959103107E0,3.272272253E1
7.220879857E0,5.989887238E0,-3.469939804E1,4.481348038E0,3.549661186E1
7.225677513E0,6.348444462E0,-3.252698898E1,1.926333070E0,3.319666427E1
7.230475170E0,6.144387245E0,-2.740258408E1,-2.797952294E-1,2.808439770E1
7.235272826E0,5.686156273E0,-2.261298752E1,-1.907677650E0,2.339484584E1
7.240070482E0,5.378067493E0,-1.966902924E1,-2.477874041E0,2.054103651E1
7.244868138E0,4.517382622E0,-1.878034592E1,-1.729190826E0,1.939325242E1
7.249665847E0,3.268259048E0,-1.868642044E1,-7.930803299E-2,1.897024290E1
7.254463503E0,2.354903698E0,-1.856264496E1,1.991024017E0,1.881705439E1
7.259261159E0,1.798154354E0,-1.858867836E1,3.988461494E0,1.909660041E1
7.264058815E0,1.197523832E0,-1.864965057E1,5.388324738E0,1.944935920E1
7.268856472E0,1.051228046E0,-1.958045578E1,7.422949791E0,2.096662855E1
7.273654128E0,1.147008538E0,-1.985160828E1,8.272114754E0,2.153670964E1
7.278451836E0,1.509300232E0,-2.002229118E1,8.712305069E0,2.188776807E1
7.283249492E0,1.859877944E0,-1.999202347E1,8.449784279E0,2.178391615E1
7.288047149E0,1.823555112E0,-1.934089279E1,7.312531471E0,2.075737468E1
7.292844805E0,1.430376887E0,-1.793388748E1,5.785439491E0,1.889819061E1
7.297642461E0,9.478617907E-1,-1.655611420E1,4.419939041E0,1.716214498E1
7.302440117E0,7.146794796E-1,-1.558048344E1,3.412071228E0,1.596572770E1
7.307237774E0,8.141770959E-1,-1.549405861E1,2.806455612E0,1.576721058E1
7.312035482E0,1.201575279E0,-1.539484310E1,2.434082031E0,1.563232972E1
7.316833138E0,1.650383711E0,-1.292943001E1,1.854909062E0,1.316566042E1
7.321630795E0,2.222114563E0,-4.058738708E0,5.818915367E-2,4.627584576E0
7.326428451E0,3.164645910E0,-1.434436703E1,3.177030325E0,1.502895109E1
7.331226107E0,3.281604528E0,-2.040169907E1,4.148613930E0,2.107627222E1
7.336023763E0,-9.337005019E-1,-1.717590141E1,2.966255665E0,1.745514419E1
7.340821472E0,3.357826233E0,-1.398416424E1,-7.612995505E-1,1.440178543E1
7.345619128E0,3.042474747E0,-1.064695263E1,-2.753362179E0,1.141031359E1
7.350416784E0,2.818445206E0,-9.355191231E0,-1.412352562E0,9.872080637E0
7.355214440E0,2.827997208E0,-7.427244186E0,-1.495585918E0,8.086921642E0
7.360012097E0,2.278903008E0,-5.869503021E0,-2.037062407E0,6.617710169E0
7.364809753E0,1.876271367E0,-4.496948242E0,-2.553732395E0,5.501316832E0
7.369607409E0,1.593611717E0,-3.110099792E0,-2.387518406E0,4.232323613E0
7.374405065E0,1.354293942E0,-1.738961220E0,-2.027074575E0,2.994516579E0
7.379202722E0,1.114795446E0,-4.523677826E-1,-1.751376748E0,2.124788463E0
7.384000430E0,8.378294706E-1,8.025693893E-1,-1.506469965E0,1.901454076E0
7.388798086E0,5.143222213E-1,2.023550034E0,-1.315544009E0,2.467779999E0
7.393595742E0,1.745463610E-1,3.189399719E0,-1.210542202E0,3.415867302E0
7.398393399E0,-1.761968434E-1,4.219213009E0,-9.464066029E-1,4.327642453E0
7.403191055E0,-4.263868928E-1,5.392850399E0,-1.174512267E0,5.535713168E0
7.407988711E0,-6.663967967E-1,6.373326302E0,-1.101615310E0,6.502071141E0
7.412786367E0,-9.760344028E-1,7.325976372E0,-1.011054516E0,7.459544503E0
7.417584076E0,-1.281851292E0,8.205453873E0,-9.888740778E-1,8.363640830E0
7.422381732E0,-1.587051392E0,9.090708733E0,-8.303888440E-1,9.265487737E0
7.427179388E0,-1.890465856E0,1.031165028E1,1.054750904E-1,1.048404109E1
7.431977045E0,-1.960585594E0,1.081400204E1,-8.884241581E-1,1.102614318E1
7.436774701E0,-1.968507528E0,1.137294579E1,-9.893258810E-1,1.158437238E1
7.441572357E0,-2.105240345E0,1.219397545E1,-7.475465536E-1,1.239693107E1
7.446370013E0,-2.212243080E0,1.277255058E1,-4.185857773E-1,1.296947500E1
7.451167722E0,-2.230105400E0,1.329057503E1,-4.698514938E-2,1.347645956E1
7.455965378E0,-2.257163286E0,1.388433075E1,3.029973209E-1,1.406986972E1
7.460763034E0,-2.364078283E0,1.454184723E1,6.311115026E-1,1.474627033E1
7.465560690E0,-2.419052601E0,1.518897629E1,9.662536383E-1,1.541072556E1
7.470358347E0,-2.441697836E0,1.573012924E1,1.303414702E0,1.597177962E1
7.475156003E0,-2.288706779E0,1.600532913E1,1.618446350E0,1.624894175E1
7.479953659E0,-2.127986431E0,1.598623466E1,1.834352970E0,1.623123149E1
7.484751367E0,-1.986669540E0,1.602448654E1,1.962634444E0,1.626600623E1
7.489549024E0,-1.862588644E0,1.598139381E1,1.938462734E0,1.620591937E1
7.494346680E0,-1.834149122E0,1.596223831E1,1.852379203E0,1.617369666E1
7.499144336E0,-1.855622888E0,1.592637253E1,1.792303801E0,1.613397134E1
7.503941992E0,-1.871861815E0,1.596461868E1,1.712537527E0,1.616495286E1
7.508739701E0,-1.922994375E0,1.589285564E1,1.622809649E0,1.609081350E1
7.513537357E0,-1.946398616E0,1.577572155E1,1.573625684E0,1.597304466E1
7.518335013E0,-2.023386240E0,1.576135826E1,1.496660829E0,1.596103066E1
7.523132670E0,-2.162320614E0,1.568237019E1,1.273564219E0,1.588188688E1
7.527930326E0,-2.301891565E0,1.535488319E1,1.109392047E0,1.556604938E1
7.532727982E0,-2.365041018E0,1.479835510E1,1.039099813E0,1.502213238E1
7.537525638E0,-2.299204111E0,1.405609608E1,1.027947187E0,1.427994579E1
7.542323347E0,-2.278582096E0,1.336977482E1,1.083958030E0,1.360579950E1
7.547121003E0,-2.257387877E0,1.263662434E1,1.214968085E0,1.289403824E1
7.551918659E0,-2.424040556E0,1.194521332E1,1.358874083E0,1.226420126E1
7.556716315E0,-2.488728762E0,1.118803120E1,1.479840159E0,1.155663185E1
7.561513972E0,-2.448810101E0,1.039630508E1,1.620974541E0,1.080311940E1
7.566311628E0,-2.447907448E0,9.598775864E0,1.750788808E0,1.005952337E1
7.571109284E0,-2.340376377E0,8.769168854E0,1.806432486E0,9.254127852E0
7.575906992E0,-2.174614668E0,7.876416206E0,1.739523649E0,8.354209941E0
7.580704649E0,-1.999437451E0,7.020877838E0,1.549024701E0,7.462570151E0
7.585502305E0,-1.739047289E0,6.223946095E0,1.224280119E0,6.577283046E0
7.590299961E0,-1.395478129E0,5.829724312E0,7.886649966E-1,6.046076185E0
7.595097617E0,-1.006977439E0,5.452948093E0,2.816357017E-1,5.552293683E0
7.599895274E0,-5.667645931E-1,5.129387856E0,-2.644466162E-1,5.167375919E0
7.604692982E0,-1.378792524E-1,4.870815277E0,-8.242036700E-1,4.941979749E0
7.609490638E0,2.763561010E-1,4.686575413E0,-1.408067942E0,4.901328098E0
7.614288295E0,6.130024791E-1,4.600347996E0,-1.958892107E0,5.037482706E0
7.619085951E0,7.927679420E-1,4.757698536E0,-2.447463036E0,5.408719967E0
7.623883607E0,8.869754672E-1,5.091318130E0,-2.791504860E0,5.873733495E0
7.628681263E0,1.040488958E0,5.311698914E0,-3.011639833E0,6.194088884E0
7.633478972E0,9.328173399E-1,5.643614769E0,-3.307287216E0,6.607471875E0
7.638276628E0,6.438679099E-1,6.158716679E0,-3.416318655E0,7.072170117E0
7.643074284E0,3.271731138E-1,6.821002007E0,-3.354534864E0,7.608285929E0
7.647871940E0,1.020489335E-1,7.498868465E0,-3.080759525E0,8.107682869E0
7.652669597E0,-3.690761328E-2,8.158819199E0,-2.640405178E0,8.575513535E0
7.657467253E0,-5.704909563E-2,8.724349976E0,-2.081537485E0,8.969411095E0
7.662264909E0,-4.716217518E-3,9.269577980E0,-1.433299541E0,9.379735910E0
7.667062617E0,1.002885699E-1,9.827916145E0,-7.222525477E-1,9.854929848E0
7.671860274E0,1.548807025E-1,1.015077400E1,7.316559553E-2,1.015221917E1
7.676657930E0,7.138645649E-2,1.020027351E1,6.758759022E-1,1.022289020E1
7.681455586E0,-2.507431507E-1,1.012990475E1,1.169682741E0,1.020029411E1
7.686253242E0,-6.552721262E-1,9.935309410E0,1.869288445E0,1.013084369E1
7.691050951E0,-1.030068636E0,9.205777168E0,2.414969444E0,9.572849737E0
7.695848607E0,-1.045031071E0,7.877455711E0,2.729715347E0,8.402246384E0
7.700646263E0,-7.370844483E-1,6.182849884E0,2.919027090E0,6.876892127E0
7.705443920E0,-3.653938174E-1,4.268146515E0,2.823224068E0,5.130417278E0
7.710241576E0,1.891970634E-2,2.018846512E0,2.622304678E0,3.309468389E0
7.715039232E0,2.358367443E-1,-3.879117966E-1,2.270600080E0,2.315538654E0
7.719836940E0,5.025303364E-1,-2.787433624E0,2.230872631E0,3.605428635E0
7.724634597E0,1.045427680E0,-5.053926468E0,3.817033052E0,6.419099088E0
7.729432253E0,1.669630170E0,-9.406402588E0,6.508724689E0,1.155991227E1
7.734229909E0,2.795392513E0,-2.527186584E1,8.205696106E0,2.671731407E1
7.739027565E0,3.460205078E0,-3.922114182E1,1.094481087E1,4.086636599E1
7.743825222E0,4.921591759E0,-4.811919403E1,8.915676117E0,4.918504021E1
7.748622878E0,4.737163544E0,-4.617863083E1,3.344059944E0,4.654126557E1
7.753420586E0,3.612195730E0,-3.754561615E1,-5.330998898E0,3.809384201E1
7.758218242E0,2.993420601E0,-2.722404480E1,-1.037724686E1,2.928816202E1
7.763015899E0,2.381581306E0,-2.027985764E1,-8.470998764E0,2.210661384E1
7.767813555E0,1.166007161E0,-1.713379669E1,-5.497411251E0,1.803186325E1
7.772611211E0,2.225580215E-1,-1.655736732E1,-3.764377594E0,1.698135694E1
7.777408867E0,1.536428928E-1,-1.651997375E1,-2.218525648E0,1.666898302E1
7.782206576E0,-5.761277676E-2,-1.774536133E1,4.143446684E-1,1.775029153E1
7.787004232E0,8.861899376E-3,-1.892069054E1,4.200395584E0,1.938132947E1
7.791801888E0,-2.134454250E-2,-1.965107346E1,8.097117424E0,2.125390444E1
7.796599545E0,1.306332350E-1,-1.969061661E1,1.065226173E1,2.238767803E1
7.801397201E0,7.286893129E-1,-1.928335190E1,1.110401821E1,2.226382422E1
7.806194857E0,1.732876062E0,-1.822916412E1,1.015761757E1,2.093997323E1
7.810992565E0,2.355864048E0,-1.668491364E1,7.896835804E0,1.860904227E1
7.815790222E0,2.550043344E0,-1.532744789E1,5.696778297E0,1.654952153E1
7.820587878E0,2.972495794E0,-1.405971336E1,3.101883888E0,1.470146097E1
7.825385534E0,3.664542198E0,-1.279604626E1,6.805495024E-1,1.332782116E1
7.830183190E0,1.008146954E1,-1.205116940E1,-4.325155735E0,1.629643163E1
7.834980847E0,4.553845882E0,-1.273823261E1,-1.683775783E0,1.363213788E1
7.839778555E0,4.025248528E0,-1.365550232E1,-2.211504698E0,1.440715525E1
7.844576211E0,3.869072199E0,-1.385251141E1,-3.370485306E0,1.477233777E1
7.849373867E0,3.566526890E0,-1.398089314E1,-3.215113163E0,1.478250451E1
7.854171524E0,3.339773655E0,-1.304767418E1,-3.210507631E0,1.384569423E1
7.858969180E0,2.549526453E0,-1.267217159E1,-2.716598511E0,1.320847930E1
7.863766836E0,2.294664383E0,-1.171609116E1,-2.137910604E0,1.212860002E1
7.868564545E0,2.012585163E0,-1.080206871E1,-1.583054900E0,1.110140758E1
7.873362201E0,1.732567310E0,-9.911556244E0,-1.181902647E0,1.013102317E1
7.878159857E0,1.264932036E0,-8.813381195E0,-1.169170856E0,8.980128153E0
7.882957513E0,6.834366322E-1,-7.259719849E0,-1.188631773E0,7.388062222E0
7.887755170E0,1.486451626E-1,-5.193612099E0,-9.570140243E-1,5.283140908E0
7.892552826E0,1.117544174E-1,-4.003232956E0,-3.130888343E-1,4.017012294E0
7.897350482E0,-3.014838696E-2,-3.161262512E0,-2.664646804E-1,3.172616116E0
7.902148190E0,-3.417399526E-1,-1.936038017E0,-6.794739962E-1,2.080075554E0
7.906945847E0,-6.866565347E-1,-6.865081787E-1,-1.080310941E0,1.452536542E0
7.911743503E0,-1.003027678E0,4.941310883E-1,-1.281447053E0,1.700687098E0
7.916541159E0,-1.230998397E0,1.873747826E0,-1.419788718E0,2.653693270E0
7.921338815E0,-1.467044473E0,2.608497143E0,-1.355571389E0,3.285430051E0
7.926136472E0,-1.780913115E0,2.452769756E0,-1.189295411E0,3.256094988E0
7.930934180E0,-2.050431013E0,2.733833313E0,-1.137857437E0,3.601781708E0
7.935731836E0,-2.292376518E0,3.721255779E0,-1.134587765E0,4.515531427E0
7.940529492E0,-2.491788864E0,4.969789505E0,-1.101592541E0,5.667567873E0
7.945327149E0,-2.574163437E0,6.132712841E0,-1.058876514E0,6.734812816E0
7.950124805E0,-2.631268501E0,6.629344463E0,-8.712996244E-1,7.185467624E0
7.954922513E0,-2.750577927E0,6.921584129E0,-6.204749942E-1,7.473887543E0
7.959720170E0,-2.788792133E0,7.518684387E0,-5.300107002E-1,8.036721211E0
7.964517826E0,-2.807779312E0,8.274527550E0,-5.520474911E-1,8.755351922E0
7.969315482E0,-2.811617374E0,9.069492340E0,-6.409398317E-1,9.516915857E0
7.974113138E0,-2.771044254E0,9.870139122E0,-7.347870469E-1,1.027804673E1
7.978910795E0,-2.683296204E0,1.058091354E1,-7.692512274E-1,1.094292271E1
