"Time (s)","Linear Acceleration x (m/s^2)","Linear Acceleration y (m/s^2)","Linear Acceleration z (m/s^2)","Absolute acceleration (m/s^2)"
4.121513000E-3,0.000000000E0,0.000000000E0,0.000000000E0,0.000000000E0
9.015263000E-3,7.939124107E-2,-1.637411118E-2,9.026527405E-3,8.156322010E-2
1.371791900E-2,1.603722572E-1,-1.049175262E-1,-5.989456177E-2,2.007842293E-1
1.851620100E-2,2.119493484E-1,-1.718864441E-1,-1.264104843E-1,3.007442211E-1
2.331443000E-2,1.742208004E-1,-2.002615929E-1,-1.388463974E-1,2.995595349E-1
2.811260700E-2,-8.273625374E-2,-7.864379883E-2,-3.428959846E-1,3.613969992E-1
3.291083600E-2,-3.008666039E-1,7.006168365E-2,-3.576984406E-1,4.726283182E-1
3.770906500E-2,-4.119117260E-1,2.175984383E-1,-2.737288475E-1,5.403219710E-1
4.250724200E-2,-3.337621689E-1,2.700977325E-1,-6.941699982E-2,4.349352715E-1
4.730547100E-2,-1.602649689E-1,1.825718880E-1,1.278877258E-1,2.745407528E-1
5.210370100E-2,5.849671364E-2,5.819797516E-3,2.026271820E-1,2.109822515E-1
5.690187800E-2,2.747046947E-1,-2.147502899E-1,1.300125122E-1,3.721338599E-1
6.170010700E-2,5.398290157E-1,-3.155937195E-1,-1.321067810E-1,6.391142023E-1
6.649833600E-2,4.831769466E-1,-5.598764420E-1,-2.463483810E-1,7.794928588E-1
7.129651300E-2,5.834896564E-1,-7.147178650E-1,-3.865995407E-1,1.000370437E0
7.609474200E-2,8.580421209E-1,-8.539185524E-1,-3.664083481E-1,1.264779923E0
8.089297100E-2,1.021242380E0,-8.682093620E-1,-5.240855217E-1,1.439232132E0
8.569114900E-2,9.711042643E-1,-7.639870644E-1,-7.064142227E-1,1.423285207E0
9.048937800E-2,8.649082184E-1,-6.778459549E-1,-7.932062149E-1,1.355255498E0
9.528760700E-2,7.396258116E-1,-5.487270355E-1,-7.355647087E-1,1.178644620E0
1.000857840E-1,5.410740376E-1,-3.070993423E-1,-4.744043350E-1,7.823877512E-1
1.048840130E-1,2.350850105E-1,7.976961136E-2,-7.315063477E-2,2.588033393E-1
1.096822420E-1,-5.473518372E-2,3.897147179E-1,1.752252579E-1,4.307869458E-1
1.144804190E-1,-2.251200676E-1,5.240483284E-1,3.282966614E-1,6.580914778E-1
1.192786490E-1,-2.810997963E-1,4.788103104E-1,3.835372925E-1,6.748164665E-1
1.240768780E-1,-2.078733444E-1,3.667545319E-1,3.726119995E-1,5.626365755E-1
1.288750550E-1,-1.289467812E-1,2.524123192E-1,2.311973572E-1,3.657751621E-1
1.336732840E-1,3.698444366E-2,8.740377426E-2,6.730842590E-2,1.163515923E-1
1.384715130E-1,1.418135166E-1,-4.348039627E-2,-8.426284790E-2,1.705926314E-1
1.432696900E-1,1.690237522E-1,-1.183986664E-1,-1.736044884E-1,2.696771985E-1
1.480679190E-1,1.278624535E-1,-1.461663246E-1,-2.053761482E-1,2.826530801E-1
1.528661490E-1,1.246318817E-1,-1.191282272E-1,-2.532482147E-1,3.063646499E-1
1.576643260E-1,8.168673515E-2,-9.443426132E-2,-2.565417290E-1,2.853142322E-1
1.624625550E-1,6.764125824E-2,-4.894971848E-2,-2.233376503E-1,2.384347307E-1
1.672607840E-1,5.868268013E-2,-4.377651215E-2,-1.939392090E-1,2.072979902E-1
1.720590130E-1,3.866338730E-2,-2.921056747E-2,-1.446533203E-1,1.525539178E-1
1.768571900E-1,4.786109924E-2,-5.688667297E-3,-8.032226562E-2,9.367343333E-2
1.816554190E-1,1.128029823E-2,-1.531839371E-2,-8.503675461E-2,8.713867080E-2
1.864536490E-1,9.589195251E-3,-2.485227585E-2,-8.685445786E-2,9.084759287E-2
1.912518260E-1,1.613950729E-2,-3.663349152E-2,-4.389286041E-2,5.940605686E-2
1.960500550E-1,3.036284447E-2,-9.279537201E-2,4.745674133E-2,1.085588582E-1
2.008482840E-1,5.698561668E-2,-1.622829437E-1,1.163349152E-1,2.076461577E-1
2.056464610E-1,1.264615059E-1,-2.190084457E-1,1.025905609E-1,2.729139699E-1
2.104446900E-1,1.963765621E-1,-2.541365623E-1,4.344844818E-2,3.240939896E-1
2.152429190E-1,2.293989658E-1,-2.679443359E-1,5.203533173E-2,3.565469512E-1
2.200410960E-1,2.212784290E-1,-2.305912971E-1,4.724693298E-2,3.230615455E-1
2.248393260E-1,1.632580757E-1,-2.042274475E-1,1.067018509E-1,2.823957057E-1
2.296375550E-1,9.818935394E-2,-1.295962334E-1,9.286689758E-2,1.872447425E-1
2.344357320E-1,1.663184166E-2,-5.884981155E-2,-7.270956039E-2,9.500841357E-2
2.392339610E-1,-4.866075516E-2,4.575872421E-2,-1.316838264E-1,1.476562226E-1
2.440321900E-1,-1.271028519E-1,1.440792084E-1,-1.593952179E-1,2.496413202E-1
2.488303670E-1,-1.934304237E-1,1.802287102E-1,-1.732902527E-1,3.161126832E-1
2.536285960E-1,-3.262829781E-1,2.706284523E-1,-1.341528893E-1,4.446316888E-1
2.584268260E-1,-4.525413513E-1,3.696985245E-1,-1.738214493E-2,5.846133873E-1
2.632250030E-1,-5.845737457E-1,4.887619019E-1,1.475429535E-1,7.761337411E-1
2.680232320E-1,-6.634802818E-1,5.851125717E-1,1.790199280E-1,9.025579985E-1
2.728214610E-1,-6.804773808E-1,5.836348534E-1,2.677984238E-1,9.356255146E-1
2.776196380E-1,-5.912244320E-1,3.447561264E-1,3.544969559E-1,7.707601491E-1
2.824178670E-1,-4.270794392E-1,6.287765503E-2,3.666152954E-1,5.663543252E-1
2.872160960E-1,-1.693220139E-1,-1.014723778E-1,3.340101242E-1,3.879811218E-1
2.920142740E-1,1.644730568E-2,-1.364326477E-1,3.777666092E-1,4.019850647E-1
2.968125030E-1,4.915738106E-2,-1.147522926E-1,3.483858109E-1,3.700773027E-1
3.016107320E-1,-2.185130119E-2,-6.562328339E-2,2.799406052E-1,2.883585218E-1
3.064089090E-1,-8.474588394E-2,-5.291032791E-2,2.740449905E-1,2.916882317E-1
3.112071380E-1,-9.288048744E-2,-7.629871368E-3,2.518148422E-1,2.685064518E-1
3.160053670E-1,-9.884071350E-2,1.346588135E-2,1.544342041E-1,1.838497756E-1
3.208035440E-1,-9.533882141E-2,6.527280807E-2,2.293682098E-2,1.177969783E-1
3.256017740E-1,-1.177577972E-1,1.146736145E-1,-8.344984055E-2,1.843388526E-1
3.304000030E-1,-1.303608418E-1,1.334972382E-1,-8.028697968E-2,2.031291726E-1
3.351981800E-1,-1.922857761E-1,1.578054428E-1,-8.015346527E-2,2.613445149E-1
3.399964090E-1,-2.012438774E-1,1.780390739E-1,-1.041431427E-1,2.881714840E-1
3.447946380E-1,-2.618367672E-1,2.628283501E-1,-1.425919533E-1,3.974540217E-1
3.495928150E-1,-2.864062786E-1,2.839765549E-1,-1.246991158E-1,4.221624209E-1
3.543910440E-1,-3.469183445E-1,3.673543930E-1,-1.221919060E-1,5.198388690E-1
3.591892740E-1,-4.221096039E-1,4.317564964E-1,-7.118606567E-2,6.079947745E-1
3.639874510E-1,-5.476047993E-1,5.339775085E-1,-8.568096161E-2,7.696390212E-1
3.687856800E-1,-6.520571709E-1,6.381192207E-1,-7.511329651E-2,9.154325214E-1
3.735839090E-1,-6.885497570E-1,7.229552269E-1,-4.690742493E-2,9.994825334E-1
3.783820860E-1,-6.228036880E-1,7.273373604E-1,5.060005188E-2,9.588870814E-1
3.831803150E-1,-5.321555138E-1,1.115205765E0,9.603786469E-2,1.239393666E0
3.879785440E-1,-1.003515720E0,1.219514370E0,2.533998489E-1,1.599521986E0
3.927767210E-1,-1.349344015E0,1.244241238E0,2.829389572E-1,1.857126808E0
3.975749510E-1,-1.526145220E0,1.206317902E0,4.182987213E-1,1.989797963E0
4.023731800E-1,-1.519936562E0,1.153119564E0,7.412490845E-1,2.046788237E0
4.071713570E-1,-7.222323418E-1,9.714918137E-1,1.111830711E0,1.643649424E0
4.119695860E-1,-1.070714474E0,7.351264954E-1,1.128660202E0,1.720672630E0
4.167678150E-1,-1.159804821E0,6.539793015E-1,1.820484161E0,2.255437592E0
4.215659920E-1,-1.217589140E0,6.251244545E-1,1.422480583E0,1.974019986E0
4.263642210E-1,-1.149935007E0,4.999456406E-1,9.642219543E-1,1.581777526E0
4.311624510E-1,-8.914875984E-1,3.350582123E-1,6.113328934E-1,1.131698745E0
4.359606280E-1,-7.246735096E-1,1.841735840E-1,4.797849655E-1,8.884059982E-1
4.407588570E-1,-5.648913383E-1,3.371334076E-2,3.933906555E-1,6.891988257E-1
4.455570860E-1,-4.553923607E-1,-8.972501755E-2,2.682580948E-1,5.360925166E-1
4.503552630E-1,-3.977725506E-1,-2.330927849E-1,4.291343689E-2,4.630300330E-1
4.551534920E-1,-3.056755066E-1,-3.195748329E-1,-1.256828308E-1,4.597409739E-1
4.599517210E-1,-1.429743767E-1,-4.459767342E-1,-4.349064827E-1,6.391248458E-1
4.647498990E-1,1.682758331E-2,-5.872731209E-1,-6.776928902E-1,8.969060929E-1
4.695481280E-1,2.373338938E-1,-6.082377434E-1,-7.151250839E-1,9.683410635E-1
4.743463570E-1,4.324851036E-1,-5.198206902E-1,-5.348615646E-1,8.621680857E-1
4.791445340E-1,1.131197214E-1,-6.977529526E-1,-6.312046051E-1,9.476679311E-1
4.839427630E-1,-4.658663273E-2,-8.745975494E-1,-7.923393250E-1,1.181055796E0
4.887409920E-1,8.224284649E-2,-9.536676407E-1,-8.159389496E-1,1.257776699E0
4.935391690E-1,1.790767908E-1,-9.596889019E-1,-8.430862427E-1,1.289909182E0
4.983373990E-1,1.801594496E-1,-1.057013273E0,-8.759908676E-1,1.384591812E0
5.031356280E-1,5.596601963E-2,-1.167467594E0,-9.850606918E-1,1.528547463E0
5.079338050E-1,-5.225741863E-2,-1.319416285E0,-1.119722843E0,1.731291257E0
5.127320340E-1,-4.299700260E-2,-1.166547298E0,-1.180136204E0,1.659940602E0
5.175302630E-1,7.922315598E-2,-1.214700699E0,-1.605061054E0,2.014446595E0
5.223284400E-1,5.379919410E-1,-1.235922813E0,-1.391285419E0,1.937166913E0
5.271266690E-1,5.379527211E-1,-1.545500278E0,-1.261943340E0,2.066510400E0
5.319248990E-1,-1.536000371E0,-1.314932346E0,-1.069522381E0,2.287405154E0
5.367230760E-1,-8.539462090E-2,-1.011613131E0,-1.363648415E0,1.700055989E0
5.415213050E-1,1.047157645E0,-8.339481354E-1,-2.306150436E0,2.666521791E0
5.463195340E-1,8.803280592E-1,-9.018507004E-1,-2.797797680E0,3.068547545E0
5.511177110E-1,1.753851771E-1,-1.542800426E0,-2.634296894E0,3.057860893E0
5.559159400E-1,-2.378020287E-1,-1.881977558E0,-2.032491684E0,2.780181969E0
5.607141690E-1,-8.039093018E-2,-1.988863707E0,-1.589070797E0,2.546995788E0
5.655123460E-1,1.441785693E-1,-1.981536865E0,-1.124823570E0,2.283090859E0
5.703105760E-1,-3.367215395E-1,-2.387757301E0,-1.097622395E0,2.649441686E0
5.751088050E-1,-1.730570197E-1,-2.582536697E0,-1.318340778E0,2.904731818E0
5.799069820E-1,-3.976881504E-3,-2.954632044E0,-1.677392960E0,3.397574645E0
5.847052110E-1,2.227795124E-1,-3.819876909E0,-1.928803921E0,4.285017489E0
5.895034400E-1,3.180654645E-1,-4.572205067E0,-1.643645287E0,4.869065068E0
5.943016170E-1,-4.239028692E-1,-3.727033377E0,-8.779554367E-1,3.852437823E0
5.990998460E-1,-9.940866232E-1,-1.585156679E0,9.261560440E-1,2.087748771E0
6.038980760E-1,-9.488472939E-1,-2.324404716E-1,2.944459915E0,3.102286891E0
6.086962530E-1,-6.303755045E-1,-1.691195965E-1,4.183495522E0,4.234100789E0
6.134944820E-1,-4.217660427E-1,-3.897674084E-1,4.650354385E0,4.685680435E0
6.182927110E-1,-5.770847797E-1,-1.489603519E-1,3.862489700E0,3.908201980E0
6.230909400E-1,-5.200042725E-1,1.684429646E-1,2.593158722E0,2.650141436E0
6.278891170E-1,-8.285284042E-1,-7.489852905E-1,9.779214859E-1,1.484509587E0
6.326873460E-1,-3.521629572E-1,-1.325530648E0,-3.264579773E-1,1.409831571E0
6.374855240E-1,-3.667432070E-1,-1.084178448E0,9.879846573E-1,1.511971286E0
6.422837530E-1,-7.946630716E-1,-6.180286407E-1,3.343297005E0,3.491573236E0
6.470819820E-1,-8.248898983E-1,-4.512279034E-1,3.917733192E0,4.028980433E0
6.518801590E-1,-2.080563307E-1,-9.592585564E-1,3.271348953E0,3.415433851E0
6.566783880E-1,3.452827930E-1,-1.547226787E0,2.430112839E0,2.901478820E0
6.614766170E-1,5.679178834E-1,-2.066678524E0,1.733067513E0,2.756304382E0
6.662748460E-1,4.842231274E-1,-2.382347822E0,1.514260292E0,2.864094519E0
6.710730240E-1,8.543154001E-1,-2.301050186E0,1.789313316E0,3.037487268E0
6.758712530E-1,1.278941035E0,-2.165926456E0,2.105716705E0,3.280391810E0
6.806694820E-1,1.714563847E0,-2.049821854E0,2.788449287E0,3.862246528E0
6.854676590E-1,2.306135654E0,-1.904642105E0,3.464001656E0,4.576595970E0
6.902658880E-1,2.806709290E0,-1.920494437E0,3.863804817E0,5.147320039E0
6.950641170E-1,2.930360079E0,-1.955481768E0,3.602804184E0,5.038959925E0
6.998622940E-1,2.902426720E0,-1.908705592E0,3.341833115E0,4.820278671E0
7.046605240E-1,2.777268887E0,-1.780235171E0,3.211889267E0,4.604203774E0
7.094587010E-1,2.640599728E0,-1.834972620E0,3.347909927E0,4.642024593E0
7.142569300E-1,2.330766916E0,-2.084076405E0,2.553774834E0,4.037030441E0
7.190551590E-1,1.742797613E0,-2.101582050E0,1.628369331E0,3.178927070E0
7.238533360E-1,9.842642546E-1,-1.925536275E0,1.129655838E0,2.439792692E0
7.286515650E-1,3.702288866E-2,-1.565560937E0,1.043504715E0,1.881821945E0
7.334497940E-1,-7.630612254E-1,-1.283287048E0,1.060947418E0,1.831583333E0
7.382480240E-1,-1.392740130E0,-1.195040464E0,9.557619095E-1,2.069136924E0
7.430462010E-1,-4.950963259E-1,-1.574347019E-1,-4.872598648E-1,7.122697755E-1
7.478444300E-1,-2.592035770E0,-8.928005695E-1,9.926166534E-1,2.915652605E0
7.526426590E-1,-3.670389175E0,-1.421558619E0,8.672971725E-1,4.030482600E0
7.574408360E-1,-4.320034981E0,-1.691107273E0,9.136562347E-1,4.728352119E0
7.622390650E-1,-4.270785332E0,-1.573650837E0,2.918214798E-1,4.560827127E0
7.670372940E-1,-4.375411987E0,-1.654445648E0,-2.877759933E-1,4.686601699E0
7.718354710E-1,-4.714034557E0,-1.734547615E0,-1.388874054E-1,5.024944472E0
7.766337010E-1,-4.891522408E0,-1.782196999E0,3.236303329E-1,5.216124442E0
7.814318780E-1,-4.920377254E0,-1.906002522E0,5.206012726E-1,5.302262123E0
7.862301070E-1,-4.900240898E0,-2.133475065E0,3.613777161E-1,5.356740666E0
7.910283360E-1,-4.936263561E0,-2.291106939E0,1.845006943E-1,5.445173042E0
7.958265650E-1,-5.035869122E0,-2.288179159E0,5.110406876E-2,5.531577831E0
8.006247420E-1,-5.137691021E0,-2.118281364E0,-2.518081665E-2,5.557303216E0
8.054229710E-1,-5.645025253E0,-2.314540863E0,-1.854453087E-1,6.103916733E0
8.102212010E-1,-5.862420082E0,-2.475413799E0,-5.144991875E-1,6.384383456E0
8.150193780E-1,-5.107102394E0,-1.714977264E0,-7.203526497E-1,5.435305863E0
8.198176070E-1,-5.123688698E0,-1.010144711E0,-4.696130753E-1,5.243387707E0
8.246158360E-1,-5.265419006E0,-6.993041039E-1,-5.396203995E-1,5.338993699E0
8.294140130E-1,-4.681765079E0,-9.516835213E-1,-8.216133118E-1,4.847646255E0
8.342122420E-1,-3.951008320E0,-1.378769398E0,-8.839168549E-1,4.277006056E0
8.390104710E-1,-3.135746241E0,-1.758600712E0,-6.822977066E-1,3.659386712E0
8.438086490E-1,-2.404941320E0,-2.091673851E0,-5.273776054E-1,3.230629875E0
8.486068780E-1,-1.881291151E0,-2.314471245E0,-5.707263947E-1,3.036735444E0
8.534051070E-1,-1.513636589E0,-2.470526695E0,-6.872906685E-1,2.977745177E0
8.582032840E-1,-1.186360002E0,-2.657774925E0,-9.267015457E-1,3.054503783E0
8.630015130E-1,-9.488602877E-1,-2.785382748E0,-1.091139793E0,3.138356090E0
8.677997420E-1,-9.877284765E-1,-3.055211544E0,-1.093162537E0,3.391891722E0
8.725979190E-1,-7.923333645E-1,-2.678236961E0,-9.447674751E-1,2.948445516E0
8.773961490E-1,-9.095170498E-1,-2.778474808E0,-4.732952118E-1,2.961613053E0
8.821943780E-1,-3.151807785E-1,-2.298422337E0,-1.249213457E0,2.634884897E0
8.869925550E-1,2.053666115E-2,-1.918608189E0,-1.181551695E0,2.253340530E0
8.917907840E-1,-2.308852673E-1,-1.657199860E0,-1.346582651E0,2.147767263E0
8.965890130E-1,-3.322634697E-1,-1.646801949E0,-1.605740070E0,2.323952849E0
9.013871900E-1,-1.210036278E-1,-1.805121899E0,-1.705044270E0,2.486017479E0
9.061854190E-1,-1.119337082E-1,-2.331094742E0,-1.421468496E0,2.732600325E0
9.109836490E-1,6.233525276E-1,-2.089964390E0,-2.079317331E0,3.013317124E0
9.157818260E-1,8.232169151E-1,-1.795357227E0,-1.893694639E0,2.736251642E0
9.205800550E-1,2.002296448E-1,-1.681358814E0,-1.436506987E0,2.220498074E0
9.253782840E-1,2.550024986E-1,-1.788380623E0,-1.563938379E0,2.389400507E0
9.301764610E-1,9.456129074E-1,-1.809069633E0,-1.886614919E0,2.779610145E0
9.349746900E-1,1.289214134E0,-1.815777302E0,-2.186335802E0,3.120766658E0
9.397729190E-1,1.167347908E0,-2.111689568E0,-2.724957466E0,3.639687783E0
9.445710960E-1,1.306658745E0,-2.119908810E0,-2.882260323E0,3.809041218E0
9.493693260E-1,1.575484276E0,-1.995179176E0,-3.249399424E0,4.125710516E0
9.541675550E-1,1.861265182E0,-1.696217060E0,-3.564257383E0,4.364102553E0
9.589657320E-1,1.899110317E0,-1.441454411E0,-3.850826263E0,4.529158170E0
9.637639610E-1,1.990321636E0,-1.525200367E0,-4.341957569E0,5.014001586E0
9.685621900E-1,2.466441154E0,-2.029230118E0,-5.236962318E0,6.134075412E0
9.733603670E-1,2.734021664E0,-1.642790318E0,-4.894589901E0,5.842143852E0
9.781585960E-1,2.943932056E0,-4.957146645E-1,-4.151102066E0,5.113131853E0
9.829568260E-1,3.172920704E0,5.543341637E-1,-3.512200117E0,4.765528493E0
9.877550030E-1,3.513593674E0,1.052524567E0,-3.543015480E0,5.099618335E0
9.925532320E-1,3.905929089E0,1.153393745E0,-4.041295528E0,5.737479301E0
9.973514610E-1,3.410196781E0,8.360667229E-1,-3.919504881E0,5.262220839E0
1.002149638E0,4.040937901E0,1.329067230E0,-5.011434555E0,6.573437086E0
1.006947867E0,4.373758316E0,2.108313084E0,-4.289032936E0,6.478468136E0
1.011746096E0,3.814490795E0,2.303019524E0,-3.725406170E0,5.808002245E0
1.016544274E0,4.084277153E0,1.874460697E0,-4.157722473E0,6.122220098E0
1.021342503E0,4.261759758E0,1.725630760E0,-4.307784081E0,6.300587388E0
1.026140732E0,4.320210457E0,1.582281590E0,-3.891414165E0,6.025855759E0
1.030938909E0,3.994449615E0,1.433980465E0,-3.450116634E0,5.469481922E0
1.035737138E0,3.845607758E0,8.174557686E-1,-2.717713356E0,4.779424531E0
1.040535367E0,3.442984104E0,9.405164719E-1,-3.015220642E0,4.672287052E0
1.045333596E0,3.240161419E0,1.206420422E0,-2.771575451E0,4.431221811E0
1.050131774E0,2.517111301E0,1.169665813E0,-2.178580999E0,3.528481627E0
1.054930003E0,1.825936317E0,9.299936295E-1,-2.063402176E0,2.908016528E0
1.059728180E0,1.547430992E0,6.126055717E-1,-1.946396708E0,2.560915541E0
1.064526409E0,1.442154408E0,4.414696693E-1,-1.599575400E0,2.198487268E0
1.069324638E0,1.274077892E0,3.274836540E-1,-1.222640038E0,1.795931146E0
1.074122815E0,1.015294552E0,2.129087448E-1,-9.579778910E-1,1.412046317E0
1.078921044E0,9.167623520E-1,1.520805359E-1,-7.523757219E-1,1.195680110E0
1.083719274E0,8.279266357E-1,1.065297127E-1,-5.096477270E-1,9.780347128E-1
1.088517451E0,8.872141838E-1,1.650857925E-2,-2.529468536E-1,9.227153688E-1
1.093315680E0,1.034332752E0,-1.222724915E-1,-1.104478836E-1,1.047374594E0
1.098113909E0,1.192229271E0,-3.543939590E-1,-5.570423603E-2,1.245033604E0
1.102912138E0,1.226995468E0,-5.384702682E-1,1.121020317E-2,1.339997678E0
1.107710315E0,1.331877708E0,-7.032237053E-1,7.031762600E-2,1.507768675E0
1.112508544E0,1.561128616E0,-8.347859383E-1,-2.424314022E-1,1.786830463E0
1.117306721E0,1.770884037E0,-1.061962605E0,-3.049936295E-1,2.087298723E0
1.122104951E0,1.875181675E0,-1.377078056E0,-4.239661694E-1,2.364825068E0
1.126903180E0,1.955276012E0,-1.522309303E0,-3.134520054E-1,2.497755404E0
1.131701409E0,2.361826897E0,-1.266057014E0,-4.006085396E-1,2.709541263E0
1.136499586E0,2.157374859E0,-1.141741276E0,-2.721719742E-1,2.455996133E0
1.141297815E0,1.823385239E0,-1.270418644E0,-4.415285587E-1,2.265754781E0
1.146095992E0,1.350155354E0,-1.316618919E0,-7.359399796E-1,2.024354838E0
1.150894221E0,8.847370148E-1,-1.391164780E0,-1.231262207E0,2.057694256E0
1.155692451E0,3.474798203E-1,-1.265934467E0,-1.277447462E0,1.831721682E0
1.160490628E0,-2.811408043E-1,-1.169139862E0,-1.332775593E0,1.795054024E0
1.165288857E0,-9.390025139E-1,-1.126348972E0,-1.303596258E0,1.962078218E0
1.170087086E0,-1.539797306E0,-1.008911610E0,-1.196742296E0,2.195693627E0
1.174885315E0,-1.865978241E0,-1.032565117E0,-1.088196754E0,2.394209200E0
1.179683492E0,-2.024568081E0,-1.179280758E0,-9.323909283E-1,2.521692262E0
1.184481721E0,-1.981324196E0,-1.355016708E0,-6.192390919E-1,2.478945926E0
1.189279951E0,-1.926485062E0,-1.429861546E0,-4.606733322E-1,2.442963088E0
1.194078128E0,-1.821035385E0,-1.457559586E0,-3.884937763E-1,2.364651609E0
1.198876357E0,-1.690529823E0,-1.550938606E0,-2.151498795E-1,2.304255002E0
1.203674586E0,-1.694380760E0,-1.569381237E0,-1.883547306E-1,2.317188195E0
1.208472763E0,-1.555533886E0,-1.503677845E0,-1.263477802E-1,2.167186308E0
1.213270992E0,-1.426973820E0,-1.406831741E0,-2.131357193E-1,2.015156735E0
1.218069169E0,-1.236915112E0,-1.267107487E0,-8.546757698E-2,1.772801479E0
1.222867399E0,-1.154589653E0,-1.058296680E0,-4.370546341E-2,1.566837355E0
1.227665628E0,-1.013221741E0,-9.065260887E-1,-3.075928688E-1,1.393922960E0
1.232463857E0,-1.028620243E0,-7.917757034E-1,-6.585710049E-1,1.455570039E0
1.237262034E0,-1.156380653E0,-5.912480354E-1,-9.221007824E-1,1.592815215E0
1.242060263E0,-1.376087189E0,-3.163833618E-1,-1.146346092E0,1.818742353E0
1.246858492E0,-1.514711380E0,1.115226746E-1,-1.243824005E0,1.963131689E0
1.251656669E0,-1.747535706E0,5.944523811E-1,-1.154869795E0,2.177378910E0
1.256454899E0,-1.996538639E0,1.020960331E0,-1.040631056E0,2.472132587E0
1.261253128E0,-2.520316124E0,1.335013866E0,-1.204860449E0,3.096117583E0
1.266051305E0,-3.137873173E0,1.716443062E0,-1.519398689E0,3.886000156E0
1.270849534E0,-3.751864672E0,2.045784950E0,-1.708999872E0,4.602434697E0
1.275647763E0,-4.496595383E0,2.363667488E0,-1.814569473E0,5.394344854E0
1.280445940E0,-5.406014442E0,2.684604168E0,-2.082304955E0,6.384989085E0
1.285244169E0,-6.277215004E0,2.810993671E0,-2.028593779E0,7.170795377E0
1.290042399E0,-6.837979794E0,2.510269165E0,-1.598409176E0,7.457501648E0
1.294840576E0,-6.796044350E0,1.904893875E0,-7.268002033E-1,7.095285619E0
1.299638805E0,-5.839813232E0,1.127415657E0,3.393745422E-1,5.957319845E0
1.304437034E0,-5.494002819E0,4.636049271E-1,9.060465097E-1,5.587478571E0
1.309235211E0,-5.551075935E0,-9.932518005E-4,1.013763905E0,5.642885989E0
1.314033440E0,-5.542181015E0,-3.931198120E-1,1.175190806E0,5.679030465E0
1.318831669E0,-5.424647808E0,-6.838088036E-1,1.491714597E0,5.667416586E0
1.323629846E0,-5.385486603E0,-8.865962029E-1,1.641856790E0,5.699580028E0
1.328428076E0,-5.546791077E0,-9.791178703E-1,1.798892260E0,5.912831506E0
1.333226305E0,-5.632073402E0,-1.115505219E0,1.828219652E0,6.025528176E0
1.338024482E0,-5.625310898E0,-1.292524815E0,1.984462738E0,6.103510093E0
1.342822711E0,-5.567360878E0,-1.638748646E0,1.967653513E0,6.128022896E0
1.347620940E0,-5.338828087E0,-1.984796524E0,1.988816977E0,6.033066844E0
1.352419117E0,-5.116502285E0,-2.118547916E0,2.200343132E0,5.958888387E0
1.357217346E0,-4.740688324E0,-2.319329739E0,2.318960428E0,5.764633006E0
1.362015576E0,-4.389003277E0,-2.259491205E0,2.309408188E0,5.449955637E0
1.366813753E0,-4.164405346E0,-2.175753117E0,1.771836281E0,5.021511457E0
1.371611982E0,-4.327332020E0,-2.108031988E0,1.334134817E0,4.994949147E0
1.376410211E0,-3.920794249E0,-2.394782066E0,7.617369294E-1,4.657021777E0
1.381208388E0,-4.397810459E0,-1.748202801E0,2.632875144E-1,4.739859722E0
1.386006617E0,-4.222881794E0,-1.377299309E0,-4.477041364E-1,4.464316636E0
1.390804846E0,-4.088712692E0,-6.311454773E-1,-1.136459827E0,4.290391245E0
1.395603024E0,-3.941715956E0,8.775043488E-2,-1.756680489E0,4.316335385E0
1.400401253E0,-4.105659485E0,1.626836300E0,-1.267313719E0,4.594466260E0
1.405199482E0,-4.212127686E0,2.927736282E0,4.095697999E-1,5.146008822E0
1.409997659E0,-2.465592384E0,7.011194229E-1,-1.108973503E0,2.792944053E0
1.414795888E0,-8.919572830E-1,-1.260393620E0,-1.347674131E0,2.049489067E0
1.419594117E0,1.139438152E0,-2.241017342E0,-1.659615040E0,3.012440889E0
1.424392294E0,2.161536217E0,-1.918295860E0,-1.228825688E0,3.140399719E0
1.429190524E0,3.844480515E0,-1.140526533E0,-1.660053611E0,4.340116265E0
1.433988753E0,4.491733551E0,-1.790738106E-1,-1.420029402E0,4.714257229E0
1.438786930E0,4.983465195E0,4.949245453E-1,-1.351173162E0,5.187055481E0
1.443585159E0,6.097401619E0,3.007016182E-1,-1.838269114E0,6.375575370E0
1.448383388E0,7.092329979E0,-1.270709038E-1,-1.927616477E0,7.350714035E0
1.453181565E0,7.780221939E0,-4.724636078E-1,-1.336174965E0,7.908251312E0
1.457979794E0,7.147203445E0,-4.492332935E-1,-7.589746714E-1,7.201414458E0
1.462778024E0,6.964111328E0,-6.961185932E-1,-1.420532346E0,7.141522235E0
1.467576201E0,6.690423012E0,-7.584838867E-1,-1.427452087E0,6.882926510E0
1.472374430E0,6.354606628E0,-6.924808025E-1,-1.166407943E0,6.497773661E0
1.477172659E0,6.171498299E0,-6.452794075E-1,-9.525703788E-1,6.277831400E0
1.481970836E0,6.437304497E0,-1.032519579E0,-7.665069103E-1,6.564489219E0
1.486769065E0,6.147893906E0,-1.618893147E0,1.981052160E-1,6.360555021E0
1.491567294E0,5.986614227E0,-2.448150396E0,8.866811991E-1,6.528337753E0
1.496365471E0,5.632308960E0,-2.700453997E0,1.511147141E0,6.426423709E0
1.501163701E0,4.994794846E0,-2.165675640E0,1.273711443E0,5.591106095E0
1.505961930E0,4.141094208E0,-1.048835039E0,6.271846294E-1,4.317647130E0
1.510760107E0,3.069236755E0,-4.649162292E-2,3.269617558E-1,3.086953145E0
1.515558336E0,2.383288383E0,7.589700222E-1,5.638192892E-1,2.563979564E0
1.520356565E0,1.473610878E0,1.278885365E0,1.803132296E0,2.656757962E0
1.525154794E0,5.767259598E-1,1.234289646E0,2.769957066E0,3.086866681E0
1.529952971E0,2.983827591E-1,1.070972562E0,2.481525421E0,2.719187915E0
1.534751201E0,4.984416962E-1,9.398007393E-1,1.850713015E0,2.134668175E0
1.539549430E0,3.284835815E-1,1.273140430E0,1.506778479E0,1.999792340E0
1.544347607E0,8.710126877E-1,1.492937326E0,4.744945168E-1,1.792392259E0
1.549145836E0,1.735831261E0,1.562575698E0,-2.351012230E-1,2.347344364E0
1.553944065E0,2.841215134E0,1.762271047E0,-6.539655924E-1,3.406724772E0
1.558742242E0,3.308612823E0,2.426167727E0,-1.061703324E0,4.237973879E0
1.563540471E0,3.478446960E0,2.981469393E0,-9.972686768E-1,4.688634962E0
1.568338701E0,3.382656097E0,3.042095184E0,-1.352958798E0,4.746283061E0
1.573136878E0,3.146347046E0,2.654046535E0,-1.839422464E0,4.508540534E0
1.577935107E0,2.772450447E0,2.409171104E0,-2.167055607E0,4.264588713E0
1.582733336E0,2.426263809E0,2.297601461E0,-2.125952721E0,3.960480213E0
1.587531513E0,2.093895912E0,2.078885794E0,-2.223221302E0,3.694438955E0
1.592329742E0,1.889984131E0,2.202832937E0,-1.321037412E0,3.188989308E0
1.597127971E0,1.402025223E0,7.562590837E-1,-2.308573723E0,2.804837814E0
1.601926149E0,1.663615227E0,-9.068278074E-1,-2.237729073E0,2.932129550E0
1.606724378E0,1.719527245E0,-2.153337479E0,-1.407369614E0,3.094240694E0
1.611522607E0,1.451108932E0,-2.841653585E0,3.142694235E-1,3.206162426E0
1.616320784E0,1.045132637E0,-6.694639921E-1,6.495261192E0,6.612783243E0
1.621119013E0,1.203908920E0,3.754659891E-1,6.416844368E0,6.539591963E0
1.625917242E0,1.292401314E0,8.946394920E-1,7.316069603E0,7.483017801E0
1.630715419E0,1.754708290E0,1.862602472E0,9.359540939E0,9.703056000E0
1.635513649E0,1.390706062E0,2.368907452E0,7.969865799E0,8.429979046E0
1.640311878E0,5.864992142E-1,3.063823700E0,6.621578693E0,7.319583416E0
1.645110055E0,-4.798698425E-2,3.560233831E0,4.643758774E0,5.851671832E0
1.649908284E0,-1.879305840E0,3.281274557E0,2.666423321E0,4.626917601E0
1.654706513E0,-3.788465023E0,2.245794296E0,-4.579010904E-1,4.427836115E0
1.659504742E0,-5.244344711E0,1.347954035E0,-1.418148994E0,5.597434957E0
1.664302919E0,-6.017256260E0,8.825891018E-1,-1.880527139E0,6.365745733E0
1.669101149E0,-5.897783756E0,8.037338257E-1,-2.329565763E0,6.391925996E0
1.673899378E0,-5.378537178E0,1.159682989E0,-2.262135267E0,5.949015278E0
1.678697555E0,-4.689707756E0,1.523144007E0,-2.678537369E0,5.611407037E0
1.683495784E0,-4.620828152E0,1.399315357E0,-2.165631771E0,5.291511811E0
1.688294013E0,-4.984506607E0,9.259371758E-1,-1.189315319E0,5.207411708E0
1.693092190E0,-5.324831009E0,6.148829460E-1,-8.084803820E-1,5.420843739E0
1.697890419E0,-5.699856281E0,6.759486198E-1,-7.088916302E-1,5.783406912E0
1.702688649E0,-5.976609230E0,7.404255867E-1,-1.224828243E0,6.145591279E0
1.707486826E0,-6.527690411E0,1.008772373E0,-1.164013863E0,6.706958481E0
1.712285055E0,-7.156046867E0,1.320390701E0,-1.601385474E0,7.450964623E0
1.717083284E0,-7.182806492E0,1.432430744E0,-2.739502907E0,7.819810938E0
1.721881461E0,-7.027423382E0,1.147680759E0,-3.953120470E0,8.144262518E0
1.726679690E0,-6.848060608E0,6.782670021E-1,-4.676312447E0,8.320088841E0
1.731477919E0,-6.642705917E0,6.681871414E-2,-4.727430344E0,8.153441255E0
1.736276096E0,-6.381693840E0,-2.032189369E-1,-3.563169718E0,7.311873402E0
1.741074326E0,-6.045227528E0,-3.920640945E-1,-2.286056280E0,6.474916481E0
1.745872555E0,-5.584865093E0,-4.536337852E-1,-7.888936996E-1,5.658520565E0
1.750670732E0,-3.375897646E0,-1.227571011E0,8.920519352E-1,3.701266291E0
1.755468961E0,-3.521229744E0,-3.107128143E-1,2.268005610E0,4.199934619E0
1.760267190E0,-4.326821327E0,1.252303123E-1,2.985776663E0,5.258510027E0
1.765065419E0,-2.292448521E0,-3.783269405E0,4.287234783E0,6.160262145E0
1.769863596E0,-4.914315701E0,4.521059990E-1,5.105591774E0,7.100842626E0
1.774661826E0,-2.904127121E0,-2.063960075E0,5.639913559E0,6.671020198E0
1.779460055E0,-2.687927723E0,-1.606111050E0,4.208638668E0,5.245682757E0
1.784258232E0,-2.814701557E0,-1.656945229E0,2.908113003E0,4.373229194E0
1.789056461E0,-2.998484373E0,-1.903915405E0,2.385076284E0,4.278363155E0
1.793854690E0,-5.397544861E0,-9.583740234E-1,1.398043990E0,5.657428594E0
1.798652867E0,-4.786869526E0,7.889251709E-1,1.006601334E0,4.954772349E0
1.803451096E0,-4.364511013E0,2.247404099E0,4.306600392E-1,4.928006659E0
1.808249326E0,-4.530815125E0,2.582383156E0,3.913336992E-1,5.229735225E0
1.813047503E0,-3.422125816E0,1.916776180E0,-9.781931341E-2,3.923588236E0
1.817845732E0,-2.961298943E0,1.088018417E0,5.996647477E-1,3.211335129E0
1.822643961E0,-3.436660051E0,5.205616951E-1,5.965580344E-1,3.526683750E0
1.827442138E0,-2.789474249E0,-2.128039360E0,1.973259211E0,4.025353403E0
1.832240367E0,-2.002142429E0,-1.793987274E0,1.110204101E0,2.908525020E0
1.837038596E0,-7.997550964E-1,-2.711439133E0,1.548438787E0,3.223224017E0
1.841836774E0,9.047746658E-2,-3.686602592E0,1.492217183E0,3.978182621E0
1.846635003E0,8.757271767E-1,-4.715223312E0,1.393598795E0,4.994231330E0
1.851433232E0,1.586195946E0,-5.590103149E0,1.548378944E0,6.013547053E0
1.856231409E0,2.528583527E0,-6.412539482E0,1.896371961E0,7.149169453E0
1.861029638E0,2.557662964E0,-6.495723724E0,2.322971582E0,7.357463117E0
1.865827867E0,2.886090279E0,-6.493968964E0,2.229874372E0,7.448052746E0
1.870626044E0,2.867957592E0,-6.207174301E0,2.128755808E0,7.161410116E0
1.875424274E0,2.398641109E0,-5.781745911E0,1.968268156E0,6.561718104E0
1.880222503E0,2.097354889E0,-5.019855499E0,1.737931132E0,5.711239041E0
1.885020732E0,1.868838787E0,-4.141546249E0,1.543968916E0,4.798833583E0
1.889818909E0,1.670292854E0,-3.442775726E0,1.511092782E0,4.114120115E0
1.894617138E0,1.120421171E0,-2.598090172E0,1.579716206E0,3.240512218E0
1.899415367E0,9.801540375E-1,-2.015490532E0,1.660426974E0,2.789251111E0
1.904213544E0,7.753841877E-1,-1.753119469E0,1.396801949E0,2.371856698E0
1.909011774E0,3.821060658E-1,-1.539384842E0,1.033868432E0,1.893302583E0
1.913810003E0,1.475188732E-1,-1.170949936E0,1.067268610E0,1.591209558E0
1.918608180E0,5.403447151E-2,-1.039811134E0,1.089070082E0,1.506718475E0
1.923406409E0,1.204237938E-1,-4.937086105E-1,1.012311101E0,1.132706426E0
1.928204638E0,1.275410652E-1,3.808078766E-1,8.719681501E-1,9.600051130E-1
1.933002815E0,2.515408993E-1,1.516872406E0,6.836681366E-1,1.682728986E0
1.937801044E0,6.090300083E-1,2.406397343E0,6.126998663E-1,2.556768830E0
1.942599274E0,4.912512302E-1,3.153894901E0,7.361446619E-1,3.275712103E0
1.947397451E0,4.558043480E-1,3.226023197E0,6.060329676E-1,3.313949189E0
1.952195680E0,2.152411938E-1,3.018627167E0,3.454723954E-1,3.045946473E0
1.956993909E0,8.540892601E-2,2.381725311E0,2.092304975E-1,2.392422944E0
1.961792086E0,-1.325902939E-1,1.468529224E0,1.422930360E-1,1.481352617E0
1.966590315E0,-7.715408802E-1,5.889759064E-1,1.462291926E-2,9.707635025E-1
1.971388544E0,-1.387876034E0,-3.226490021E-1,-2.357960194E-1,1.444265220E0
1.976186721E0,-1.900927782E0,-8.827619553E-1,-3.989780247E-1,2.133536633E0
1.980984951E0,-2.211189508E0,-1.188415527E0,-4.544356167E-1,2.551117841E0
1.985783180E0,-2.341103077E0,-1.303024292E0,-5.192224979E-1,2.729144174E0
1.990581409E0,-2.685582876E0,-1.454700470E0,-6.944392920E-1,3.132212441E0
1.995379586E0,-2.910912275E0,-1.393422127E0,-6.748594642E-1,3.297039702E0
2.000177815E0,-3.109872341E0,-1.375921249E0,-5.274580121E-1,3.441319110E0
2.004976044E0,-3.197989464E0,-1.171092987E0,-6.335283518E-1,3.464094913E0
2.009774221E0,-3.194876671E0,-1.094878197E0,-8.602062464E-1,3.485104015E0
2.014572451E0,-3.044557095E0,-1.214184761E0,-1.035605669E0,3.437448420E0
2.019370628E0,-2.912287951E0,-1.296845436E0,-9.498907328E-1,3.326487877E0
2.024168857E0,-2.886737347E0,-1.310970306E0,-7.235920429E-1,3.251996479E0
2.028967086E0,-2.790803909E0,-1.016789436E0,-8.066481352E-1,3.077844771E0
2.033765315E0,-2.465579033E0,-1.354741096E0,-1.398209214E0,3.141558914E0
2.038563492E0,-1.999067068E0,-1.668304443E0,-2.642503977E0,3.709762274E0
2.043361721E0,-1.348812461E0,-1.741775513E0,-4.054402351E0,4.614244837E0
2.048159951E0,-1.239069819E0,-2.244101524E0,-4.513105869E0,5.190318897E0
2.052958128E0,-1.023467183E0,-2.111918449E0,-4.907813072E0,5.440065603E0
2.057756357E0,2.741656303E-1,-3.837280273E-1,-4.934905052E0,4.957388614E0
2.062554586E0,1.338546991E0,2.262163162E0,-4.934317589E0,5.590758472E0
2.067352763E0,1.603296399E0,2.886600971E0,-5.084276199E0,6.062416101E0
2.072150992E0,4.033703804E-1,9.655036926E-1,-4.779362679E0,4.892567083E0
2.076949221E0,-4.072365165E-1,-1.044980049E0,-4.658073902E0,4.791187469E0
2.081747399E0,-7.194861174E-1,-2.027805328E0,-4.416701317E0,4.912932449E0
2.086545628E0,-4.770927429E-1,-1.669165611E0,-4.276307583E0,4.615250575E0
2.091343857E0,-4.271567464E-1,-8.836002350E-1,-3.592920303E0,3.724552130E0
2.096142034E0,-1.096295953E0,-2.294200897E0,-3.118010998E0,4.023333836E0
2.100940263E0,-1.116123438E0,-1.335672379E0,-2.618134022E0,3.143943064E0
2.105738492E0,-6.048928499E-1,-1.916527748E0,-2.413996935E0,3.141075480E0
2.110536669E0,-1.239615440E0,-1.247074127E0,-2.075909615E0,2.720522201E0
2.115334899E0,-1.119741082E0,-2.248218536E0,-1.929746389E0,3.167369225E0
2.120133128E0,-5.293619633E-1,-3.625210762E0,-1.375246286E0,3.913269669E0
2.124931357E0,-1.104400754E-1,-5.439612389E0,-8.741474152E-1,5.510509382E0
2.129729534E0,3.543497324E-1,-6.692876816E0,-4.500463009E-1,6.717343633E0
2.134527763E0,3.510190248E-1,-7.567685127E0,1.040649414E-2,7.575828723E0
2.139325992E0,7.973096371E-1,-9.356302261E0,9.462828636E-1,9.437772297E0
2.144124169E0,8.153124452E-1,-8.687665939E0,1.964415669E0,8.944227344E0
2.148922399E0,4.178406000E-1,-7.312401772E0,3.207845926E0,7.996004372E0
2.153720576E0,5.842839479E-1,-5.926627159E0,4.352306366E0,7.376236704E0
2.158518805E0,1.326242566E0,-5.525820732E0,5.137020588E0,7.660456555E0
2.163317034E0,3.120357990E-1,-3.142278671E0,5.139339447E0,6.031922707E0
2.168115263E0,8.118661046E-1,4.987335205E-1,5.100305557E0,5.188543001E0
2.172913440E0,1.054758310E0,2.846986294E0,4.669279575E0,5.569561724E0
2.177711669E0,7.473587990E-1,4.328144073E0,4.408993244E0,6.223391175E0
2.182509899E0,7.306892276E-1,5.939774036E0,4.354243279E0,7.400963240E0
2.187308076E0,3.169270158E-1,4.924026012E0,3.236380577E0,5.900901130E0
2.192106305E0,1.380262226E-1,4.201803207E0,2.478980541E0,4.880527221E0
2.196904534E0,-1.212498546E-1,3.679168224E0,2.017742157E0,4.197888012E0
2.201702711E0,-4.472827613E-1,3.388922691E0,2.218729258E0,4.075244581E0
2.206500940E0,-9.848380089E-1,1.616327286E0,2.318245649E0,2.992771740E0
2.211299169E0,-9.230735898E-1,2.144249439E0,2.873564720E0,3.702329633E0
2.216097346E0,-8.256471157E-1,5.745992661E-1,2.701405525E0,2.882611540E0
2.220895576E0,-5.246474743E-1,1.493819237E0,3.107999086E0,3.488038017E0
2.225693805E0,-2.902724147E-1,2.073221207E-1,2.343201637E0,2.370197133E0
2.230491982E0,-2.441793084E-1,6.689901352E-1,2.187086821E0,2.300113062E0
2.235290211E0,3.625651002E-1,1.709879875E0,1.712691545E0,2.447131989E0
2.240088440E0,1.102432728E0,-1.331574440E0,1.182103872E0,2.094234460E0
2.244886617E0,1.111246586E0,-2.489513397E0,6.566281915E-1,2.804230110E0
2.249684846E0,1.161453247E0,-2.892666817E0,-3.403343260E-2,3.117315068E0
2.254483076E0,1.000136852E0,-2.373227119E0,-5.920640826E-1,2.642540551E0
2.259281253E0,8.228851557E-1,-1.582793236E0,-9.615873694E-1,2.026579551E0
2.264079482E0,4.933390915E-1,-8.062400818E-1,-1.149090171E0,1.487889361E0
2.268877711E0,-2.035291791E-1,2.643613815E-1,-1.093164563E0,1.142943493E0
2.273675940E0,-3.346420228E-1,4.416141510E-1,-5.239995718E-1,7.626164784E-1
2.278474117E0,-6.551628113E-1,7.947397232E-1,-1.929406226E-1,1.047891035E0
2.283272346E0,-1.132544398E0,1.406997681E0,-3.193200827E-1,1.834193175E0
2.288070576E0,-1.227331161E0,2.005702972E0,-6.553149819E-1,2.441029275E0
2.292868753E0,-1.402075291E0,2.736623287E0,-9.726893902E-1,3.225065393E0
2.297666982E0,-1.516102910E0,2.897640228E0,-1.318201780E0,3.525981120E0
2.302465211E0,-1.671636343E0,2.862567425E0,-1.279331326E0,3.553216707E0
2.307263388E0,-1.797242045E0,2.853952408E0,-1.106369734E0,3.549531984E0
2.312061617E0,-1.797580957E0,2.456320286E0,-1.050534487E0,3.220004558E0
2.316859846E0,-1.525393963E0,1.615552902E0,-8.969503641E-1,2.396113077E0
2.321658024E0,-1.069587946E0,4.948987961E-1,-1.292919755E0,1.749452682E0
2.326456253E0,-1.005287170E0,-4.634332657E-1,-1.539578915E0,1.896226759E0
2.331254482E0,-9.038039446E-1,-1.510615349E0,-1.538755417E0,2.338073680E0
2.336052659E0,-9.492627978E-1,-2.242999077E0,-1.433156133E0,2.825965537E0
2.340850888E0,-1.017832637E0,-2.632658958E0,-1.412849188E0,3.156425082E0
2.345649117E0,-5.814144611E-1,-2.706621170E0,-1.512675762E0,3.154683644E0
2.350447346E0,-1.887847930E-1,-2.766414642E0,-1.411502719E0,3.111435295E0
2.355245524E0,5.672150850E-1,-1.806676865E0,-1.438928604E0,2.378303970E0
2.360043753E0,1.453857183E0,-6.937761307E-1,-1.831767082E0,2.439343492E0
2.364841930E0,2.489691973E0,5.625772476E-1,-2.000843763E0,3.243213691E0
2.369640159E0,3.437470436E0,1.926416397E0,-2.266633749E0,4.545867539E0
2.374438388E0,4.117682457E0,3.247233391E0,-2.603193283E0,5.854609191E0
2.379236565E0,4.935080051E0,3.519890785E0,-3.059657812E0,6.790151116E0
2.384034794E0,5.784004688E0,4.090948582E0,-3.954411030E0,8.113441756E0
2.388833024E0,6.267060757E0,4.174160004E0,-4.755433083E0,8.905829892E0
2.393631253E0,6.570500851E0,3.672538757E0,-5.329158783E0,9.222741224E0
2.398429430E0,6.851510525E0,2.797126293E0,-5.961243629E0,9.502817350E0
2.403227659E0,6.948296547E0,2.085571289E0,-6.085108757E0,9.468737038E0
2.408025888E0,6.756238937E0,9.758996964E-1,-6.079325199E0,9.140970390E0
2.412824065E0,6.448159218E0,5.526466370E-1,-5.990073204E0,8.818455227E0
2.417622294E0,6.039615631E0,1.716766357E-1,-5.727441311E0,8.325263588E0
2.422420524E0,5.727809906E0,-3.394632339E-1,-5.542044163E0,7.977298735E0
2.427218701E0,5.372010708E0,-2.047061920E-1,-5.491657734E0,7.684966385E0
2.432016930E0,5.008226871E0,2.566804886E-1,-5.509374142E0,7.449927832E0
2.436815159E0,4.514588833E0,3.819875717E-1,-5.199746132E0,6.896722894E0
2.441613336E0,3.879760742E0,-3.944931030E-1,-5.357235909E0,6.626322117E0
2.446411565E0,3.414594412E0,-1.283468246E0,-6.006403923E0,7.027348990E0
2.451209794E0,2.771069050E0,-2.671800613E0,-6.132474422E0,7.240482355E0
2.456007971E0,1.871555448E0,-3.521871567E0,-5.968166828E0,7.178113569E0
2.460806201E0,8.937324882E-1,-3.750649452E0,-5.240153790E0,6.505792866E0
2.465604430E0,-2.865357697E-2,-4.013109207E0,-4.410613060E0,5.963168126E0
2.470402607E0,-1.510380507E0,-3.845100403E0,-3.033500671E0,5.125248551E0
2.475200836E0,-2.665818453E0,-3.163188934E0,-2.072136641E0,4.626672942E0
2.479999065E0,-3.611595869E0,-2.445018768E0,-6.272530556E-2,4.361843184E0
2.484797294E0,-4.475172997E0,-1.606111526E0,1.956134439E0,5.141325658E0
2.489595471E0,-5.562744141E0,-1.020936966E0,3.271377563E0,6.533631902E0
2.494393701E0,-6.670248985E0,1.384677887E-1,5.383939743E0,8.573109238E0
2.499191930E0,-7.385107040E0,1.542443275E0,7.428686619E0,1.058793285E1
2.503990107E0,-7.691895485E0,3.224804401E0,9.529605865E0,1.266404389E1
2.508788336E0,-8.125449181E0,4.683656216E0,1.126345825E1,1.465691140E1
2.513586565E0,-7.939023972E0,5.787993908E0,1.184980965E1,1.539308168E1
2.518384742E0,-7.210049629E0,6.391194820E0,1.216387653E1,1.551747657E1
2.523182971E0,-7.678979874E0,5.882380486E0,1.173788738E1,1.521009968E1
2.527981201E0,-7.755419731E0,5.089170933E0,1.019858742E1,1.378613003E1
2.532779378E0,-7.418245316E0,4.451920033E0,8.718956947E0,1.228292171E1
2.537577607E0,-6.658134460E0,3.749219418E0,6.682958603E0,1.015132191E1
2.542375836E0,-5.664910316E0,2.878405094E0,4.890153408E0,8.018106081E0
2.547174013E0,-4.777954578E0,1.739809513E0,3.459440708E0,6.150082691E0
2.551972242E0,-4.228792191E0,5.369501114E-1,3.110202074E0,5.276775128E0
2.556770471E0,-3.701478243E0,2.347755432E-2,3.760706186E0,5.276779643E0
2.561568649E0,-2.563248396E0,4.392375946E-1,3.815697908E0,4.617653358E0
2.566366878E0,-1.206835628E0,4.870815277E-1,3.342574596E0,3.586991160E0
2.571165107E0,2.832660377E-1,4.149961472E-1,2.783644915E0,2.828628724E0
2.575963284E0,1.307355404E0,-4.518003464E-1,1.679764271E0,2.175984768E0
2.580761513E0,1.732221246E0,-1.826522827E0,3.857038021E-1,2.546673027E0
2.585559742E0,2.055416822E0,-2.945110321E0,-6.793599129E-1,3.655125580E0
2.590357971E0,2.279982328E0,-3.875970840E0,-1.249809861E0,4.667279086E0
2.595156149E0,2.187974930E0,-4.601215363E0,-1.619451642E0,5.346123897E0
2.599954378E0,2.016849756E0,-4.981121063E0,-2.018537760E0,5.740535225E0
2.604752607E0,1.912175298E0,-5.587746620E0,-2.552927971E0,6.434032008E0
2.609550784E0,1.736570597E0,-5.823892593E0,-2.723191977E0,6.659517769E0
2.614349013E0,1.637676954E0,-5.764539719E0,-2.686452866E0,6.567262213E0
2.619147242E0,1.221153617E0,-5.708548546E0,-2.515465736E0,6.356595829E0
2.623945419E0,6.882140636E-1,-5.762826920E0,-2.537628412E0,6.334301119E0
2.628743649E0,2.459159493E-1,-5.742409706E0,-2.795583963E0,6.391481329E0
2.633541878E0,-2.977120876E-1,-5.199779510E0,-3.135756969E0,6.079417013E0
2.638340107E0,-2.885731459E-1,-4.411830902E0,-4.386677265E0,6.228199081E0
2.643138284E0,-2.491739988E-1,-3.867383957E0,-5.834777832E0,7.004525587E0
2.647936513E0,-2.125953436E-1,-3.249529839E0,-7.271403790E0,7.967305317E0
2.652734742E0,1.746304631E-1,-2.473805428E0,-9.271111488E0,9.597068163E0
2.657532919E0,9.874714017E-1,-1.845507622E0,-1.047524452E1,1.068230995E1
2.662331149E0,1.876291871E0,-1.626905441E0,-1.004763699E1,1.034999041E1
2.667129378E0,2.460837364E0,-1.366039276E0,-8.671673775E0,9.117001146E0
2.671927555E0,2.433978796E0,-9.654808044E-1,-6.697175980E0,7.190867268E0
2.676725784E0,2.232237816E0,-5.907344818E-1,-4.766196251E0,5.296081532E0
2.681524013E0,1.834719419E0,-1.944084167E-1,-2.752870560E0,3.313953274E0
2.686322190E0,1.396861792E0,8.936691284E-2,-9.157477617E-1,1.672663527E0
2.691120419E0,9.464573264E-1,2.438983917E-1,4.780343771E-1,1.088018732E0
2.695918649E0,5.655502081E-1,6.886672974E-2,1.588520527E0,1.687598035E0
2.700716826E0,2.621350288E-1,-6.232261658E-2,1.850470066E0,1.869983515E0
2.705515055E0,6.945395470E-2,-3.284263611E-2,2.006968975E0,2.008438935E0
2.710313284E0,-2.533304691E-2,3.727054596E-2,1.741988540E0,1.742571356E0
2.715111461E0,-1.533255577E-1,-8.634376526E-2,1.812025309E0,1.820549283E0
2.719909690E0,3.123503923E-1,-3.557481766E-1,2.303138256E0,2.351290148E0
2.724707919E0,1.288635969E0,-4.527521133E-1,2.908560038E0,3.213298715E0
2.729506096E0,1.935615897E0,-8.287382126E-1,2.266800404E0,3.093832574E0
2.734304326E0,2.980711937E0,-1.082002640E0,2.030598164E0,3.765461760E0
2.739102555E0,3.924677372E0,-1.335089684E0,2.435398340E0,4.807985234E0
2.743900732E0,4.485237122E0,-1.669583321E0,3.161922216E0,5.736079899E0
2.748698961E0,5.322373390E0,-2.448274612E0,3.161134005E0,6.656911842E0
2.753497190E0,6.396613121E0,-3.187494278E0,2.150647163E0,7.463381433E0
2.758295419E0,7.070773602E0,-3.860811234E0,1.209037304E0,8.146377962E0
2.763093596E0,7.688072205E0,-4.346589088E0,7.070035934E-1,8.859974323E0
2.767891826E0,8.437019348E0,-4.389888763E0,3.881955147E-2,9.510832024E0
2.772690055E0,8.807511330E0,-4.316506386E0,-2.007180452E-1,9.810441934E0
2.777488232E0,9.024444580E0,-4.176820755E0,2.258909941E-1,9.946731038E0
2.782286461E0,8.829408646E0,-4.028214455E0,7.367820740E-1,9.732821613E0
2.787084690E0,7.881633759E0,-3.696140289E0,1.030215144E0,8.766010894E0
2.791882867E0,6.072027206E0,-3.395591736E0,1.304810524E0,7.078282852E0
2.796681096E0,4.253064156E0,-2.768002510E0,1.329315662E0,5.245709936E0
2.801479326E0,3.045542240E0,-2.246362686E0,1.390313625E0,4.031680150E0
2.806277503E0,1.665708065E0,-1.694551468E0,1.563543677E0,2.844425578E0
2.811075732E0,8.876304030E-1,-9.861488342E-1,1.474928141E0,1.983882626E0
2.815873961E0,-2.309679985E-3,-5.395421982E-1,1.173395157E0,1.291498088E0
2.820672138E0,-4.936168790E-1,-3.901958466E-2,5.859434605E-1,7.671439826E-1
2.825470367E0,-8.412066102E-1,3.792209625E-1,1.943140030E-1,9.429713841E-1
2.830268596E0,-1.061742425E0,6.770915985E-1,3.865635395E-2,1.259858851E0
2.835066774E0,-1.091652513E0,1.084235191E0,6.141281128E-2,1.539819045E0
2.839865003E0,-1.034538031E0,1.442998886E0,-1.525857449E-1,1.782076635E0
2.844663232E0,-1.041032553E0,1.646105766E0,-3.848403692E-1,1.985324930E0
2.849461461E0,-1.025027990E0,1.794274330E0,-5.941293836E-1,2.150137781E0
2.854259638E0,-9.552542567E-1,1.858941555E0,-7.637730241E-1,2.225201931E0
2.859057867E0,-9.744867086E-1,1.899939060E0,-8.341890574E-1,2.292436294E0
2.863856096E0,-9.484189749E-1,1.836009502E0,-8.036415577E-1,2.217266154E0
2.868654274E0,-8.388596773E-1,1.736550331E0,-7.324593663E-1,2.062956455E0
2.873452503E0,-6.417466402E-1,1.582465172E0,-6.428523064E-1,1.824635267E0
2.878250732E0,-3.796526790E-1,1.397654533E0,-5.214312077E-1,1.539306615E0
2.883048909E0,-7.006186247E-2,1.330210686E0,-3.785223961E-1,1.384791803E0
2.887847138E0,2.794647217E-1,1.317743301E0,-2.052438259E-1,1.362597874E0
2.892645367E0,6.064985991E-1,1.367246628E0,-9.299445152E-2,1.498616649E0
2.897443544E0,9.009970427E-1,1.351959229E0,9.163439274E-2,1.627263435E0
2.902241774E0,1.023940682E0,1.374632835E0,2.882266045E-1,1.738143990E0
2.907040003E0,1.166364670E0,1.385037422E0,3.868386745E-1,1.851588335E0
2.911838232E0,1.244129896E0,1.378393173E0,5.068935156E-1,1.924777383E0
2.916636409E0,1.252640963E0,1.302189827E0,5.339641571E-1,1.884124584E0
2.921434638E0,1.135174036E0,1.139855385E0,4.950239658E-1,1.683133719E0
2.926232815E0,9.924982786E-1,1.094647408E0,5.220768452E-1,1.567121569E0
2.931031044E0,8.679039478E-1,1.116236687E0,5.436807871E-1,1.514869764E0
2.935829274E0,7.428050041E-1,1.113774300E0,5.674560070E-1,1.454049100E0
2.940627503E0,5.411607623E-1,1.142286301E0,6.415072680E-1,1.417464122E0
2.945425680E0,3.303630650E-1,1.120539665E0,7.111315727E-1,1.367646522E0
2.950223909E0,9.667712450E-2,1.129834175E0,7.190487385E-1,1.342722167E0
2.955022138E0,-1.362022758E-1,1.229834557E0,7.631695271E-1,1.453778464E0
2.959820315E0,-3.637367189E-1,1.339230537E0,7.887319326E-1,1.596227081E0
2.964618544E0,-6.239019632E-1,1.438984871E0,7.173715830E-1,1.724689278E0
2.969416774E0,-9.046691060E-1,1.567337036E0,6.375864744E-1,1.918720430E0
2.974214951E0,-1.220576167E0,1.776765823E0,4.918156862E-1,2.211014618E0
2.979013180E0,-1.576019287E0,1.828268051E0,2.563802004E-1,2.427371349E0
2.983811409E0,-1.910620093E0,1.896441936E0,7.214021683E-2,2.692984473E0
2.988609586E0,-2.195623875E0,1.969379902E0,-8.462107182E-2,2.950657914E0
2.993407815E0,-2.505023956E0,1.982506275E0,-1.259205341E-1,3.197081815E0
2.998206044E0,-2.760220766E0,1.936000347E0,-1.471828222E-1,3.374696846E0
3.003004274E0,-2.954536676E0,1.870721340E0,-1.669242382E-1,3.500964011E0
3.007802451E0,-3.143378735E0,1.705518246E0,-2.303997278E-1,3.583672193E0
3.012600680E0,-3.248024702E0,1.588741779E0,-3.897941113E-1,3.636716150E0
3.017398909E0,-3.406721115E0,1.513180733E0,-5.827052593E-1,3.772931235E0
3.022197086E0,-3.468674183E0,1.416663170E0,-7.111140490E-1,3.813701393E0
3.026995315E0,-3.457735777E0,1.215566635E0,-8.446125984E-1,3.761237747E0
3.031793544E0,-3.371198654E0,9.554567337E-1,-9.712085724E-1,3.636086361E0
3.036591721E0,-3.223195791E0,7.606887817E-1,-1.107491255E0,3.492015952E0
3.041389951E0,-2.930294991E0,5.213241577E-1,-1.224520922E0,3.218362798E0
3.046188180E0,-2.686430216E0,3.832311630E-1,-1.331565499E0,3.022720647E0
3.050986357E0,-2.339369297E0,2.912683487E-1,-1.345182180E0,2.714221999E0
3.055784586E0,-2.066968203E0,3.050785065E-1,-1.332474709E0,2.478087830E0
3.060582815E0,-1.843661427E0,4.125337601E-1,-1.331759453E0,2.311461616E0
3.065380992E0,-1.658154011E0,4.700746536E-1,-1.350472093E0,2.189570683E0
3.070179221E0,-1.642009616E0,5.398216248E-1,-1.321993947E0,2.176067775E0
3.074977451E0,-1.763691664E0,4.687137604E-1,-1.278045058E0,2.227936275E0
3.079775628E0,-2.013009787E0,3.332910538E-1,-1.147543788E0,2.340971609E0
3.084573857E0,-2.284574986E0,1.001024246E-1,-9.741197824E-1,2.485601076E0
3.089372086E0,-2.611717939E0,-4.682636261E-2,-7.152158022E-1,2.708283026E0
3.094170315E0,-2.915132999E0,-1.817636490E-1,-5.720329285E-1,2.976282933E0
3.098968492E0,-3.144616127E0,-2.402973175E-1,-3.106449842E-1,3.169046180E0
3.103766721E0,-3.230910301E0,-3.779449463E-1,-2.113156319E-1,3.259797241E0
3.108564951E0,-3.250305891E0,-5.444984436E-1,-1.309468746E-1,3.298198603E0
3.113363128E0,-3.159766197E0,-8.379306793E-1,-1.487178802E-1,3.272364169E0
3.118161357E0,-3.004530907E0,-1.174349785E0,-3.405724764E-1,3.243808410E0
3.122959586E0,-2.805537462E0,-1.414974213E0,-7.700452805E-1,3.235144851E0
3.127757763E0,-2.321194172E0,-1.741422653E0,-1.259480119E0,3.163350346E0
3.132555992E0,-1.799945712E0,-1.940814972E0,-1.867936134E0,3.239714914E0
3.137354221E0,-1.172046423E0,-2.087314606E0,-2.245972157E0,3.282524335E0
3.142152451E0,-5.755650401E-1,-2.161800385E0,-2.510589838E0,3.362694954E0
3.146950628E0,2.531246841E-2,-2.250352859E0,-2.714325428E0,3.525945440E0
3.151748857E0,6.727387905E-1,-2.536877632E0,-2.868950129E0,3.888341605E0
3.156547086E0,1.315218329E0,-3.009149551E0,-2.852711201E0,4.350027755E0
3.161345263E0,1.920616388E0,-3.518744469E0,-2.813809872E0,4.897739881E0
3.166143492E0,2.387430906E0,-3.869662285E0,-2.646864891E0,5.261179172E0
3.170941721E0,2.861040831E0,-4.035849571E0,-2.566916466E0,5.573391834E0
3.175739899E0,3.243150473E0,-4.237380981E0,-2.544979572E0,5.911881561E0
3.180538128E0,3.586506844E0,-4.562725067E0,-2.500323772E0,6.319265016E0
3.185336357E0,3.717212677E0,-4.732330322E0,-2.410050392E0,6.482357847E0
3.190134534E0,3.862945318E0,-4.698829651E0,-2.251414776E0,6.486155650E0
3.194932763E0,3.938543320E0,-4.347966194E0,-2.226040363E0,6.274726226E0
3.199730992E0,3.884409428E0,-3.799754143E0,-2.281698465E0,5.893463840E0
3.204529169E0,3.700241566E0,-3.214595795E0,-2.193826437E0,5.370129254E0
3.209327399E0,3.527093649E0,-2.757405281E0,-2.187249899E0,4.982743784E0
3.214125628E0,3.491557121E0,-2.279796600E0,-2.282973289E0,4.753988926E0
3.218923857E0,3.297426224E0,-1.724294662E0,-2.200331688E0,4.322923932E0
3.223722034E0,3.116891861E0,-1.222283363E0,-2.101125717E0,3.952685261E0
3.228520263E0,2.885358095E0,-6.731014252E-1,-1.768831611E0,3.450669809E0
3.233318492E0,2.923699379E0,-2.988662720E-1,-1.957899928E0,3.531389420E0
3.238116669E0,2.873278379E0,-3.946971893E-2,-1.966720462E0,3.482136683E0
3.242914899E0,2.837100029E0,1.244020462E-1,-1.964957952E0,3.453356657E0
3.247713128E0,2.803734064E0,2.192153931E-1,-1.969115734E0,3.433132224E0
3.252511305E0,2.773353338E0,2.809333801E-1,-1.947893143E0,3.400691106E0
3.257309534E0,2.729409695E0,2.164011002E-1,-1.798627853E0,3.275907336E0
3.262107763E0,2.733816862E0,7.830047607E-2,-1.626810789E0,3.182200331E0
3.266905940E0,2.743041277E0,-1.286125183E-1,-1.421063781E0,3.091963599E0
3.271704169E0,2.835496426E0,-3.684864044E-1,-1.243766546E0,3.118136853E0
3.276502399E0,2.934302092E0,-6.796188354E-1,-1.092954874E0,3.204147450E0
3.281300628E0,2.998712063E0,-9.831457138E-1,-9.808911681E-1,3.304693180E0
3.286098805E0,3.021386147E0,-1.190778732E0,-8.219621181E-1,3.349977606E0
3.290897034E0,3.030985355E0,-1.426980019E0,-7.504034042E-1,3.433110757E0
3.295695263E0,2.998852730E0,-1.620084763E0,-5.871580839E-1,3.458691508E0
3.300493440E0,3.008544922E0,-1.803675652E0,-5.119215846E-1,3.544947406E0
3.305291669E0,2.967095375E0,-1.944387436E0,-4.034369588E-1,3.570302346E0
3.310089899E0,2.853121281E0,-2.061467171E0,-2.409653664E-1,3.528174067E0
3.314888076E0,2.702174187E0,-2.171764374E0,-8.974438906E-2,3.467904250E0
3.319686305E0,2.461448431E0,-2.237129211E0,5.444580317E-2,3.326625893E0
3.324484534E0,2.221665621E0,-2.274396896E0,2.747852802E-1,3.191267197E0
3.329282711E0,1.997256994E0,-2.176115990E0,4.295247197E-1,2.984796105E0
3.334080940E0,1.702506304E0,-1.975891113E0,5.974785089E-1,2.675752973E0
3.338879169E0,1.430680037E0,-1.735998154E0,7.568241358E-1,2.373461129E0
3.343677346E0,1.131700277E0,-1.456474304E0,9.192904830E-1,2.060863389E0
3.348475576E0,8.512225151E-1,-1.115843773E0,9.963433743E-1,1.721158684E0
3.353273805E0,5.658286810E-1,-7.475681305E-1,1.047811747E0,1.406033308E0
3.358071982E0,3.093852997E-1,-4.543714523E-1,1.035433292E0,1.172303196E0
3.362870211E0,6.319630146E-2,-5.686092377E-2,1.014326811E0,1.017883007E0
3.367668440E0,-1.745553017E-1,3.015527725E-1,9.344214201E-1,9.972697821E-1
3.372466617E0,-3.796479702E-1,6.520757675E-1,8.248450160E-1,1.117901914E0
3.377264846E0,-5.611171126E-1,1.059326172E0,6.975104809E-1,1.386919328E0
3.382063076E0,-6.852937341E-1,1.377538681E0,5.621995926E-1,1.638080798E0
3.386861305E0,-8.620424271E-1,1.695298195E0,4.454072714E-1,1.953340921E0
3.391659482E0,-1.014492035E0,2.048523903E0,3.019189835E-1,2.305818584E0
3.396457711E0,-1.161770105E0,2.384648800E0,1.369821429E-1,2.656129474E0
3.401255940E0,-1.263325453E0,2.643982410E0,-1.082158089E-2,2.930315903E0
3.406054117E0,-1.381472826E0,2.857683659E0,-1.726432443E-1,3.178777871E0
3.410852346E0,-1.494893074E0,3.049726009E0,-3.526194990E-1,3.414655846E0
3.415650576E0,-1.579974294E0,3.224919319E0,-5.597610474E-1,3.634522777E0
3.420448753E0,-1.687221766E0,3.342664242E0,-7.170384526E-1,3.812383200E0
3.425246982E0,-1.804838419E0,3.489060879E0,-9.007132053E-1,4.030170196E0
3.430045211E0,-1.918634534E0,3.594757080E0,-1.060499668E0,4.210474615E0
3.434843388E0,-2.054962397E0,3.743457794E0,-1.296544433E0,4.462888546E0
3.439641617E0,-2.096858501E0,3.789335728E0,-1.474809051E0,4.575034707E0
3.444439846E0,-2.095317364E0,3.746781826E0,-1.628546476E0,4.591393311E0
3.449238076E0,-2.160645962E0,3.754456520E0,-1.784126997E0,4.684809908E0
3.454036253E0,-2.309501171E0,3.840989113E0,-1.993793249E0,4.905324102E0
3.458834482E0,-2.434414387E0,3.893924713E0,-2.226589203E0,5.103598981E0
3.463632711E0,-2.461483717E0,3.848780632E0,-2.468050003E0,5.192618343E0
3.468430888E0,-2.524932384E0,3.789311886E0,-2.655719757E0,5.271339065E0
3.473229117E0,-2.567337036E0,3.744241714E0,-2.865929604E0,5.368809735E0
3.478027346E0,-2.536163568E0,3.672962666E0,-3.057713747E0,5.410396820E0
3.482825524E0,-2.489153624E0,3.563527107E0,-3.073290348E0,5.323506811E0
3.487623753E0,-2.383475780E0,3.435042858E0,-3.245366335E0,5.292719422E0
3.492421982E0,-2.285874128E0,3.378415108E0,-3.506494045E0,5.379071450E0
3.497220159E0,-2.182065964E0,3.295599461E0,-3.641183138E0,5.374067577E0
3.502018388E0,-2.026873589E0,3.124471188E0,-3.644757748E0,5.211026366E0
3.506816617E0,-1.834874511E0,3.001320362E0,-3.708552837E0,5.111560675E0
3.511614846E0,-1.658831239E0,2.808958054E0,-3.641354561E0,4.888908821E0
3.516413024E0,-1.458212376E0,2.635857105E0,-3.603491545E0,4.696730493E0
3.521211253E0,-1.223802567E0,2.369581699E0,-3.490046501E0,4.392383719E0
3.526009482E0,-9.965659976E-1,2.026860714E0,-3.308772087E0,4.006155372E0
3.530807659E0,-8.030533791E-1,1.700869560E0,-3.148631096E0,3.667659985E0
3.535605888E0,-6.124083996E-1,1.360424995E0,-3.016941547E0,3.365670292E0
3.540404117E0,-4.510565996E-1,1.010197639E0,-2.911961317E0,3.115039332E0
3.545202294E0,-2.782961130E-1,6.979284286E-1,-2.824466228E0,2.922697777E0
3.550000524E0,-1.968613863E-1,3.829278946E-1,-2.799730301E0,2.832645042E0
3.554798753E0,-7.717740536E-2,8.190345764E-2,-2.838418245E0,2.840648282E0
3.559596930E0,-2.201032639E-2,-3.295259476E-1,-2.874264240E0,2.893175889E0
3.564395159E0,2.844262123E-2,-6.983852386E-1,-2.845798969E0,2.930379275E0
3.569193388E0,3.121614456E-2,-1.070218086E0,-2.796607018E0,2.994553725E0
3.573991565E0,1.085052490E-1,-1.590837479E0,-2.842082262E0,3.258829369E0
3.578789794E0,7.895231247E-2,-1.987640381E0,-2.820016146E0,3.451005479E0
3.583588024E0,9.789943695E-3,-2.382694244E0,-2.814391613E0,3.687563946E0
3.588386201E0,-3.619146347E-2,-2.692293167E0,-2.703533649E0,3.815605655E0
3.593184430E0,-1.251761913E-1,-3.009589195E0,-2.630836487E0,3.999324546E0
3.597982659E0,-2.300884724E-1,-3.277060509E0,-2.519709826E0,4.140169548E0
3.602780836E0,-3.527281284E-1,-3.611720085E0,-2.336493015E0,4.316032752E0
3.607579065E0,-4.729545116E-1,-3.979744911E0,-2.145538568E0,4.545920289E0
3.612377294E0,-4.298331738E-1,-4.297090530E0,-2.122631550E0,4.811996288E0
3.617175524E0,-6.598298550E-1,-4.527480125E0,-2.141893148E0,5.051846987E0
3.621973701E0,-9.250396490E-1,-4.601164818E0,-2.242231846E0,5.201347872E0
3.626771930E0,-1.219993234E0,-4.708938599E0,-2.251706362E0,5.360286164E0
3.631570159E0,-1.546635151E0,-4.549131393E0,-2.311781883E0,5.332073912E0
3.636368336E0,-1.909730196E0,-4.413258553E0,-2.466069698E0,5.404203940E0
3.641166565E0,-2.242306232E0,-4.255522728E0,-2.562328815E0,5.450040356E0
3.645964794E0,-2.545129776E0,-4.032773972E0,-2.567747116E0,5.416112696E0
3.650762971E0,-2.856776476E0,-3.845213890E0,-2.559576511E0,5.431231316E0
3.655561201E0,-3.041070223E0,-3.623348236E0,-2.441336870E0,5.323240203E0
3.660359430E0,-3.122468948E0,-3.415151596E0,-2.279928207E0,5.158599169E0
3.665157659E0,-3.122748375E0,-3.192183495E0,-2.035505056E0,4.907634227E0
3.669955836E0,-2.963452578E0,-2.911842346E0,-1.795287132E0,4.525917909E0
3.674754065E0,-2.647542477E0,-2.720466614E0,-1.594193220E0,4.117265086E0
3.679552294E0,-2.216321468E0,-2.656779289E0,-1.479652286E0,3.762967968E0
3.684350471E0,-1.761677742E0,-2.761959076E0,-1.303244233E0,3.525673260E0
3.689148701E0,-1.294027686E0,-2.861948967E0,-1.205776215E0,3.364395313E0
3.693946930E0,-8.213348389E-1,-2.864016533E0,-1.133683205E0,3.187854957E0
3.698745107E0,-4.227955341E-1,-2.761361122E0,-1.095221519E0,3.000563528E0
3.703543336E0,-1.297121048E-1,-2.561457634E0,-1.107888579E0,2.793798050E0
3.708341565E0,1.248402596E-1,-2.362440109E0,-1.097716689E0,2.608005040E0
3.713139742E0,3.886466026E-1,-2.212107658E0,-1.124646306E0,2.511831162E0
3.717937971E0,5.996797085E-1,-2.074474335E0,-1.157350540E0,2.450004039E0
3.722736201E0,8.251221180E-1,-2.080837250E0,-1.101961613E0,2.495000915E0
3.727534430E0,1.053170443E0,-2.087528229E0,-1.003333807E0,2.544331114E0
3.732332607E0,1.271899700E0,-2.159017563E0,-8.176382780E-1,2.635833462E0
3.737130836E0,1.483706474E0,-2.297581673E0,-6.395950913E-1,2.808798377E0
3.741929065E0,1.635777950E0,-2.350260735E0,-4.254762530E-1,2.894913654E0
3.746727242E0,1.766217470E0,-2.410462379E0,-2.371819913E-1,2.997683828E0
3.751525471E0,1.891632080E0,-2.463921547E0,-6.710654497E-2,3.107037915E0
3.756323701E0,1.990649700E0,-2.448550224E0,1.041797996E-1,3.157362485E0
3.761121878E0,2.029624224E0,-2.479287148E0,2.789211571E-1,3.216214586E0
3.765920107E0,2.077857494E0,-2.520327568E0,4.856170118E-1,3.302327467E0
3.770718336E0,2.157156944E0,-2.454575539E0,6.569313407E-1,3.333140553E0
3.775516513E0,2.260304213E0,-2.356327057E0,9.620766044E-1,3.403945318E0
3.780314742E0,2.279143095E0,-2.304670334E0,1.027777672E0,3.400341974E0
3.785112971E0,2.282955647E0,-2.254203796E0,1.207180142E0,3.427915567E0
3.789911149E0,2.298464537E0,-2.333892822E0,1.339372873E0,3.538914329E0
3.794709378E0,2.380648375E0,-2.240048409E0,1.595745802E0,3.637541508E0
3.799507607E0,2.294261217E0,-2.290893555E0,1.865680695E0,3.740667356E0
3.804305784E0,2.292927742E0,-2.330817223E0,2.169941902E0,3.924139959E0
3.809104013E0,2.333958149E0,-2.373969078E0,2.323540688E0,4.059794472E0
3.813902242E0,2.280842304E0,-2.329497337E0,2.460237026E0,4.084307247E0
3.818700419E0,2.209901810E0,-2.293003082E0,2.574376583E0,4.094990102E0
3.823498649E0,2.051934719E0,-2.097002029E0,2.703397751E0,3.989512878E0
3.828296878E0,1.807081103E0,-1.846642494E0,3.004177570E0,3.962412584E0
3.833095107E0,1.597449064E0,-1.591954231E0,3.110105515E0,3.841733736E0
3.837893284E0,1.456376791E0,-1.282564163E0,3.159358501E0,3.707768915E0
3.842691513E0,1.216617703E0,-9.015855789E-1,3.230243206E0,3.567560282E0
3.847489742E0,9.619455338E-1,-5.158414841E-1,3.231450558E0,3.410821654E0
3.852287919E0,6.925686598E-1,-1.107845306E-1,3.246180534E0,3.321086061E0
3.857086149E0,4.752902985E-1,3.208398819E-1,3.159446239E0,3.211065187E0
3.861884378E0,2.382247448E-1,7.527647018E-1,3.016783714E0,3.118395373E0
3.866682555E0,7.706284523E-3,1.173083305E0,2.849485397E0,3.081517623E0
3.871480784E0,-1.898076534E-1,1.569864273E0,2.629355907E0,3.068226404E0
3.876279013E0,-3.446153402E-1,1.897699833E0,2.435907841E0,3.107035789E0
3.881077190E0,-5.164852142E-1,2.237833500E0,2.241152525E0,3.208959394E0
3.885875419E0,-6.744462848E-1,2.556654930E0,2.136686802E0,3.399528307E0
3.890673649E0,-7.946392894E-1,2.803871632E0,2.089759827E0,3.586118216E0
3.895471878E0,-8.987055421E-1,3.082237720E0,2.014731646E0,3.790383176E0
3.900270055E0,-9.771403074E-1,3.298350811E0,2.017766714E0,3.988145404E0
3.905068284E0,-9.871600270E-1,3.507150650E0,2.037040234E0,4.174221306E0
3.909866513E0,-1.067619681E0,3.691815853E0,2.154224634E0,4.405678138E0
3.914664690E0,-1.098776817E0,3.885813713E0,2.197341919E0,4.597300318E0
3.919462919E0,-1.156978726E0,4.065204144E0,2.164477348E0,4.748625769E0
3.924261149E0,-1.266078472E0,4.239513397E0,2.082305908E0,4.890033378E0
3.929059326E0,-1.375804186E0,4.439779758E0,2.018032789E0,5.067241636E0
3.933857555E0,-1.459714413E0,4.572745800E0,1.950447798E0,5.181217707E0
3.938655784E0,-1.591981769E0,4.710155964E0,1.870146513E0,5.312007449E0
3.943453961E0,-1.701009035E0,4.768282413E0,1.727430820E0,5.349202385E0
3.948252190E0,-1.710505843E0,4.792588234E0,1.541655421E0,5.317088833E0
3.953050419E0,-1.716320753E0,4.747254848E0,1.463360429E0,5.255816708E0
3.957848596E0,-1.721147776E0,4.651439190E0,1.420716166E0,5.159134678E0
3.962646826E0,-1.729981303E0,4.560129642E0,1.258384705E0,5.036978234E0
3.967445055E0,-1.740553856E0,4.423106670E0,1.151053667E0,4.890636450E0
3.972243232E0,-1.781691670E0,4.235643387E0,1.134181499E0,4.733018887E0
3.977041461E0,-1.772271991E0,4.021678925E0,9.732695818E-1,4.501344584E0
3.981839690E0,-1.752903581E0,3.790816784E0,9.073066711E-1,4.273893804E0
3.986637919E0,-1.733025789E0,3.543089867E0,7.879145145E-1,4.022147868E0
3.991436096E0,-1.647926211E0,3.302421570E0,6.798429489E-1,3.752843650E0
3.996234326E0,-1.600311399E0,3.035351753E0,5.759203434E-1,3.479373662E0
4.001032555E0,-1.515766025E0,2.753890991E0,4.426668882E-1,3.174494638E0
4.005830732E0,-1.501498222E0,2.467649937E0,4.166734517E-1,2.918460191E0
4.010628961E0,-1.442430615E0,2.133656502E0,3.591569662E-1,2.600401868E0
4.015427190E0,-1.407732129E0,1.792614937E0,3.754163384E-1,2.310003352E0
4.020225367E0,-1.313327193E0,1.449370384E0,3.054726422E-1,1.979600051E0
4.025023596E0,-1.211492538E0,1.113544464E0,2.952960432E-1,1.671794006E0
4.029821826E0,-1.111715198E0,7.923107147E-1,2.994620800E-1,1.397621010E0
4.034620003E0,-1.011443138E0,4.761238098E-1,2.674531937E-1,1.149453050E0
4.039418232E0,-9.463460445E-1,1.578369141E-1,1.063838005E-1,9.652983168E-1
4.044216461E0,-9.041117430E-1,-6.928348541E-2,-1.904110461E-1,9.265390502E-1
4.049014638E0,-8.583992720E-1,-3.463354111E-1,-3.381594419E-1,9.854690940E-1
4.053812867E0,-8.185771108E-1,-6.182460785E-1,-4.876908660E-1,1.135842894E0
4.058611096E0,-8.037025928E-1,-8.276424408E-1,-5.362591147E-1,1.272204270E0
4.063409274E0,-7.611977458E-1,-1.039118767E0,-5.696434975E-1,1.408433007E0
4.068207503E0,-7.316528559E-1,-1.238298416E0,-7.093552351E-1,1.603709362E0
4.073005732E0,-7.032258511E-1,-1.339152336E0,-8.185619116E-1,1.719854407E0
4.077803961E0,-6.595660448E-1,-1.435054779E0,-8.901151419E-1,1.812929825E0
4.082602138E0,-5.816906691E-1,-1.590524673E0,-1.122061849E0,2.031540195E0
4.087400367E0,-4.938226938E-1,-1.767271996E0,-1.222522616E0,2.204920113E0
4.092198596E0,-3.123232126E-1,-1.989138603E0,-1.480762482E0,2.499375062E0
4.096996774E0,-1.807482243E-1,-2.227357864E0,-1.783749819E0,2.859292988E0
4.101795003E0,-1.254106760E-1,-2.472341537E0,-2.021610975E0,3.196108798E0
4.106593232E0,-6.260764599E-2,-2.707345009E0,-2.275794268E0,3.537354416E0
4.111391409E0,-6.762862206E-3,-2.937157631E0,-2.522492886E0,3.871680648E0
4.116189638E0,-4.628694057E-2,-3.123551369E0,-2.752459049E0,4.163501705E0
4.120987867E0,-1.143510342E-1,-3.300085068E0,-2.889689684E0,4.387931641E0
4.125786044E0,-2.372817993E-1,-3.423780441E0,-2.970514774E0,4.539001342E0
4.130584274E0,-3.860617876E-1,-3.461204529E0,-3.002475023E0,4.598242790E0
4.135382503E0,-6.010804176E-1,-3.474585533E0,-2.940714359E0,4.591496841E0
4.140180732E0,-8.343454599E-1,-3.418554306E0,-2.857508659E0,4.532990363E0
4.144978909E0,-1.102535725E0,-3.333814621E0,-2.573580027E0,4.353529500E0
4.149777138E0,-1.307407856E0,-3.201221466E0,-2.511783123E0,4.273896189E0
4.154575367E0,-1.427520037E0,-3.061423302E0,-2.308061838E0,4.091121550E0
4.159373544E0,-1.561012268E0,-2.957400322E0,-2.222223282E0,4.015127928E0
4.164171774E0,-1.698158860E0,-2.872329712E0,-2.174974203E0,3.983030790E0
4.168970003E0,-1.850758910E0,-2.614894867E0,-2.088656187E0,3.824325872E0
4.173768180E0,-1.837459087E0,-2.634568214E0,-1.844889283E0,3.704162799E0
4.178566409E0,-1.854708791E0,-2.723084450E0,-1.595985651E0,3.660915707E0
4.183364638E0,-1.854404092E0,-2.748826981E0,-1.326790333E0,3.571447451E0
4.188162815E0,-1.764797926E0,-2.934094429E0,-1.098750114E0,3.595924589E0
4.192961044E0,-1.576412678E0,-3.216570854E0,-8.087862730E-1,3.672266361E0
4.197759274E0,-1.430663466E0,-3.507840157E0,-5.099151731E-1,3.822532407E0
4.202557451E0,-1.184147000E0,-3.862962723E0,-2.721159458E-1,4.049534813E0
4.207355680E0,-9.590975046E-1,-4.222250938E0,-1.054089963E-1,4.331094788E0
4.212153909E0,-6.455506086E-1,-4.487821579E0,-5.348190665E-2,4.534328884E0
4.216952138E0,-4.037517309E-1,-4.705311775E0,4.522916675E-2,4.722819078E0
4.221750315E0,-1.501029730E-1,-4.741083145E0,6.247365475E-2,4.743870071E0
4.226548544E0,1.008434296E-1,-4.600243568E0,4.723653197E-2,4.601591200E0
4.231346774E0,3.371765614E-1,-4.158778191E0,7.947616279E-2,4.173181105E0
4.236144951E0,5.159784555E-1,-3.426624298E0,1.482970566E-1,3.468426136E0
4.240943180E0,5.777988434E-1,-2.607218742E0,2.817272842E-1,2.685295391E0
4.245741409E0,6.256513596E-1,-1.803385735E0,3.812948763E-1,1.946541937E0
4.250539586E0,6.862317324E-1,-9.218006134E-1,3.680212796E-1,1.206677266E0
4.255337815E0,7.265093327E-1,-1.225776672E-1,3.927296400E-1,8.349117708E-1
4.260136044E0,7.519304752E-1,5.777835846E-1,3.242472112E-1,1.002182401E0
4.264934221E0,8.369801044E-1,1.229670525E0,2.535997927E-1,1.508952666E0
4.269732451E0,9.509555101E-1,1.706558228E0,2.169121057E-1,1.965631763E0
4.274530680E0,1.099123836E0,2.054146290E0,1.427445114E-1,2.334087869E0
4.279328857E0,1.260295630E0,2.239181519E0,1.317221820E-1,2.572864101E0
4.284127086E0,1.453571439E0,2.273793221E0,1.411185265E-1,2.702391529E0
4.288925315E0,1.697899938E0,2.124654293E0,1.976224184E-1,2.726916699E0
4.293723492E0,1.954817891E0,1.782367706E0,3.256165385E-1,2.665365596E0
4.298521721E0,2.264461517E0,1.340269089E0,4.177707732E-1,2.664327235E0
4.303319951E0,2.592292309E0,8.293819427E-1,5.745916963E-1,2.781727779E0
4.308118128E0,2.894395351E0,3.595857620E-1,6.599210501E-1,2.990371576E0
4.312916357E0,3.179372311E0,-7.167911530E-2,7.763071060E-1,3.273560586E0
4.317714586E0,3.395933151E0,-4.287366867E-1,9.164623618E-1,3.543455993E0
4.322512815E0,3.598036289E0,-6.758975983E-1,1.065153718E0,3.812775255E0
4.327310992E0,3.777828693E0,-8.611097336E-1,1.188512444E0,4.052907776E0
4.332109221E0,3.903518438E0,-9.414072037E-1,1.316466570E0,4.225729280E0
4.336907451E0,4.017428398E0,-8.882255554E-1,1.448342323E0,4.361922862E0
4.341705628E0,4.054886341E0,-7.757291794E-1,1.485449910E0,4.387530106E0
4.346503857E0,4.104431629E0,-4.915733337E-1,1.577764750E0,4.424629357E0
4.351302086E0,4.077786922E0,-2.031698227E-1,1.547895670E0,4.366417887E0
4.356100263E0,4.013397217E0,6.322193146E-2,1.496469259E0,4.283780395E0
4.360898492E0,3.980925083E0,3.817520142E-1,1.392626762E0,4.234726487E0
4.365696721E0,3.856232405E0,6.974039078E-1,1.360860109E0,4.148353988E0
4.370494899E0,3.728225946E0,1.005441666E0,1.369767904E0,4.097175339E0
4.375293128E0,3.607192039E0,1.289190292E0,1.338271618E0,4.057686156E0
4.380091357E0,3.464789867E0,1.536725998E0,1.285794020E0,4.002444488E0
4.384889534E0,3.263172865E0,1.748064041E0,1.210689068E0,3.894841853E0
4.389687763E0,3.224053860E0,1.882490635E0,1.089797974E0,3.889209933E0
4.394485992E0,3.107891083E0,1.990231991E0,1.142901897E0,3.863448603E0
4.399284221E0,3.001517773E0,1.990092754E0,1.118983746E0,3.771167291E0
4.404082399E0,2.814872742E0,1.891799450E0,1.059038877E0,3.553023650E0
4.408880628E0,2.646338463E0,1.767159462E0,1.082804203E0,3.361312953E0
4.413678857E0,2.438615322E0,1.683085442E0,1.157045007E0,3.180939239E0
4.418477034E0,2.273122787E0,1.598868370E0,1.222359657E0,3.036055073E0
4.423275263E0,2.099637985E0,1.581397057E0,1.226280332E0,2.900527499E0
4.428073492E0,1.896588087E0,1.606647491E0,1.231265783E0,2.773874179E0
4.432871669E0,1.750215769E0,1.650659561E0,1.175459981E0,2.677618044E0
4.437669899E0,1.567673564E0,1.684762955E0,1.123588085E0,2.560952323E0
4.442468128E0,1.387494326E0,1.845203400E0,1.037774563E0,2.531183939E0
4.447266305E0,1.176262259E0,1.983648300E0,9.324917793E-1,2.487567969E0
4.452064534E0,9.435089827E-1,2.109669209E0,7.672346234E-1,2.435069267E0
4.456862763E0,7.681796551E-1,2.249573231E0,6.139049530E-1,2.455108754E0
4.461660940E0,5.835213661E-1,2.386645317E0,4.346494973E-1,2.495093834E0
4.466459169E0,3.893884420E-1,2.559106827E0,2.007265240E-1,2.596332461E0
4.471257399E0,2.191101313E-1,2.709537506E0,-2.332325280E-2,2.718482430E0
4.476055576E0,5.627751350E-3,2.773416042E0,-1.970750690E-1,2.780414861E0
4.480853805E0,-7.639396191E-2,2.817780018E0,-4.641931057E-1,2.856780619E0
4.485652034E0,-2.228721380E-1,2.909593105E0,-6.980034113E-1,3.000435433E0
4.490450263E0,-3.835394382E-1,2.965138435E0,-8.938912153E-1,3.120607304E0
4.495248440E0,-5.250195265E-1,3.008322716E0,-1.119172215E0,3.252414105E0
4.500046669E0,-5.968950391E-1,3.034382820E0,-1.359986901E0,3.378361609E0
4.504844846E0,-7.066564560E-1,3.055289745E0,-1.645020962E0,3.541221927E0
4.509643076E0,-8.088284731E-1,3.013683319E0,-1.869009733E0,3.637263811E0
4.514441305E0,-9.274116755E-1,2.938283920E0,-2.089359283E0,3.722771418E0
4.519239534E0,-1.004780293E0,2.888938427E0,-2.393959999E0,3.884146386E0
4.524037711E0,-1.064566374E0,2.844192028E0,-2.700876236E0,4.064168094E0
4.528835940E0,-1.082637429E0,2.775462627E0,-2.866034508E0,4.133938848E0
4.533634169E0,-1.166425943E0,2.735497475E0,-2.991157770E0,4.217881070E0
4.538432346E0,-1.177064776E0,2.647951126E0,-3.089518309E0,4.235829321E0
4.543230576E0,-1.214921236E0,2.553648949E0,-3.172320843E0,4.249797182E0
4.548028805E0,-1.188879490E0,2.457529545E0,-3.243900061E0,4.239784606E0
4.552826982E0,-1.087183475E0,2.371652603E0,-3.337032557E0,4.235857677E0
4.557625211E0,-9.887934923E-1,2.284160614E0,-3.355651379E0,4.177977795E0
4.562423440E0,-9.343842864E-1,2.185614586E0,-3.366094351E0,4.120749482E0
4.567221669E0,-8.742389083E-1,2.016230583E0,-3.327787399E0,3.987937864E0
4.572019846E0,-7.467176914E-1,1.804739475E0,-3.274071455E0,3.812376657E0
4.576818076E0,-6.480412483E-1,1.629970074E0,-3.147722721E0,3.603459203E0
4.581616305E0,-5.141962767E-1,1.348392487E0,-3.022953272E0,3.349747243E0
4.586414482E0,-4.124592543E-1,1.093879700E0,-2.957400560E0,3.180080739E0
4.591212711E0,-2.308926582E-1,8.567066193E-1,-2.788854599E0,2.926596594E0
4.596010940E0,-1.469686031E-1,6.080188751E-1,-2.520154953E0,2.596626217E0
4.600809117E0,6.651878357E-3,3.453464508E-1,-2.374158621E0,2.399153512E0
4.605607346E0,1.464442015E-1,9.256553650E-2,-2.284278870E0,2.290839199E0
4.610405576E0,2.513741255E-1,-1.742324829E-1,-2.246143341E0,2.266871372E0
4.615203753E0,3.432656527E-1,-4.431180954E-1,-2.038062572E0,2.113736976E0
4.620001982E0,4.245986938E-1,-7.524080276E-1,-1.878413916E0,2.067568797E0
4.624800211E0,5.434175730E-1,-1.068602562E0,-1.769906759E0,2.137705319E0
4.629598388E0,6.642111540E-1,-1.374941826E0,-1.641185522E0,2.241680486E0
4.634396617E0,8.063730001E-1,-1.681039810E0,-1.517215252E0,2.403762546E0
4.639194846E0,8.982701302E-1,-1.991706848E0,-1.350784659E0,2.568735991E0
4.643993024E0,9.999358654E-1,-2.330855370E0,-1.212234974E0,2.811098028E0
4.648791253E0,1.001641989E0,-2.621966362E0,-1.090288877E0,3.011100150E0
4.653589482E0,1.013874769E0,-2.922390938E0,-1.042979956E0,3.264371001E0
4.658387659E0,9.939482212E-1,-3.146028519E0,-1.018436670E0,3.452917861E0
4.663185888E0,8.824083805E-1,-3.304870605E0,-9.788805842E-1,3.557951864E0
4.667984117E0,7.801241875E-1,-3.484938622E0,-1.003543615E0,3.709513544E0
4.672782346E0,6.733379364E-1,-3.590433121E0,-9.797704220E-1,3.782134854E0
4.677580524E0,5.434346199E-1,-3.626045227E0,-9.021480680E-1,3.775896756E0
4.682378753E0,4.840037823E-1,-3.558241844E0,-7.720173001E-1,3.673058044E0
4.687176982E0,4.258451462E-1,-3.489765167E0,-4.971350431E-1,3.550626461E0
4.691975159E0,3.379163742E-1,-3.375091553E0,-2.408730090E-1,3.400507355E0
4.696773388E0,3.180816174E-1,-3.362399101E0,4.119849205E-2,3.377662053E0
4.701571617E0,3.374028206E-1,-3.386999130E0,2.979131341E-1,3.416775674E0
4.706369794E0,3.955309391E-1,-3.432132721E0,4.969462752E-1,3.490406185E0
4.711168024E0,4.850215912E-1,-3.536046028E0,6.200634837E-1,3.622615931E0
4.715966253E0,5.817253590E-1,-3.655714989E0,6.725809574E-1,3.762315991E0
4.720764430E0,6.897983551E-1,-3.681411743E0,6.158124208E-1,3.795765948E0
4.725562659E0,7.513227463E-1,-3.510716438E0,4.919984043E-1,3.623765750E0
4.730360888E0,7.563109398E-1,-3.225350380E0,2.759970129E-1,3.324314315E0
4.735159065E0,6.901848316E-1,-2.806507111E0,1.905447245E-2,2.890190363E0
4.739957294E0,6.413197517E-1,-2.285525322E0,-1.318860352E-1,2.377458927E0
4.744755524E0,5.928959846E-1,-1.751003265E0,-2.374168038E-1,1.863841416E0
4.749553701E0,5.236471891E-1,-1.207704544E0,-2.576120198E-1,1.341313012E0
4.754351930E0,4.791696072E-1,-7.177438736E-1,-2.191203237E-1,8.903782886E-1
4.759150159E0,4.668136835E-1,-3.503055573E-1,-1.195328832E-1,5.957491995E-1
4.763948336E0,5.085402727E-1,-4.299640656E-2,-4.065215588E-3,5.103708710E-1
4.768746565E0,6.095614433E-1,1.828575134E-1,1.878010631E-1,6.635293985E-1
4.773544794E0,7.199852467E-1,2.270450592E-1,3.611991405E-1,8.368948760E-1
4.778342971E0,8.924456835E-1,1.782045364E-1,5.410923958E-1,1.058771522E0
4.783141201E0,1.069617987E0,-2.571010590E-2,7.717283368E-1,1.319207441E0
4.787939430E0,1.313409328E0,-2.770719528E-1,9.918820262E-1,1.669024531E0
4.792737659E0,1.561016202E0,-5.712375641E-1,1.140137672E0,2.015687935E0
4.797535836E0,1.725540161E0,-8.749389648E-1,1.348271251E0,2.358143847E0
4.802334065E0,1.949448943E0,-1.171708107E0,1.511219025E0,2.730757040E0
4.807132294E0,2.126484394E0,-1.428352356E0,1.590574145E0,3.015303043E0
4.811930471E0,2.270479679E0,-1.685713768E0,1.664900422E0,3.281554860E0
4.816728701E0,2.431211948E0,-1.891329765E0,1.649783850E0,3.494239054E0
4.821526930E0,2.539016247E0,-2.064446449E0,1.627943277E0,3.654961280E0
4.826325107E0,2.674867630E0,-2.140601158E0,1.581377745E0,3.773307002E0
4.831123336E0,2.814395666E0,-2.225083351E0,1.525976658E0,3.898772069E0
4.835921565E0,2.900044918E0,-2.351284981E0,1.479781389E0,4.016037170E0
4.840719742E0,2.967557192E0,-2.437790871E0,1.403354406E0,4.088841352E0
4.845517971E0,2.995665550E0,-2.455796242E0,1.434315443E0,4.130642572E0
4.850316201E0,2.981987000E0,-2.491261482E0,1.514251232E0,4.170322174E0
4.855114378E0,2.948196888E0,-2.400585175E0,1.565803528E0,4.111741086E0
4.859912607E0,2.906812429E0,-2.264877319E0,1.585467577E0,4.011600081E0
4.864710836E0,2.877273798E0,-2.081568718E0,1.644252300E0,3.913463742E0
4.869509065E0,2.769479990E0,-1.871905327E0,1.712509394E0,3.755893687E0
4.874307242E0,2.658179283E0,-1.614179611E0,1.792234540E0,3.589372865E0
4.879105471E0,2.532133579E0,-1.317708015E0,1.877831697E0,3.416768468E0
4.883903649E0,2.416018486E0,-9.918413162E-1,1.954443097E0,3.262015074E0
4.888701878E0,2.284080505E0,-7.057485580E-1,2.086359262E0,3.173011149E0
4.893500107E0,2.170104027E0,-3.804473877E-1,2.199560165E0,3.113222868E0
4.898298284E0,2.076343536E0,-4.465007782E-2,2.384739399E0,3.162305822E0
4.903096513E0,1.966697931E0,2.608776093E-1,2.644770622E0,3.306171430E0
4.907894742E0,1.907718539E0,5.551033020E-1,2.836916447E0,3.463470027E0
4.912692971E0,1.798853636E0,8.235282898E-1,3.040965080E0,3.627883938E0
4.917491149E0,1.692945242E0,1.097149849E0,3.209665775E0,3.791009862E0
4.922289378E0,1.544772029E0,1.406877518E0,3.351147175E0,3.949153372E0
4.927087607E0,1.457129478E0,1.661653519E0,3.382922649E0,4.040851938E0
4.931885784E0,1.339223742E0,1.928298950E0,3.320554495E0,4.066686517E0
4.936684013E0,1.248283744E0,2.122985840E0,3.200945616E0,4.038729258E0
4.941482242E0,1.150725722E0,2.310175419E0,2.977464437E0,3.940352095E0
4.946280419E0,9.912978411E-1,2.458677292E0,2.760962248E0,3.827620406E0
4.951078649E0,8.824501038E-1,2.587587833E0,2.502110720E0,3.706060851E0
4.955876878E0,7.785665989E-1,2.670608997E0,2.282471418E0,3.598332133E0
4.960675055E0,7.270680666E-1,2.681463242E0,1.994564295E0,3.420111082E0
4.965473284E0,6.703237295E-1,2.711036682E0,1.714964151E0,3.277217697E0
4.970271513E0,6.462416649E-1,2.706708431E0,1.381355047E0,3.106773340E0
4.975069690E0,6.161971092E-1,2.668505192E0,1.062764883E0,2.937701148E0
4.979867919E0,5.487009287E-1,2.629880905E0,7.662255168E-1,2.793644184E0
4.984666149E0,4.888948202E-1,2.595590591E0,4.914258718E-1,2.686560636E0
4.989464326E0,4.341388941E-1,2.565596104E0,2.215760350E-1,2.611485379E0
4.994262555E0,3.436785936E-1,2.568548679E0,-1.219949126E-2,2.591467947E0
4.999060784E0,2.460546494E-1,2.611548424E0,-2.099362016E-1,2.631501714E0
5.003859013E0,9.845387936E-2,2.670669556E0,-3.478534520E-1,2.695027099E0
5.008657190E0,-6.304395199E-2,2.664649963E0,-4.807357192E-1,2.708401890E0
5.013455419E0,-2.145223618E-1,2.715442181E0,-6.156440973E-1,2.792608769E0
5.018253649E0,-3.869068623E-1,2.758469582E0,-7.190998197E-1,2.876796118E0
5.023051826E0,-5.824347138E-1,2.798533916E0,-8.365544081E-1,2.978396474E0
5.027850055E0,-7.840671539E-1,2.811774254E0,-9.460708499E-1,3.068531540E0
5.032648284E0,-1.015352488E0,2.838903427E0,-1.076221943E0,3.201338316E0
5.037446461E0,-1.235300183E0,2.856061935E0,-1.247847557E0,3.352637745E0
5.042244690E0,-1.455369830E0,2.820343018E0,-1.341007710E0,3.445393701E0
5.047042919E0,-1.691796422E0,2.734299183E0,-1.348545432E0,3.486709328E0
5.051841096E0,-1.932188630E0,2.696074486E0,-1.377812505E0,3.591731871E0
5.056639326E0,-2.092580080E0,2.559912682E0,-1.373489976E0,3.580295943E0
5.061437555E0,-2.273142099E0,2.400102139E0,-1.328514576E0,3.562669822E0
5.066235732E0,-2.382840395E0,2.197614670E0,-1.245437145E0,3.472542623E0
5.071033961E0,-2.514758587E0,2.076832771E0,-1.222392440E0,3.483028623E0
5.075832190E0,-2.561084270E0,1.872823715E0,-1.111114740E0,3.361725342E0
5.080630367E0,-2.612678051E0,1.616781235E0,-1.031589746E0,3.241025388E0
5.085428596E0,-2.628803492E0,1.413946152E0,-9.554472566E-1,3.134123638E0
5.090226826E0,-2.583274841E0,1.261857033E0,-8.543223143E-1,2.999243020E0
5.095025055E0,-2.557461739E0,1.122207642E0,-9.005536437E-1,2.934443286E0
5.099823232E0,-2.548879147E0,1.016504288E0,-7.930347919E-1,2.856391089E0
5.104621461E0,-2.511980534E0,1.009252548E0,-7.375081778E-1,2.805807410E0
5.109419638E0,-2.463332415E0,9.952125549E-1,-8.057215214E-1,2.776263998E0
5.114217867E0,-2.374136925E0,1.034152985E0,-7.467539310E-1,2.695114092E0
5.119016096E0,-2.285016775E0,9.754571915E-1,-6.826781034E-1,2.576600044E0
5.123814326E0,-2.117243528E0,9.315433502E-1,-5.345979333E-1,2.374086797E0
5.128612503E0,-1.964274883E0,8.354482651E-1,-3.815145493E-1,2.168387182E0
5.133410732E0,-1.826440811E0,6.967258453E-1,-2.545849085E-1,1.971326055E0
5.138208961E0,-1.749541521E0,4.818849564E-1,-1.397310495E-1,1.820064123E0
5.143007138E0,-1.649917364E0,3.248243332E-1,-1.613731980E-1,1.689313312E0
5.147805367E0,-1.534747720E0,1.919927597E-1,-2.312421203E-1,1.563900477E0
5.152603596E0,-1.423301816E0,8.331108093E-2,-3.471801877E-1,1.467400040E0
5.157401774E0,-1.306201220E0,-1.160345078E-1,-5.335301757E-1,1.415725991E0
5.162200003E0,-1.190890551E0,-3.342943192E-1,-6.684011221E-1,1.405963390E0
5.166998232E0,-1.084892273E0,-5.428218842E-1,-7.970879674E-1,1.451549541E0
5.171796409E0,-1.007316828E0,-7.368364334E-1,-9.169189334E-1,1.548662472E0
5.176594638E0,-9.176718593E-1,-8.805150986E-1,-1.025113702E0,1.633489082E0
5.181392867E0,-8.209879994E-1,-1.064726830E0,-1.099555492E0,1.736861191E0
5.186191044E0,-6.934669614E-1,-1.344341278E0,-1.163450122E0,1.908341187E0
5.190989274E0,-5.659816861E-1,-1.671347618E0,-1.158775091E0,2.111041885E0
5.195787503E0,-3.692476749E-1,-2.098197937E0,-1.125522852E0,2.409477146E0
5.200585680E0,-1.918265820E-1,-2.576928139E0,-1.079974174E0,2.800660688E0
5.205383909E0,-2.185106277E-4,-3.114585876E0,-9.786098599E-1,3.264708637E0
5.210182138E0,2.292506695E-1,-3.696764946E0,-9.576190710E-1,3.825658273E0
5.214980315E0,4.796657562E-1,-4.277987480E0,-8.708454370E-1,4.391995889E0
5.219778544E0,7.674975395E-1,-4.870224953E0,-7.828494906E-1,4.992093437E0
5.224576774E0,1.068645000E0,-5.463918686E0,-7.701041102E-1,5.620451039E0
5.229375003E0,1.418903112E0,-6.008890152E0,-7.107098103E-1,6.214913944E0
5.234173180E0,1.775004029E0,-6.407265663E0,-6.814212203E-1,6.683414357E0
5.238971409E0,2.177280903E0,-6.573296547E0,-6.161014438E-1,6.951860227E0
5.243769638E0,2.546706676E0,-6.485863686E0,-6.615650058E-1,6.999272169E0
5.248567815E0,2.895385742E0,-5.954219818E0,-7.286170721E-1,6.660846423E0
5.253366044E0,3.125335693E0,-5.306447983E0,-7.208636403E-1,6.200464320E0
5.258164274E0,3.210431099E0,-4.607291222E0,-5.869821906E-1,5.646109132E0
5.262962451E0,3.229806423E0,-3.959602356E0,-4.162000716E-1,5.126726329E0
5.267760680E0,3.272203445E0,-3.286775589E0,-2.248625457E-1,4.643357872E0
5.272558909E0,3.326455593E0,-2.631724358E0,-8.184206486E-2,4.242402389E0
5.277357086E0,3.355174541E0,-2.008593559E0,1.866447926E-2,3.910497750E0
5.282155315E0,3.411731720E0,-1.522325516E0,4.680204391E-2,3.736251964E0
5.286953544E0,3.496824265E0,-1.141568184E0,7.718151808E-2,3.679254659E0
5.291751721E0,3.627657413E0,-7.944021225E-1,1.318365932E-1,3.715959355E0
5.296549951E0,3.727640152E0,-5.214090347E-1,1.728509665E-1,3.767896753E0
5.301348180E0,3.846470356E0,-3.822717667E-1,3.417083621E-1,3.880493591E0
5.306146357E0,3.976560593E0,-2.621660233E-1,4.853046536E-1,4.014633953E0
5.310944586E0,4.167847633E0,-1.658840179E-1,6.060855389E-1,4.214950899E0
5.315742815E0,4.307168961E0,-8.633899689E-2,7.133616805E-1,4.366697123E0
5.320540992E0,4.453305244E0,1.221179962E-2,8.236352801E-1,4.528846631E0
5.325339221E0,4.581734180E0,5.317974091E-2,8.218215108E-1,4.655159157E0
5.330137451E0,4.694265842E0,1.392869949E-1,8.697635531E-1,4.776193181E0
5.334935680E0,4.761658669E0,2.584486008E-1,9.287552238E-1,4.858268747E0
5.339733857E0,4.814677238E0,4.153404236E-1,1.034077168E0,4.941957119E0
5.344532086E0,4.941773891E0,6.027355194E-1,9.822363853E-1,5.074367706E0
5.349330315E0,5.023717880E0,8.421573639E-1,9.098309875E-1,5.174433572E0
5.354128492E0,4.924305439E0,9.925355911E-1,8.741270304E-1,5.098824278E0
5.358926721E0,4.877623558E0,1.106528282E0,8.129570484E-1,5.067199974E0
5.363724951E0,4.869060040E0,1.143564224E0,7.553775311E-1,5.058268480E0
5.368523128E0,4.920312405E0,1.163530350E0,6.563206315E-1,5.098434447E0
5.373321357E0,4.897266865E0,1.113862038E0,7.119273543E-1,5.072548860E0
5.378119586E0,4.838453293E0,9.803304672E-1,6.568698883E-1,4.980276713E0
5.382917763E0,4.724705219E0,8.132457733E-1,6.111267805E-1,4.832978796E0
5.387715992E0,4.517848015E0,6.962881088E-1,5.484528542E-1,4.603973105E0
5.392514221E0,4.344752312E0,6.509084702E-1,4.736636281E-1,4.418700230E0
5.397312399E0,4.061730385E0,6.100692749E-1,3.342380524E-1,4.120868029E0
5.402110628E0,3.807617426E0,5.713663101E-1,1.922917962E-1,3.855046829E0
5.406908857E0,3.563235283E0,6.136293411E-1,1.241197586E-1,3.617815966E0
5.411707034E0,3.378950596E0,6.268396378E-1,6.519591808E-2,3.437220617E0
5.416505263E0,3.173637390E0,5.966930389E-1,1.306009293E-2,3.229270418E0
5.421303492E0,3.021470547E0,5.280113220E-1,-5.625760555E-2,3.067775275E0
5.426101669E0,2.814892292E0,5.068693161E-1,-1.378951669E-1,2.863485672E0
5.430899899E0,2.656792641E0,5.021152496E-1,-2.582822442E-1,2.716132651E0
5.435698128E0,2.465935230E0,5.256738663E-1,-3.886371851E-1,2.551119055E0
5.440496357E0,2.275641203E0,6.109132767E-1,-4.956083596E-1,2.407776061E0
5.445294534E0,1.995117903E0,7.218809128E-1,-5.865019560E-1,2.201270552E0
5.450092763E0,1.727123380E0,8.513278961E-1,-6.542180181E-1,2.033645881E0
5.454890940E0,1.404481649E0,1.087594032E0,-6.844983101E-1,1.903672088E0
5.459689169E0,1.082170486E0,1.337325096E0,-7.105942369E-1,1.861310169E0
5.464487399E0,8.414617777E-1,1.688909531E0,-7.730354071E-1,2.039131449E0
5.469285628E0,6.347885132E-1,2.060976505E0,-9.434865713E-1,2.353879250E0
5.474083805E0,4.267663956E-1,2.324493885E0,-1.049749017E0,2.585995819E0
5.478882034E0,1.653214693E-1,2.503548145E0,-1.170783043E0,2.768721264E0
5.483680263E0,-7.505249977E-2,2.643712997E0,-1.182070017E0,2.896919194E0
5.488478440E0,-2.153198719E-1,2.792871952E0,-1.358414888E0,3.113163567E0
5.493276669E0,-3.483036757E-1,2.838803291E0,-1.520084739E0,3.238946926E0
5.498074899E0,-4.256972075E-1,2.843906879E0,-1.690625429E0,3.335751608E0
5.502873076E0,-5.189505816E-1,2.832253933E0,-1.852842093E0,3.424032107E0
5.507671305E0,-6.562865973E-1,2.701243877E0,-2.020718575E0,3.436674867E0
5.512469534E0,-7.561941147E-1,2.518048286E0,-2.036183834E0,3.325423480E0
5.517267711E0,-8.209074736E-1,2.344985962E0,-2.085409164E0,3.243729277E0
5.522065940E0,-8.289239407E-1,2.201225281E0,-2.132314682E0,3.174787164E0
5.526864169E0,-8.305821419E-1,2.019872665E0,-2.181328773E0,3.086737355E0
5.531662346E0,-9.098449945E-1,1.918086052E0,-2.143616915E0,3.016946386E0
5.536460576E0,-9.212057590E-1,1.833662510E0,-2.037698746E0,2.891911899E0
5.541258805E0,-9.726330042E-1,1.754614353E0,-2.004287481E0,2.835816425E0
5.546056982E0,-1.073819518E0,1.680846214E0,-2.007852793E0,2.830159923E0
5.550855211E0,-1.153251886E0,1.652878284E0,-1.977002263E0,2.823213503E0
5.555653440E0,-1.283085346E0,1.670494080E0,-1.883522272E0,2.825688345E0
5.560451617E0,-1.298513174E0,1.671360493E0,-1.627854586E0,2.670111030E0
5.565249846E0,-1.331010580E0,1.712835312E0,-1.717088580E0,2.766547878E0
5.570048076E0,-1.383082628E0,1.715890884E0,-1.637536287E0,2.745673720E0
5.574846253E0,-1.402281761E0,1.718716621E0,-1.533192873E0,2.696490561E0
5.579644482E0,-1.336123466E0,1.766675472E0,-1.416190982E0,2.629061627E0
5.584442711E0,-1.280231953E0,1.811864376E0,-1.334843397E0,2.589141415E0
5.589240888E0,-1.241678953E0,1.849481583E0,-1.248815417E0,2.553798875E0
5.594039117E0,-1.160624027E0,1.858015060E0,-1.184623957E0,2.490502362E0
5.598837346E0,-1.070376515E0,1.813594341E0,-1.123675823E0,2.386938976E0
5.603635576E0,-9.849619865E-1,1.790441990E0,-1.090018392E0,2.316025200E0
5.608433753E0,-8.803070784E-1,1.733619213E0,-1.064479351E0,2.216639893E0
5.613231982E0,-7.872033119E-1,1.657576084E0,-1.063989639E0,2.121160409E0
5.618030211E0,-7.269164324E-1,1.581524849E0,-1.024073124E0,2.019493528E0
5.622828388E0,-6.634244919E-1,1.436196327E0,-9.999141693E-1,1.871528865E0
5.627626617E0,-5.964674950E-1,1.271938324E0,-9.463115931E-1,1.693843618E0
5.632424846E0,-5.260844231E-1,1.038605690E0,-8.990234733E-1,1.470955406E0
5.637223024E0,-4.667234421E-1,7.601604462E-1,-8.247069716E-1,1.214831784E0
5.642021253E0,-4.422705173E-1,4.414558411E-1,-7.687894106E-1,9.907187431E-1
5.646819482E0,-4.002289772E-1,1.112108231E-1,-6.784964800E-1,7.955555007E-1
5.651617659E0,-3.408164978E-1,-2.425794601E-1,-6.545262337E-1,7.767916517E-1
5.656415888E0,-3.143603802E-1,-6.127490997E-1,-6.036350727E-1,9.157833853E-1
5.661214117E0,-2.995483875E-1,-9.443969727E-1,-5.642535090E-1,1.140174066E0
5.666012294E0,-3.467080593E-1,-1.256759644E0,-5.438257456E-1,1.412585474E0
5.670810524E0,-4.152398109E-1,-1.530791283E0,-5.496647358E-1,1.678653441E0
5.675608753E0,-4.692063332E-1,-1.797594070E0,-5.841630697E-1,1.947497244E0
5.680406930E0,-6.136839390E-1,-2.011763573E0,-6.212558746E-1,2.193116393E0
5.685205159E0,-7.959344387E-1,-2.170982361E0,-6.874098778E-1,2.412303543E0
5.690003388E0,-9.774117470E-1,-2.227451324E0,-8.137636781E-1,2.564972602E0
5.694801565E0,-1.114831209E0,-2.228996277E0,-9.164348841E-1,2.655395625E0
5.699599794E0,-1.282041073E0,-2.211423874E0,-1.009621978E0,2.748337934E0
5.704398024E0,-1.423559904E0,-2.184118271E0,-1.107336760E0,2.832505979E0
5.709196201E0,-1.565434575E0,-2.137391090E0,-1.154134989E0,2.889818966E0
5.713994430E0,-1.683379412E0,-2.149902344E0,-1.161201715E0,2.967193245E0
5.718792659E0,-1.765092969E0,-2.214164734E0,-1.156360030E0,3.058634855E0
5.723590836E0,-1.757349372E0,-2.260392189E0,-1.138287067E0,3.081127571E0
5.728389065E0,-1.683621168E0,-2.297812462E0,-1.151281357E0,3.072453598E0
5.733187294E0,-1.639106035E0,-2.436022758E0,-1.136685967E0,3.148480659E0
5.737985471E0,-1.530409217E0,-2.610159874E0,-1.043315053E0,3.200561394E0
5.742783701E0,-1.443678975E0,-2.843949318E0,-9.538994431E-1,3.328990966E0
5.747581930E0,-1.350346565E0,-3.101479530E0,-9.422653317E-1,3.511477620E0
5.752380107E0,-1.174281359E0,-3.344598770E0,-9.771157503E-1,3.676959727E0
5.757178336E0,-9.757511616E-1,-3.578331947E0,-1.022952557E0,3.847464332E0
5.761976565E0,-8.201489449E-1,-3.788807869E0,-1.049735069E0,4.016173935E0
5.766774742E0,-6.483252048E-1,-3.976455688E0,-1.161413908E0,4.193018922E0
5.771572971E0,-4.417724609E-1,-4.029408455E0,-1.314119458E0,4.261244578E0
5.776371201E0,-3.013215065E-1,-3.924263000E0,-1.466299295E0,4.200079567E0
5.781169430E0,-2.054650784E-1,-3.670971870E0,-1.621836424E0,4.018532538E0
5.785967607E0,-1.922934055E-1,-3.217245102E0,-1.779627085E0,3.681672902E0
5.790765836E0,-2.113685608E-1,-2.606383324E0,-1.873692513E0,3.216929332E0
5.795564065E0,-2.744388580E-1,-1.833778381E0,-1.777767062E0,2.568757592E0
5.800362242E0,-3.764619827E-1,-1.117039680E0,-1.666618824E0,2.041352389E0
5.805160471E0,-4.789733887E-1,-3.389024734E-1,-1.499229908E0,1.609956742E0
5.809958701E0,-5.553028584E-1,2.952079773E-1,-1.353852510E0,1.492791223E0
5.814756878E0,-5.957503319E-1,8.692436218E-1,-1.184089541E0,1.585109136E0
5.819555107E0,-6.240556240E-1,1.361909389E0,-1.022387862E0,1.813703269E0
5.824353336E0,-6.210236549E-1,1.735207558E0,-8.051507473E-1,2.011189542E0
5.829151513E0,-5.863449574E-1,2.075501442E0,-6.125710607E-1,2.242041469E0
5.833949742E0,-5.056359768E-1,2.232406616E0,-3.785083294E-1,2.320037844E0
5.838747971E0,-4.100675583E-1,2.275550842E0,-1.587126851E-1,2.317644657E0
5.843546149E0,-2.280721664E-1,2.138179302E0,9.108018875E-2,2.152236800E0
5.848344378E0,-3.660559654E-2,1.853903770E0,3.219313622E-1,1.882003975E0
5.853142607E0,2.858152390E-1,1.389312744E0,5.060111880E-1,1.505964002E0
5.857940784E0,5.902757645E-1,8.304176331E-1,6.318451166E-1,1.198852441E0
5.862739013E0,9.286518097E-1,1.865816116E-1,7.547031641E-1,1.211108479E0
5.867537242E0,1.307545900E0,-5.208988190E-1,8.049122095E-1,1.621386914E0
5.872335419E0,1.695077181E0,-1.232596397E0,8.010184765E-1,2.243704777E0
5.877133649E0,2.054832458E0,-1.893885612E0,7.564824820E-1,2.895065611E0
5.881931878E0,2.419659376E0,-2.521925926E0,6.076290011E-1,3.547403963E0
5.886730055E0,2.762366533E0,-3.093255997E0,3.956044316E-1,4.165981804E0
5.891528284E0,3.063020468E0,-3.519822121E0,2.163174152E-1,4.670977989E0
5.896326513E0,3.265730143E0,-3.866577148E0,3.886246681E-2,5.061316281E0
5.901124690E0,3.468007088E0,-4.035703659E0,-1.765166670E-1,5.324014962E0
5.905922919E0,3.568825245E0,-3.989210129E0,-2.185371220E-1,5.357057920E0
5.910721149E0,3.494250298E0,-3.607721329E0,-1.979191750E-1,5.026391382E0
5.915519378E0,3.388324976E0,-3.120826721E0,-1.659121364E-1,4.609537114E0
5.920317555E0,3.392889023E0,-3.018249512E0,-2.022407651E-1,4.545594281E0
5.925115784E0,3.209778547E0,-2.572692871E0,-1.140893847E-1,4.115148031E0
5.929913961E0,3.024237394E0,-2.176167488E0,5.260251462E-2,3.726188908E0
5.934712190E0,2.765659809E0,-1.732663155E0,1.921454668E-1,3.269237781E0
5.939510419E0,2.523561954E0,-1.318415642E0,4.051375389E-1,2.875886154E0
5.944308649E0,2.284646273E0,-9.450502396E-1,6.080272794E-1,2.546060824E0
5.949106826E0,2.123660088E0,-6.290702820E-1,8.060407639E-1,2.356981820E0
5.953905055E0,1.966696858E0,-3.201599121E-1,1.021535158E0,2.239181319E0
5.958703284E0,1.835143328E0,-7.092857361E-2,1.264767051E0,2.229891833E0
5.963501461E0,1.721819162E0,1.545181274E-1,1.465008974E0,2.266007143E0
5.968299690E0,1.650323391E0,3.274354935E-1,1.651787758E0,2.357792208E0
5.973097919E0,1.546576023E0,4.932651520E-1,1.873821616E0,2.479196514E0
5.977896096E0,1.482034683E0,6.901559830E-1,2.019532681E0,2.598317596E0
5.982694326E0,1.423013449E0,8.845424652E-1,2.187713146E0,2.755625420E0
5.987492555E0,1.333366752E0,1.064406395E0,2.311701298E0,2.873115166E0
5.992290732E0,1.246289849E0,1.244019508E0,2.435155392E0,3.005129732E0
5.997088961E0,1.261499047E0,1.439982414E0,2.412511349E0,3.079795481E0
6.001887190E0,1.189810276E0,1.654608727E0,2.540615320E0,3.257008556E0
6.006685367E0,1.162510633E0,1.885450363E0,2.646849871E0,3.451400916E0
6.011483596E0,1.160456657E0,2.005849838E0,2.635262489E0,3.509230915E0
6.016281826E0,1.140258670E0,2.089972496E0,2.704238176E0,3.602926447E0
6.021080003E0,1.130198956E0,2.147360325E0,2.709872484E0,3.637569920E0
6.025878232E0,1.113334656E0,2.180409431E0,2.647196770E0,3.605738493E0
6.030676461E0,1.070095181E0,2.153218746E0,2.568896770E0,3.518619798E0
6.035474638E0,9.311237335E-1,2.061073780E0,2.362364054E0,3.270440407E0
6.040272867E0,7.637474537E-1,1.971018791E0,2.120897770E0,2.994400207E0
6.045071096E0,6.778732538E-1,1.825676918E0,1.985440969E0,2.781112044E0
6.049869274E0,5.993922949E-1,1.629897118E0,1.762308121E0,2.474179793E0
6.054667503E0,4.210299253E-1,1.395729065E0,1.399013638E0,2.020535815E0
6.059465732E0,2.004200220E-1,1.264231682E0,1.043754697E0,1.651627621E0
6.064263909E0,-4.680156708E-3,1.137341499E0,6.243738532E-1,1.297463024E0
6.069062138E0,-2.582715750E-1,9.960079193E-1,1.952541471E-1,1.047310920E0
6.073860367E0,-5.715821981E-1,9.646081924E-1,-1.888520569E-1,1.137031342E0
6.078658544E0,-8.126044869E-1,8.996715546E-1,-4.370414317E-1,1.288697083E0
6.083456774E0,-1.095798850E0,8.347291946E-1,-6.518165469E-1,1.523946442E0
6.088255003E0,-1.389466047E0,8.200531006E-1,-8.612488508E-1,1.828893810E0
6.093053180E0,-1.669151902E0,8.078804016E-1,-1.052435637E0,2.132219404E0
6.097851409E0,-1.922714114E0,7.815246582E-1,-1.191048622E0,2.392949472E0
6.102649638E0,-2.145251751E0,7.219505310E-1,-1.161244869E0,2.543974703E0
6.107447815E0,-2.346592903E0,5.981311798E-1,-1.093749523E0,2.657169016E0
6.112246044E0,-2.462406635E0,5.200929642E-1,-9.808180332E-1,2.701101098E0
6.117044274E0,-2.485782146E0,4.137029648E-1,-1.034978509E0,2.724232651E0
6.121842451E0,-2.472319126E0,4.103717804E-1,-7.421593666E-1,2.613726723E0
6.126640680E0,-2.334016323E0,3.928174973E-1,-7.840768695E-1,2.493333977E0
6.131438909E0,-2.195650578E0,4.541940689E-1,-5.657918453E-1,2.312421701E0
6.136237086E0,-2.002445698E0,4.581613541E-1,-5.919805765E-1,2.137788952E0
6.141035315E0,-1.836000562E0,5.242300034E-1,-6.499619484E-1,2.016969433E0
6.145833544E0,-1.598438859E0,6.116657257E-1,-6.683381796E-1,1.837339835E0
6.150631721E0,-1.337223291E0,7.611322403E-1,-6.355700493E-1,1.664763559E0
6.155429951E0,-1.023245692E0,8.842058182E-1,-6.761363745E-1,1.511956373E0
6.160228180E0,-7.757475972E-1,9.761848450E-1,-7.710299492E-1,1.466017861E0
6.165026409E0,-5.895944834E-1,1.058671951E0,-7.600071430E-1,1.430391140E0
6.169824586E0,-3.809829950E-1,1.048045158E0,-7.771002054E-1,1.359202496E0
6.174622815E0,-1.977615356E-1,9.826641083E-1,-1.044361949E0,1.447560104E0
6.179421044E0,-9.747302532E-2,9.725074768E-1,-1.030773878E0,1.420481105E0
6.184219221E0,-3.028023243E-2,8.812294006E-1,-1.245486259E0,1.526013818E0
6.189017451E0,1.584427357E-1,7.183685303E-1,-1.341660976E0,1.530101834E0
6.193815628E0,-3.101122379E-2,6.537017822E-1,-1.496122003E0,1.632993804E0
6.198613857E0,-8.702790737E-2,5.651750565E-1,-1.680222988E0,1.774865063E0
6.203412086E0,-1.916406155E-1,5.030012131E-1,-1.659398079E0,1.744516647E0
6.208210315E0,-2.658419609E-1,4.671697617E-1,-1.708673954E0,1.791224781E0
6.213008492E0,-3.693890572E-1,4.648284912E-1,-1.691812515E0,1.792970549E0
6.217806721E0,-4.520074129E-1,4.672594070E-1,-1.589868665E0,1.717650845E0
6.222604899E0,-5.588846207E-1,4.410343170E-1,-1.407845497E0,1.577622335E0
6.227403128E0,-6.544620395E-1,3.263435364E-1,-1.089105487E0,1.311858005E0
6.232201357E0,-7.054544687E-1,2.069063187E-1,-9.589945078E-1,1.208365300E0
6.236999586E0,-7.740786076E-1,1.209583282E-1,-8.596207500E-1,1.163089180E0
6.241797763E0,-8.103596568E-1,1.583290100E-2,-8.102261424E-1,1.146036586E0
6.246595992E0,-8.285664320E-1,-8.453750610E-2,-8.419228792E-1,1.184273219E0
6.251394221E0,-8.263802528E-1,-2.040462494E-1,-8.731628656E-1,1.219406652E0
6.256192399E0,-8.300518394E-1,-3.306818008E-1,-8.868716359E-1,1.258919302E0
6.260990628E0,-8.155480623E-1,-4.118232727E-1,-9.187735319E-1,1.295709016E0
6.265788857E0,-7.562196851E-1,-4.976377487E-1,-9.542759657E-1,1.315353245E0
6.270587034E0,-6.827252507E-1,-6.955776215E-1,-1.103233576E0,1.472095893E0
6.275385263E0,-5.946867466E-1,-8.859167099E-1,-1.083074450E0,1.520378574E0
6.280183492E0,-5.443255305E-1,-1.157001495E0,-1.046607137E0,1.652370794E0
6.284981669E0,-5.196876526E-1,-1.518286705E0,-8.622807264E-1,1.821756797E0
6.289779899E0,-4.252071381E-1,-1.869263649E0,-7.759509087E-1,2.068102394E0
6.294578128E0,-3.207833767E-1,-2.217106819E0,-7.083134055E-1,2.349504736E0
6.299376305E0,-1.465922594E-1,-2.580941200E0,-6.856867075E-1,2.674493042E0
6.304174534E0,4.242777824E-3,-2.869982719E0,-7.016396523E-1,2.954507914E0
6.308972763E0,1.364469528E-1,-3.110680580E0,-7.232496142E-1,3.196567135E0
6.313770940E0,2.280664444E-1,-3.243530273E0,-6.968936920E-1,3.325381746E0
6.318569169E0,3.261816502E-1,-3.225854874E0,-6.931601167E-1,3.315570099E0
6.323367399E0,4.183319807E-1,-3.062781334E0,-7.467200160E-1,3.180129231E0
6.328165576E0,4.781842232E-1,-2.745000839E0,-7.629966736E-1,2.888919120E0
6.332963805E0,4.726896286E-1,-2.227246284E0,-7.518215775E-1,2.397769209E0
6.337762034E0,4.527614117E-1,-1.696049690E0,-6.962956786E-1,1.888492817E0
6.342560211E0,5.073945522E-1,-1.172808647E0,-6.126190424E-1,1.417120830E0
6.347358440E0,6.252361536E-1,-6.549673080E-1,-5.288318992E-1,1.048601736E0
6.352156669E0,7.159693241E-1,-2.355842590E-1,-4.274235368E-1,8.664888320E-1
6.356954846E0,8.805623055E-1,6.646633148E-2,-3.341660202E-1,9.441793664E-1
6.361753076E0,1.102487683E0,2.848968506E-1,-2.815260291E-1,1.172988582E0
6.366551305E0,1.341077566E0,4.222564697E-1,-2.542232871E-1,1.428782364E0
6.371349482E0,1.589041233E0,4.929847717E-1,-2.901945710E-1,1.688875044E0
6.376147711E0,1.845957398E0,4.732151031E-1,-3.102024794E-1,1.930729610E0
6.380945940E0,2.149610758E0,4.609575272E-1,-3.956738412E-1,2.233800806E0
6.385744117E0,2.348604679E0,3.485422134E-1,-3.672694862E-1,2.402563733E0
6.390542346E0,2.592852116E0,1.980752945E-1,-3.929545283E-1,2.629929500E0
6.395340576E0,2.771444082E0,5.247306824E-2,-3.414132595E-1,2.792887169E0
6.400138753E0,3.012822628E0,-7.645130157E-2,-2.802007794E-1,3.026789961E0
6.404936982E0,3.201817751E0,-1.792240143E-1,-1.904940307E-1,3.212482861E0
6.409735211E0,3.352432251E0,-2.320404053E-1,-1.251209378E-1,3.362781586E0
6.414533388E0,3.462030888E0,-3.043251038E-1,-3.899246454E-2,3.475599524E0
6.419331617E0,3.561606884E0,-3.220014572E-1,2.931898832E-2,3.576253366E0
6.424129846E0,3.615312099E0,-3.281822205E-1,7.454210520E-2,3.630942257E0
6.428928024E0,3.690098286E0,-3.420219421E-1,1.441836357E-1,3.708718551E0
6.433726253E0,3.683432579E0,-3.563346863E-1,1.852095127E-1,3.705260117E0
6.438524482E0,3.717230082E0,-3.544130325E-1,2.333825827E-1,3.741373479E0
6.443322711E0,3.681390524E0,-3.912649155E-1,2.792139649E-1,3.712638531E0
6.448120888E0,3.609276533E0,-4.310283661E-1,3.275759220E-1,3.649653207E0
6.452919117E0,3.570430279E0,-4.904041290E-1,2.256852984E-1,3.611011277E0
6.457717294E0,3.433567762E0,-5.143737793E-1,1.509487629E-1,3.475162369E0
6.462515524E0,3.241930962E0,-5.555458069E-1,1.417400837E-1,3.292239018E0
6.467313753E0,3.014942169E0,-6.234216690E-1,7.642650604E-2,3.079670741E0
6.472111930E0,2.788746357E0,-7.036046982E-1,-1.615589857E-2,2.876182683E0
6.476910159E0,2.616160393E0,-7.219572067E-1,-1.357534528E-1,2.717341791E0
6.481708388E0,2.389753819E0,-7.167711258E-1,-2.726217210E-1,2.509782214E0
6.486506617E0,2.035702705E0,-7.310905457E-1,-2.811360955E-1,2.181196093E0
6.491304794E0,1.731281161E0,-6.692409515E-1,-2.734528780E-1,1.876164808E0
6.496103024E0,1.502981663E0,-5.790863037E-1,-3.643888235E-1,1.651385491E0
6.500901253E0,1.322292566E0,-5.012588501E-1,-4.940976202E-1,1.497948772E0
6.505699430E0,1.144115329E0,-3.854789734E-1,-6.121501923E-1,1.353632809E0
6.510497659E0,9.542614222E-1,-2.700223923E-1,-7.187125683E-1,1.224775371E0
6.515295888E0,6.616783142E-1,-1.597299576E-1,-7.685447335E-1,1.026641543E0
6.520094065E0,4.360445738E-1,3.141975403E-2,-8.595697284E-1,9.643558416E-1
6.524892294E0,2.221440077E-1,2.363576889E-1,-1.013375163E0,1.064021681E0
6.529690524E0,1.708769798E-2,5.027656555E-1,-1.155764699E0,1.260498843E0
6.534488701E0,-2.175662518E-1,7.731533051E-1,-1.293951035E0,1.522961059E0
6.539286930E0,-4.818092585E-1,1.033169746E0,-1.382381916E0,1.791803462E0
6.544085159E0,-6.413654089E-1,1.309205055E0,-1.542788029E0,2.122631001E0
6.548883336E0,-7.481132746E-1,1.493829727E0,-1.708426952E0,2.389544596E0
6.553681565E0,-9.069143534E-1,1.661340237E0,-1.754782081E0,2.581047302E0
6.558479742E0,-1.115344286E0,1.759176254E0,-1.779960752E0,2.739882159E0
6.563277971E0,-1.225084305E0,1.844810963E0,-1.920141697E0,2.931058372E0
6.568076201E0,-1.310197115E0,1.949421883E0,-2.062335014E0,3.125713977E0
6.572874430E0,-1.380478263E0,2.080152035E0,-2.122600555E0,3.276917124E0
6.577672607E0,-1.474335909E0,2.179671288E0,-2.169657707E0,3.410578816E0
6.582470836E0,-1.594073176E0,2.207444191E0,-2.224807024E0,3.516197583E0
6.587269065E0,-1.727510452E0,2.266360283E0,-2.278674126E0,3.648703477E0
6.592067242E0,-1.822169662E0,2.306147575E0,-2.164201975E0,3.649984809E0
6.596865471E0,-1.916411400E0,2.367478371E0,-2.094084263E0,3.696319168E0
6.601663701E0,-1.955413342E0,2.421591282E0,-2.058946133E0,3.731890252E0
6.606461878E0,-1.930083513E0,2.559215069E0,-2.094587803E0,3.829112456E0
6.611260107E0,-1.967408657E0,2.655948162E0,-1.990393639E0,3.858292926E0
6.616058284E0,-1.950383902E0,2.769158840E0,-1.923338413E0,3.895056957E0
6.620856513E0,-1.876906157E0,2.898780823E0,-1.878962636E0,3.931438358E0
6.625654742E0,-1.852181435E0,3.011336327E0,-1.871569872E0,4.000187036E0
6.630452971E0,-1.797088265E0,3.099742413E0,-1.848413110E0,4.031694468E0
6.635251149E0,-1.694895506E0,3.223779202E0,-1.816716433E0,4.070120602E0
6.640049378E0,-1.622098207E0,3.299776077E0,-1.802713037E0,4.095057881E0
6.644847607E0,-1.509323955E0,3.287208557E0,-1.748758078E0,4.017705030E0
6.649645784E0,-1.404529214E0,3.253090858E0,-1.731232643E0,3.943661866E0
6.654444013E0,-1.245636940E0,3.147227764E0,-1.745389700E0,3.808285597E0
6.659242242E0,-1.051912189E0,2.991207123E0,-1.805373192E0,3.648727404E0
6.664040419E0,-8.594239950E-1,2.773081779E0,-1.801198959E0,3.416564042E0
6.668838649E0,-7.087783813E-1,2.423604488E0,-1.811874747E0,3.107911776E0
6.673636878E0,-5.570230484E-1,2.009806633E0,-1.813473225E0,2.763744293E0
6.678435055E0,-4.234213829E-1,1.519714355E0,-1.763284564E0,2.366007152E0
6.683233284E0,-2.698731422E-1,1.020245552E0,-1.771444798E0,2.061977005E0
6.688031513E0,-1.372146606E-1,4.993267059E-1,-1.749821424E0,1.824836990E0
6.692829690E0,-3.743767738E-2,-3.831577301E-2,-1.789461851E0,1.790263499E0
6.697627919E0,3.442502022E-2,-5.210056305E-1,-1.814210415E0,1.887853643E0
6.702426149E0,1.095669270E-1,-1.051634789E0,-1.881876707E0,2.158564472E0
6.707224326E0,1.596016884E-1,-1.505858421E0,-1.988085270E0,2.499112908E0
6.712022555E0,2.065029144E-1,-1.945784569E0,-2.058750153E0,2.840276964E0
6.716820784E0,2.289373875E-1,-2.409732819E0,-2.123394251E0,3.219942193E0
6.721618961E0,1.744141579E-1,-2.771093369E0,-2.273506403E0,3.588622315E0
6.726417190E0,2.272562981E-1,-3.304824829E0,-2.397155285E0,4.088993279E0
6.731215419E0,1.488568783E-1,-3.621011734E0,-2.530457497E0,4.420079127E0
6.736013596E0,-2.665519714E-3,-3.863162994E0,-2.618979454E0,4.667235671E0
6.740811826E0,-1.503336430E-1,-4.024025917E0,-2.634075642E0,4.811833255E0
6.745610055E0,-3.915498257E-1,-4.184720039E0,-2.633264542E0,4.959765642E0
6.750408232E0,-6.349864006E-1,-4.091666222E0,-2.661429167E0,4.922209403E0
6.755206461E0,-8.608267307E-1,-3.947946548E0,-2.727661848E0,4.875186537E0
6.760004690E0,-1.085470200E0,-3.765243530E0,-2.668355942E0,4.740825648E0
6.764802867E0,-1.260593653E0,-3.574264526E0,-2.568703175E0,4.578504042E0
6.769601096E0,-1.414795637E0,-3.513272285E0,-2.379261971E0,4.472763840E0
6.774399326E0,-1.545583487E0,-3.474244118E0,-2.110703230E0,4.349053762E0
6.779197503E0,-1.581213951E0,-3.349304199E0,-1.866787195E0,4.147646394E0
6.783995732E0,-1.579338074E0,-3.351101875E0,-1.596110463E0,4.033827108E0
6.788793961E0,-1.628928185E0,-3.403017044E0,-1.256904006E0,3.976649307E0
6.793592138E0,-1.656355381E0,-3.345002174E0,-9.944900274E-1,3.862843915E0
6.798390367E0,-1.604697466E0,-3.363744736E0,-7.916974425E-1,3.810067906E0
6.803188596E0,-1.541485071E0,-3.368680954E0,-6.322767138E-1,3.758185924E0
6.807986774E0,-1.476654291E0,-3.350542068E0,-5.428742766E-1,3.701533808E0
6.812785003E0,-1.374672651E0,-3.309714317E0,-5.077787638E-1,3.619637141E0
6.817583232E0,-1.235588312E0,-3.248889923E0,-5.714825988E-1,3.522578114E0
6.822381409E0,-1.083650112E0,-3.161265373E0,-6.442925930E-1,3.403382034E0
6.827179638E0,-9.046423435E-1,-2.953939438E0,-7.802866697E-1,3.186374626E0
6.831977867E0,-8.111014366E-1,-2.665514946E0,-8.704866171E-1,2.919007095E0
6.836776044E0,-7.431366444E-1,-2.389353752E0,-8.893259168E-1,2.655591085E0
6.841574274E0,-6.812691689E-1,-2.115786552E0,-9.019172192E-1,2.398777832E0
6.846372503E0,-6.085667610E-1,-1.844730377E0,-8.917169571E-1,2.137414980E0
6.851170680E0,-5.223755836E-1,-1.564101219E0,-9.472075701E-1,1.901707405E0
6.855968909E0,-4.628860950E-1,-1.295213699E0,-9.679040909E-1,1.681868126E0
6.860767138E0,-3.915007114E-1,-1.143058777E0,-9.682294130E-1,1.548329542E0
6.865565315E0,-3.487865925E-1,-1.071567535E0,-8.807820082E-1,1.430274804E0
6.870363544E0,-3.036949635E-1,-1.016094208E0,-7.385547757E-1,1.292339439E0
6.875161774E0,-2.637324333E-1,-1.024513245E0,-5.455849171E-1,1.190313020E0
6.879959951E0,-2.220785618E-1,-1.020381927E0,-3.034235239E-1,1.087457586E0
6.884758180E0,-1.791265011E-1,-1.003874779E0,-5.214491487E-2,1.021063155E0
6.889556409E0,-1.711437702E-1,-9.847373962E-1,2.305240929E-1,1.025738411E0
6.894354586E0,-1.506028175E-1,-9.917945862E-1,4.425858259E-1,1.096457898E0
6.899152815E0,-1.295793056E-1,-9.605770111E-1,6.683253050E-1,1.177351988E0
6.903951044E0,-1.224923134E-1,-9.940233231E-1,8.620399237E-1,1.321438445E0
6.908749221E0,-1.196415424E-1,-1.032331467E0,1.014303088E0,1.452182189E0
6.913547451E0,-1.187412739E-1,-1.171226501E0,1.156231403E0,1.650073352E0
6.918345680E0,-3.605747223E-2,-1.317440033E0,1.175106645E0,1.765736109E0
6.923143857E0,4.323959351E-3,-1.506796837E0,1.218352079E0,1.937740229E0
6.927942086E0,-1.641559601E-2,-1.653182030E0,1.399826646E0,2.166285977E0
6.932740315E0,-2.601218224E-2,-1.730219841E0,1.663457394E0,2.400297447E0
6.937538492E0,-8.397722244E-2,-1.881306648E0,1.893186450E0,2.670303693E0
6.942336721E0,-1.109018326E-1,-2.096581459E0,2.133173943E0,2.993055980E0
6.947134951E0,-1.686360836E-1,-2.301687241E0,2.322104931E0,3.273892728E0
6.951933128E0,-2.309911251E-1,-2.479886055E0,2.511920214E0,3.537362705E0
6.956731357E0,-2.765791416E-1,-2.609656334E0,2.630155563E0,3.715443512E0
6.961529586E0,-4.056999683E-1,-2.647883415E0,2.869383812E0,3.925460802E0
6.966327763E0,-5.657684803E-1,-2.706911087E0,3.042135954E0,4.111210621E0
6.971125992E0,-6.900379658E-1,-2.669560432E0,3.169295311E0,4.200849684E0
6.975924221E0,-7.668704987E-1,-2.533565521E0,3.150270462E0,4.114759847E0
6.980722399E0,-8.180530071E-1,-2.330108643E0,2.958608866E0,3.853827115E0
6.985520628E0,-8.725252151E-1,-2.097565651E0,2.568516731E0,3.429046531E0
6.990318857E0,-8.469932079E-1,-1.888658524E0,2.188481808E0,3.012288355E0
6.995117034E0,-8.588747978E-1,-1.562474251E0,1.769051790E0,2.511679904E0
6.999915263E0,-9.010312557E-1,-1.317578316E0,1.423131943E0,2.138498181E0
7.004713492E0,-9.349900484E-1,-1.024831772E0,1.156296730E0,1.805964750E0
7.009511669E0,-1.001177192E0,-7.440643311E-1,9.788439274E-1,1.585598604E0
7.014309899E0,-1.015655875E0,-4.537906647E-1,8.750169873E-1,1.415322420E0
7.019108128E0,-1.016646624E0,-1.493082047E-1,8.574014902E-1,1.338282710E0
7.023906305E0,-1.016167879E0,8.320140839E-2,8.648314476E-1,1.336956643E0
7.028704534E0,-9.637867212E-1,3.322134018E-1,9.460681677E-1,1.390789548E0
7.033502763E0,-9.313979149E-1,6.119337082E-1,1.127974510E0,1.585651738E0
7.038300940E0,-8.975478411E-1,8.672657013E-1,1.274759054E0,1.784027065E0
7.043099169E0,-8.263678551E-1,1.107745171E0,1.401340008E0,1.968181143E0
7.047897399E0,-7.681317329E-1,1.431312561E0,1.577428937E0,2.264280031E0
7.052695576E0,-7.157014608E-1,1.687242985E0,1.786599874E0,2.559483655E0
7.057493805E0,-6.263866425E-1,2.016496658E0,1.998162746E0,2.907107387E0
7.062292034E0,-5.410501957E-1,2.383084297E0,2.195201159E0,3.284925297E0
7.067090211E0,-4.217362404E-1,2.638727188E0,2.258051872E0,3.498505522E0
7.071888440E0,-2.545051575E-1,2.965129375E0,2.301292419E0,3.762009023E0
7.076686669E0,-1.041570902E-1,3.235516071E0,2.252934694E0,3.943998946E0
7.081484846E0,2.432918549E-2,3.485796452E0,2.179529428E0,4.111169826E0
7.086283076E0,2.024837732E-1,3.675357819E0,2.104733467E0,4.240183692E0
7.091081305E0,3.891732693E-1,3.742098808E0,2.064014435E0,4.291260294E0
7.095879482E0,6.150732040E-1,3.784144878E0,2.011478901E0,4.329447410E0
7.100677711E0,8.221720457E-1,3.796693802E0,2.025787354E0,4.381171658E0
7.105475940E0,1.031542420E0,3.770223141E0,2.022823095E0,4.401190245E0
7.110274117E0,1.247360587E0,3.711914539E0,2.076661110E0,4.432464252E0
7.115072346E0,1.433236480E0,3.593138695E0,2.108018637E0,4.405514165E0
7.119870576E0,1.645951629E0,3.488043308E0,2.221956253E0,4.451145075E0
7.124668753E0,1.856565356E0,3.346472263E0,2.325103283E0,4.477925503E0
7.129466982E0,2.029036283E0,3.161385059E0,2.457531691E0,4.488964886E0
7.134265211E0,2.177736282E0,2.997420311E0,2.643128872E0,4.551175021E0
7.139063388E0,2.324267387E0,2.900064945E0,2.854930162E0,4.686493551E0
7.143861617E0,2.463831902E0,2.752205849E0,2.965849400E0,4.737232033E0
7.148659794E0,2.639455795E0,2.654358387E0,3.011281013E0,4.804181375E0
7.153458024E0,2.829798222E0,2.489453793E0,3.016952038E0,4.827746654E0
7.158256253E0,2.975091457E0,2.434444427E0,2.946934938E0,4.843770678E0
7.163054482E0,3.106527328E0,2.398406506E0,2.858428478E0,4.855252740E0
7.167852659E0,3.166810989E0,2.457822800E0,2.664843559E0,4.813623994E0
7.172650888E0,3.232708931E0,2.490707397E0,2.346876383E0,4.707638381E0
7.177449117E0,3.302027225E0,2.554436684E0,1.983422041E0,4.621957763E0
7.182247294E0,3.294076443E0,2.586841583E0,1.462235093E0,4.436307074E0
7.187045524E0,3.226612329E0,2.619071484E0,8.932973146E-1,4.250710841E0
7.191843753E0,3.074588537E0,2.670290470E0,3.198687136E-1,4.084833150E0
7.196641930E0,2.907969713E0,2.659225464E0,-2.635387182E-1,3.949331662E0
7.201440159E0,2.724592209E0,2.612195015E0,-7.383068800E-1,3.846045053E0
7.206238388E0,2.555681229E0,2.400123596E0,-1.268847704E0,3.728548553E0
7.211036565E0,2.395976067E0,2.104272842E0,-2.347182751E0,3.959536889E0
7.215834794E0,2.161484718E0,1.781819820E0,-2.850392818E0,3.996453087E0
7.220632971E0,1.904903412E0,1.470715523E0,-2.721132040E0,3.632660284E0
7.225431201E0,1.673962831E0,1.256657600E0,-2.474386215E0,3.240976246E0
7.230229430E0,1.464145184E0,9.552936554E-1,-2.203444958E0,2.812734749E0
7.235027659E0,1.215432882E0,6.263141632E-1,-1.790989757E0,2.253262264E0
7.239825836E0,8.051177263E-1,-3.630733490E-2,-1.376409531E0,1.595003439E0
7.244624065E0,4.311541319E-1,-6.856555939E-1,-1.234808207E0,1.476742627E0
7.249422294E0,1.504844427E-1,-1.118478775E0,-1.260625482E0,1.691986094E0
7.254220471E0,-1.831544638E-1,-1.535386086E0,-1.437614083E0,2.111324286E0
7.259018701E0,-6.980447173E-1,-1.806305885E0,-1.889782190E0,2.705787151E0
7.263816930E0,-1.568442345E0,-1.760211945E0,-3.106456280E0,3.899798469E0
7.268615107E0,-1.722277641E0,-1.924928665E0,-4.469641685E0,5.162294784E0
7.273413336E0,-1.870093822E0,-2.488623619E0,-5.726264954E0,6.517714994E0
7.278211565E0,-1.988819122E0,-2.817170143E0,-6.855982780E0,7.674395677E0
7.283009742E0,-2.181893826E0,-2.652729034E0,-7.832768917E0,8.552771534E0
7.287807971E0,-2.162495613E0,-2.772945404E0,-8.231681824E0,8.951323876E0
7.292606149E0,-2.003072739E0,-2.900728226E0,-8.144779205E0,8.874905799E0
7.297404378E0,-1.759636879E0,-2.991153717E0,-7.672966003E0,8.421266520E0
7.302202607E0,-1.507745981E0,-3.023243904E0,-6.818447113E0,7.609502131E0
7.307000836E0,-1.243342876E0,-2.939990044E0,-5.792616367E0,6.613913164E0
7.311799013E0,-1.144177198E0,-2.985573769E0,-4.701172352E0,5.685403563E0
7.316597242E0,-1.117939234E0,-3.224637985E0,-3.771298885E0,5.086332033E0
7.321395419E0,-1.157775164E0,-3.399018288E0,-2.854394436E0,4.587083632E0
7.326193649E0,-1.120376825E0,-3.473115921E0,-1.911929369E0,4.119860719E0
7.330991878E0,-9.938619137E-1,-3.657564163E0,-1.197736621E0,3.974935235E0
7.335790107E0,-8.545014858E-1,-3.794673920E0,-6.475560069E-1,3.943228592E0
7.340588284E0,-7.160810232E-1,-3.908541679E0,-2.572682202E-1,3.981916251E0
7.345386513E0,-4.417425990E-1,-4.099684715E0,8.080020547E-3,4.123422920E0
7.350184742E0,-6.010997295E-2,-4.294060707E0,1.255509555E-1,4.296316283E0
7.354982919E0,4.931840897E-1,-4.515663147E0,2.324601263E-1,4.548459290E0
7.359781149E0,8.119418621E-1,-4.556537628E0,6.662566662E-1,4.676022101E0
7.364579326E0,1.221743107E0,-4.665367126E0,8.682730794E-1,4.900224973E0
7.369377555E0,1.519249201E0,-4.543221474E0,1.120967507E0,4.919913378E0
7.374175784E0,1.766737580E0,-4.292950630E0,1.389138222E0,4.845667321E0
7.378973961E0,1.859135509E0,-3.759120941E0,1.680715203E0,4.517983918E0
7.383772190E0,1.770477891E0,-3.082793236E0,2.001556396E0,4.079759074E0
7.388570419E0,1.702057719E0,-2.201737404E0,2.284461021E0,3.600473612E0
7.393368596E0,1.608636975E0,-1.118353844E0,2.514853477E0,3.187932912E0
7.398166826E0,1.521537900E0,-1.649217606E-1,2.753115177E0,3.149907927E0
7.402965055E0,1.450721383E0,7.162189484E-1,2.925817966E0,3.343347557E0
7.407763232E0,1.432291389E0,1.453547478E0,3.040979385E0,3.662214428E0
7.412561461E0,1.370664716E0,2.042455196E0,3.111742496E0,3.966520687E0
7.417359690E0,1.373777270E0,2.573958874E0,3.222736359E0,4.347247165E0
7.422157867E0,1.453708410E0,2.890376091E0,3.205185652E0,4.554202142E0
7.426956096E0,1.536505342E0,3.039704800E0,3.141759157E0,4.633713903E0
7.431754326E0,1.569450378E0,3.117638111E0,3.114753008E0,4.678090228E0
7.436552503E0,1.671998024E0,3.050065041E0,3.089280128E0,4.652109828E0
7.441350732E0,1.829446316E0,2.791638374E0,3.023120403E0,4.503262774E0
7.446148961E0,2.064931154E0,2.445214272E0,2.974124432E0,4.369030744E0
7.450947138E0,2.310435295E0,1.946209908E0,2.916264772E0,4.198862284E0
7.455745367E0,2.569509029E0,1.464331627E0,2.880731821E0,4.128590509E0
7.460543596E0,2.795626163E0,9.827308655E-1,2.848102331E0,4.110106141E0
7.465341774E0,3.040570259E0,5.348243713E-1,2.691253185E0,4.095601093E0
7.470140003E0,3.241486311E0,2.352600098E-1,2.548586369E0,4.130117826E0
7.474938232E0,3.332989693E0,-2.209663391E-3,2.345490456E0,4.075555257E0
7.479736409E0,3.402966738E0,-1.561326981E-1,2.119564295E0,4.012120741E0
7.484534638E0,3.446402788E0,-2.218217850E-1,1.880188704E0,3.932175815E0
7.489332867E0,3.403452635E0,-2.088794708E-1,1.665021420E0,3.794656348E0
7.494131044E0,3.369911909E0,-7.431507111E-2,1.557156205E0,3.713026320E0
7.498929274E0,3.214644909E0,2.886962891E-2,1.357536077E0,3.489653213E0
7.503727503E0,3.029315948E0,1.294813156E-1,1.192761779E0,3.258251247E0
7.508525680E0,2.802794933E0,2.634792328E-1,1.055364490E0,3.006472177E0
7.513323909E0,2.549929619E0,3.615894318E-1,1.019057393E0,2.769723082E0
7.518122138E0,2.356920719E0,4.095201492E-1,8.996168971E-1,2.555795882E0
7.522920315E0,2.183246136E0,3.595590591E-1,8.617733717E-1,2.374552537E0
7.527718544E0,2.005252361E0,2.190475464E-1,8.834733963E-1,2.202168046E0
7.532516774E0,1.851787210E0,4.546356201E-2,8.830385208E-1,2.052057464E0
7.537314951E0,1.641986966E0,-1.061706543E-1,8.341109157E-1,1.844758636E0
7.542113180E0,1.450663805E0,-2.095613480E-1,9.373903275E-1,1.739839665E0
7.546911409E0,1.165942073E0,-3.627738953E-1,9.348309040E-1,1.537834398E0
7.551709586E0,8.984012604E-1,-3.601865768E-1,1.027011275E0,1.411244612E0
7.556507815E0,6.082823277E-1,-4.313411713E-1,1.072587609E0,1.306333333E0
7.561305992E0,2.839950323E-1,-4.160823822E-1,1.141178250E0,1.247423555E0
7.566104221E0,1.168513298E-2,-2.811651230E-1,1.180542469E0,1.213618923E0
7.570902451E0,-2.632384300E-1,-1.415185928E-1,1.258346319E0,1.293351245E0
7.575700680E0,-5.382122993E-1,2.665519714E-2,1.296357632E0,1.403896751E0
7.580498857E0,-7.368260026E-1,2.686109543E-1,1.304855585E0,1.522403528E0
7.585297086E0,-9.282257557E-1,4.551525116E-1,1.282260537E0,1.647106234E0
7.590095263E0,-1.081423283E0,6.197261810E-1,1.193459988E0,1.725654542E0
7.594893492E0,-1.275248051E0,8.722534180E-1,1.053627729E0,1.870084225E0
7.599691721E0,-1.430699587E0,1.124187469E0,9.114174843E-1,2.035038232E0
7.604489899E0,-1.535735965E0,1.253672600E0,7.027418613E-1,2.103336888E0
7.609288128E0,-1.640583754E0,1.349299431E0,5.476770997E-1,2.193644049E0
7.614086357E0,-1.676014066E0,1.442193985E0,2.598330081E-1,2.226310812E0
7.618884534E0,-1.656411171E0,1.491765976E0,-1.176919937E-1,2.232244409E0
7.623682763E0,-1.605816126E0,1.536305428E0,-6.810773611E-1,2.324380814E0
7.628480992E0,-1.579132199E0,1.535192490E0,-1.306618929E0,2.560806027E0
7.633279169E0,-1.526520133E0,1.481227875E0,-1.836910725E0,2.810434262E0
7.638077399E0,-1.486641169E0,1.410220146E0,-2.310554981E0,3.088282232E0
7.642875628E0,-1.340090990E0,1.386654854E0,-2.751783133E0,3.360203261E0
7.647673805E0,-1.197575569E0,1.266953468E0,-3.143583775E0,3.594645641E0
7.652472034E0,-1.076489449E0,1.187347412E0,-3.466403484E0,3.818975848E0
7.657270263E0,-9.606800675E-1,1.114264488E0,-3.714775562E0,3.995503600E0
7.662068440E0,-8.695183396E-1,1.069205284E0,-3.888308525E0,4.125312748E0
7.666866669E0,-8.030804992E-1,1.033100128E0,-4.062554836E0,4.268089263E0
7.671664899E0,-6.658732295E-1,9.845314026E-1,-4.117170811E0,4.285298674E0
7.676463076E0,-5.608922243E-1,9.953231812E-1,-4.166232586E0,4.320041931E0
7.681261305E0,-4.764798880E-1,9.484329224E-1,-4.151348591E0,4.284886605E0
7.686059534E0,-4.507849216E-1,9.182176590E-1,-4.133888245E0,4.258563459E0
7.690857711E0,-3.261908293E-1,9.286642075E-1,-4.189990520E0,4.304049050E0
7.695655940E0,-2.369730473E-1,8.890295029E-1,-4.115838528E0,4.217422965E0
7.700454117E0,-1.787161827E-1,8.520727158E-1,-3.987367153E0,4.081306678E0
7.705252346E0,-1.179938316E-1,8.538913727E-1,-3.937227249E0,4.030485260E0
7.710050576E0,-4.431486130E-3,8.779392242E-1,-4.019519806E0,4.114284432E0
7.714848805E0,9.293127060E-2,8.407459259E-1,-4.071079254E0,4.158025520E0
7.719646982E0,2.437319756E-1,7.496232986E-1,-3.994226694E0,4.071263594E0
7.724445211E0,3.718988895E-1,6.476240158E-1,-3.940658092E0,4.010799403E0
7.729243440E0,4.923881292E-1,5.586156845E-1,-3.920933723E0,3.991017266E0
7.734041617E0,6.653856039E-1,4.490385056E-1,-3.890684366E0,3.972631171E0
7.738839846E0,7.928545475E-1,3.689746857E-1,-3.769462109E0,3.869574297E0
7.743638076E0,9.322155714E-1,2.298479080E-1,-3.610638618E0,3.736116589E0
7.748436253E0,1.064297318E0,9.616374969E-2,-3.438622475E0,3.600847230E0
7.753234482E0,1.186647415E0,-5.880355835E-3,-3.220301628E0,3.431983281E0
7.758032711E0,1.258464336E0,-1.289596558E-1,-2.943755627E0,3.204069330E0
7.762830888E0,1.334535837E0,-2.898807526E-1,-2.707268715E0,3.032213819E0
7.767629117E0,1.376534820E0,-4.409046173E-1,-2.432359219E0,2.829419792E0
7.772427294E0,1.418011665E0,-6.513729095E-1,-2.202743530E0,2.699467135E0
7.777225524E0,1.454215884E0,-8.161401749E-1,-1.951876163E0,2.567225970E0
7.782023753E0,1.463575602E0,-1.038090706E0,-1.727757096E0,2.490949706E0
7.786821930E0,1.472663403E0,-1.245474815E0,-1.533109188E0,2.463811843E0
7.791620159E0,1.510611653E0,-1.459809303E0,-1.377921700E0,2.512301531E0
7.796418388E0,1.549026132E0,-1.638088226E0,-1.258041978E0,2.581759983E0
7.801216565E0,1.607317924E0,-1.847254753E0,-1.097298026E0,2.683259956E0
7.806014794E0,1.599519134E0,-2.096795082E0,-9.386103153E-1,2.799285694E0
7.810813024E0,1.619027615E0,-2.288662910E0,-7.676864862E-1,2.906642544E0
7.815611201E0,1.663790464E0,-2.449133873E0,-6.082754135E-1,3.022656847E0
7.820409430E0,1.674118876E0,-2.580610275E0,-4.339253604E-1,3.106527744E0
7.825207659E0,1.702868104E0,-2.697417259E0,-2.445190251E-1,3.199313864E0
7.830005836E0,1.733292937E0,-2.866480827E0,-4.464042187E-2,3.350076045E0
7.834804065E0,1.803561211E0,-2.992148399E0,1.780148149E-1,3.498210165E0
7.839602294E0,1.841931939E0,-3.131820679E0,3.475238085E-1,3.649902304E0
7.844400471E0,1.898688912E0,-3.273538589E0,5.502233505E-1,3.824110383E0
7.849198701E0,1.930712342E0,-3.443634033E0,7.241401076E-1,4.013806722E0
7.853996930E0,1.964300275E0,-3.608663559E0,8.549182415E-1,4.196643117E0
7.858795107E0,1.953844547E0,-3.701814651E0,9.469897747E-1,4.291588268E0
7.863593336E0,1.922975183E0,-3.704182625E0,9.517070055E-1,4.280718245E0
7.868391565E0,1.868941188E0,-3.601664543E0,8.750921488E-1,4.150989631E0
7.873189742E0,1.772377372E0,-3.375335693E0,7.928606272E-1,3.893949225E0
7.877987971E0,1.611581087E0,-3.025384903E0,7.207552195E-1,3.502803948E0
