"Time (s)","Linear Acceleration x (m/s^2)","Linear Acceleration y (m/s^2)","Linear Acceleration z (m/s^2)","Absolute acceleration (m/s^2)"
5.458583357E-3,2.403229022E-1,4.933757776E-1,-2.077597582E-1,5.868039471E-1
1.546858333E-2,1.960454464E-2,4.597815502E-1,-1.205929756E-2,4.603572947E-1
2.547958336E-2,4.452964622E-1,3.494164512E-1,5.119997442E-2,5.683328540E-1
3.548958333E-2,3.848052621E-1,2.103272706E-2,4.031070471E-3,3.854007199E-1
4.549958336E-2,2.420244420E-1,-1.944922797E-2,-8.126167953E-2,2.560421128E-1
5.551058333E-2,2.017716247E-1,2.603365327E-1,-3.608316779E-3,3.293932585E-1
6.552058336E-2,4.919841403E-1,2.218269897E-1,-2.975741601E-1,6.162840160E-1
7.553058333E-2,7.559853423E-1,1.029530954E-1,-6.199147868E-1,9.830602832E-1
8.554158336E-2,1.028529326E0,2.311513252E-1,-7.406287998E-1,1.288345656E0
9.555158333E-2,1.483226357E0,1.702844415E-1,-7.435869062E-1,1.667896491E0
1.055615834E-1,1.942498249E0,-6.174747437E-2,-5.482554048E-1,2.019330629E0
1.155725833E-1,2.364980630E0,-4.195435703E-2,-5.109104079E-1,2.419901443E0
1.255825834E-1,2.592598118E0,-3.921946809E-3,-8.268103266E-1,2.721248922E0
1.355925833E-1,2.524324858E0,1.488455522E-1,-1.089849662E0,2.753569188E0
1.456035834E-1,2.348862780E0,2.583510375E-1,-1.291628888E0,2.692992165E0
1.556135833E-1,2.429592363E0,4.595751435E-1,-1.424893949E0,2.853848477E0
1.656235834E-1,2.577459676E0,6.088519279E-1,-1.424266543E0,3.007080684E0
1.756345833E-1,2.905667399E0,6.762410883E-1,-1.347520960E0,3.273532921E0
1.856445834E-1,3.312004448E0,1.062385582E0,-1.173988756E0,3.671006155E0
1.956545833E-1,3.473788719E0,3.320184264E-1,-1.105080197E0,3.660416171E0
2.056655834E-1,4.060636917E0,-5.123732351E-2,-8.814358923E-1,4.155517617E0
2.156755833E-1,4.642617307E0,9.552669302E-3,-3.157932070E-1,4.653354926E0
2.256855834E-1,4.896202279E0,-2.254886623E-1,-8.840229928E-2,4.902188987E0
2.356965833E-1,5.086242051E0,-3.965061253E-1,6.489707708E-2,5.102086528E0
2.457065834E-1,5.322267834E0,-2.978264675E-1,3.661035275E-1,5.343151438E0
2.557165833E-1,4.858459672E0,8.121139348E-2,-1.097966766E-1,4.860378687E0
2.657265834E-1,3.387851021E0,8.768889512E-1,-7.592524740E-1,3.580912327E0
2.757375833E-1,2.389256516E0,1.143585573E0,-9.635930729E-1,2.818660368E0
2.857475834E-1,1.885790198E0,7.651689792E-1,-1.262899178E0,2.395120576E0
2.957575833E-1,7.535950005E-1,6.172290145E-1,-7.645211077E-1,1.238293021E0
3.057685834E-1,-7.961375874E-1,2.069119120E-1,3.616672450E-1,8.985826582E-1
3.157785833E-1,-2.442028806E0,-2.839630115E-1,2.096568874E0,3.231058762E0
3.257885834E-1,-4.155261823E0,-8.388778102E-1,4.306727512E0,6.042997490E0
3.357995834E-1,-6.206221830E0,-1.142479865E0,6.719131985E0,9.217873089E0
3.458095834E-1,-9.090248684E0,-1.269749338E0,8.285809219E0,1.236525450E1
3.558195833E-1,-1.229401065E1,-1.038773941E0,8.995848311E0,1.526915308E1
3.658305833E-1,-1.532400856E1,-5.358150150E-1,8.789731035E0,1.767404050E1
3.758405834E-1,-1.749594512E1,-3.921768469E-1,7.537373217E0,1.905449798E1
3.858505834E-1,-1.772362283E1,-1.752480698E-1,7.644108292E0,1.930258816E1
3.958615834E-1,-1.727061214E1,-6.844484594E-1,7.972341743E0,1.903419939E1
4.058715833E-1,-1.657011103E1,-6.473841289E-1,5.119280573E0,1.735496238E1
4.158815834E-1,-1.544884194E1,-1.022513126E0,4.666693802E0,1.617066113E1
4.258925833E-1,-1.371217445E1,-1.677857362E0,4.757665368E0,1.461076019E1
4.359025834E-1,-1.175783033E1,-2.307582607E0,4.195619305E0,1.269546111E1
4.459125833E-1,-9.178280854E0,-2.923214893E0,4.271172056E0,1.053702688E1
4.559235834E-1,-6.522374933E0,-3.557474654E0,4.348480725E0,8.608500758E0
4.659335833E-1,-3.554124784E0,-4.667763843E0,4.174482206E0,7.200425263E0
4.759435834E-1,-1.141479991E0,-5.019247577E0,3.945162594E0,6.485378224E0
4.859545833E-1,6.462307656E-1,-4.591543340E0,3.207892435E0,5.638302787E0
4.959645834E-1,2.290171353E0,-3.678400921E0,1.623551639E0,4.627249517E0
5.059745833E-1,3.557030266E0,-2.115639714E0,-7.020930174E-1,4.197776830E0
5.159855834E-1,4.303965873E0,-6.322294615E-1,-2.687158412E0,5.113184590E0
5.259955833E-1,5.549928591E0,6.555455263E-1,-4.201995986E0,6.992010982E0
5.360055834E-1,7.223788211E0,1.964734041E0,-5.344372648E0,9.198131059E0
5.460165833E-1,8.948155496E0,3.202824068E0,-5.631657463E0,1.104731345E1
5.560265834E-1,1.064593432E1,3.623974453E0,-5.535225767E0,1.253426634E1
5.660365833E-1,1.173099979E1,3.801679815E0,-5.230859481E0,1.339518632E1
5.760465834E-1,1.231307140E1,3.994624191E0,-4.461782223E0,1.369219669E1
5.860575833E-1,1.208545567E1,3.942935974E0,-3.393614037E0,1.315756813E1
5.960675834E-1,1.125792379E1,3.308813038E0,-1.852220310E0,1.187938601E1
6.060775833E-1,1.016572472E1,2.987187526E0,-1.197885449E-1,1.059620676E1
6.160885834E-1,9.095305356E0,3.162690242E0,1.269590732E0,9.712829130E0
6.260985833E-1,8.486438298E0,3.310899909E0,2.015418437E0,9.329716216E0
6.361085834E-1,8.362279691E0,3.275740309E0,2.125257799E0,9.229025783E0
6.461195833E-1,8.799971849E0,3.123429404E0,1.133226646E0,9.406355214E0
6.561295834E-1,9.078116296E0,3.033075305E0,-4.083584315E-1,9.580109493E0
6.661395833E-1,8.747181432E0,3.162551663E0,-1.020516887E0,9.357156124E0
6.761505834E-1,8.194659898E0,3.347646444E0,-9.426863533E-1,8.902125876E0
6.861605833E-1,7.511610385E0,3.633567395E0,-4.601734599E-1,8.356964892E0
6.961705834E-1,6.962780199E0,3.961145373E0,1.712053049E-1,8.012508473E0
7.061815833E-1,6.605489010E0,3.890670052E0,6.497203839E-1,7.693629514E0
7.161915834E-1,6.689879535E0,3.427543091E0,9.279484463E-1,7.573878012E0
7.262015833E-1,7.343792372E0,2.495417978E0,9.614225864E-1,7.815544171E0
7.362125834E-1,8.070855047E0,1.041697329E0,1.248143145E0,8.232963976E0
7.462225833E-1,9.147670680E0,-4.243912044E-1,1.809282889E0,9.334532197E0
7.562325834E-1,9.612400948E0,-1.545144570E0,2.867851117E0,1.014939869E1
7.662435833E-1,8.272584572E0,-1.783155922E0,4.314437066E0,9.498929821E0
7.762535834E-1,6.611971818E0,-8.251549798E-1,4.647362323E0,8.123855527E0
7.862635833E-1,4.572716768E0,9.510496259E-4,3.947044812E0,6.040604464E0
7.962745833E-1,3.525157678E0,1.067972012E-2,1.555825971E0,3.853238270E0
8.062845833E-1,4.708593780E0,-1.724876577E0,-1.351057649E0,5.193400751E0
8.162945834E-1,4.564955174E0,-4.333614764E0,-2.725738049E0,6.859204077E0
8.263055834E-1,1.567836737E0,-4.951221655E0,-1.505265098E0,5.407266493E0
8.363155833E-1,-3.737019258E0,-4.069686652E0,1.751772015E0,5.796237364E0
8.463255833E-1,-1.071304983E1,-3.223650388E0,2.991758294E0,1.158067253E1
8.563365833E-1,-1.723820570E1,-3.497248333E0,8.000955677E-1,1.760757322E1
8.663465834E-1,-2.134575892E1,-3.821818503E0,-3.323511769E0,2.193840129E1
8.763565833E-1,-2.384081496E1,-3.595442380E0,-7.335893369E0,2.520172604E1
8.863675834E-1,-2.573701788E1,-2.503994674E0,-9.542443106E0,2.756306041E1
8.963775833E-1,-2.608188198E1,-1.725077868E0,-8.620374620E0,2.752365019E1
9.063875417E-1,-2.336674142E1,-2.659335898E0,-6.432067026E0,2.438130756E1
9.163985417E-1,-1.846712788E1,-4.300877666E0,-4.184087427E0,1.941749078E1
9.264085417E-1,-1.414750199E1,-5.240382257E0,-2.343033253E0,1.526771835E1
9.364185417E-1,-1.161373271E1,-5.207824960E0,-1.795962932E0,1.285401537E1
9.464285417E-1,-1.042881668E1,-4.327519042E0,-2.676728733E0,1.160398704E1
9.564395417E-1,-9.283789768E0,-3.274582268E0,-3.494387875E0,1.044616619E1
9.664495417E-1,-7.566503461E0,-2.625615590E0,-3.174254865E0,8.615203178E0
9.764595417E-1,-6.105225797E0,-1.861165819E0,-2.101545731E0,6.719688587E0
9.864705417E-1,-5.190516032E0,-4.269639793E-1,-1.275612195E0,5.361990432E0
9.964805417E-1,-4.397326611E0,1.071270719E0,-1.298425691E0,4.708504173E0
1.006490542E0,-3.046365441E0,2.318643200E0,-2.239954588E0,4.435520854E0
1.016501542E0,-1.757352598E0,2.176005345E0,-2.664448996E0,3.862975002E0
1.026511542E0,-1.074687247E0,1.525038627E0,-2.500110369E0,3.119494726E0
1.036521542E0,4.734794569E-1,9.807251224E-1,-1.391900742E0,1.767312151E0
1.046532542E0,2.675926788E0,9.770554098E-1,1.013027773E0,3.023482548E0
1.056542542E0,4.425972705E0,9.925031689E-1,3.420149579E0,5.680820369E0
1.066552542E0,6.356405225E0,1.230138106E0,4.972610185E0,8.163576373E0
1.076563542E0,8.414013516E0,1.818582594E0,5.273096259E0,1.009496955E1
1.086573542E0,1.023582348E1,2.419455923E0,4.744607366E0,1.153850720E1
1.096583542E0,1.143851505E1,2.768937863E0,4.400887273E0,1.256481007E1
1.106594542E0,1.211536183E1,3.256477534E0,4.565299867E0,1.335022851E1
1.116604542E0,1.251026407E1,3.743495342E0,4.411680648E0,1.378344625E1
1.126614542E0,1.264573236E1,4.084331881E0,4.434944673E0,1.400946281E1
1.136625542E0,1.237853215E1,4.336529894E0,4.721322292E0,1.394002991E1
1.146635542E0,1.174979040E1,4.461990384E0,5.470119359E0,1.370726590E1
1.156645542E0,1.120489656E1,4.394201274E0,6.099318355E0,1.349297581E1
1.166656542E0,1.080406876E1,4.254523863E0,6.342292385E0,1.323078032E1
1.176666542E0,1.025882760E1,4.044284593E0,6.513622820E0,1.280730509E1
1.186676542E0,9.664347612E0,3.616452595E0,6.565339104E0,1.223037292E1
1.196687542E0,8.862092668E0,3.063736057E0,6.608267022E0,1.147137124E1
1.206697542E0,8.016489390E0,2.707404396E0,6.568792470E0,1.071182408E1
1.216707542E0,7.118688603E0,2.820508258E0,5.771360893E0,9.588514005E0
1.226718542E0,6.727720376E0,2.990706380E0,4.442254277E0,8.598846967E0
1.236728542E0,6.765065957E0,2.768983471E0,2.971169371E0,7.890578832E0
1.246738542E0,6.856233990E0,2.402601177E0,1.637321540E0,7.447231617E0
1.256749542E0,7.020257159E0,2.185524027E0,2.428208327E-1,7.356594852E0
1.266759542E0,7.238822572E0,1.621084114E0,-6.230372000E-1,7.444235440E0
1.276769542E0,7.639911160E0,4.114159405E-1,-9.451442304E-1,7.709137645E0
1.286779542E0,7.968506554E0,-1.235903461E0,-4.779633942E-1,8.077933094E0
1.296790542E0,8.094129889E0,-2.840567424E0,1.299293418E0,8.675939450E0
1.306800542E0,7.764605958E0,-3.729237784E0,2.940602466E0,9.101838440E0
1.316810542E0,5.964556407E0,-4.128802295E0,3.097791995E0,7.887918405E0
1.326821542E0,2.190722494E0,-4.150687546E0,2.008254282E0,5.104954203E0
1.336831542E0,-2.676079985E0,-3.165406273E0,-1.589881325E-1,4.148069212E0
1.346841542E0,-7.890274317E0,-1.413099530E0,-3.290375305E0,8.664862880E0
1.356852542E0,-1.268585245E1,-1.788435227E-1,-6.862296968E0,1.442407560E1
1.366862542E0,-1.639820873E1,-3.995851229E-1,-9.719043052E0,1.906621923E1
1.376872542E0,-1.954622919E1,-1.488014642E0,-1.004140707E1,2.202496581E1
1.386883542E0,-2.403576581E1,-3.206388238E0,-9.754408182E0,2.613708940E1
1.396893542E0,-2.786495063E1,-5.336625087E0,-9.267944398E0,2.984677259E1
1.406903542E0,-2.842150499E1,-5.955180981E0,-8.293999414E0,3.019994292E1
1.416914542E0,-2.643226117E1,-6.080991427E0,-8.223009539E0,2.834185550E1
1.426924542E0,-2.361467974E1,-5.811561670E0,-9.449881682E0,2.609075722E1
1.436934542E0,-2.069709455E1,-4.951527464E0,-1.179561737E1,2.433154200E1
1.446945542E0,-1.841073265E1,-4.142848769E0,-1.373322443E1,2.333923148E1
1.456955542E0,-1.648301558E1,-3.493763393E0,-1.430243099E1,2.210103431E1
1.466965542E0,-1.412727764E1,-3.419128363E0,-1.267057016E1,1.928247289E1
1.476976542E0,-1.073112825E1,-3.554589346E0,-9.188419926E0,1.456774793E1
1.486986542E0,-7.165976790E0,-3.732618644E0,-4.751231677E0,9.373252784E0
1.496996542E0,-3.884238700E0,-3.272804130E0,-1.007952682E0,5.178274400E0
1.507007542E0,-1.003803205E0,-2.379856239E0,1.833651161E0,3.167587911E0
1.517017542E0,1.611928251E0,-1.764845805E0,3.671470801E0,4.380946387E0
1.527027542E0,4.040502614E0,-1.354023064E0,5.190864526E0,6.715959675E0
1.537038542E0,6.420301843E0,-1.095484477E0,6.416536821E0,9.142882848E0
1.547048542E0,8.460408248E0,-8.078423975E-1,7.437191702E0,1.129349093E1
1.557058542E0,1.008465775E1,-2.191456027E-1,8.164508146E0,1.297719307E1
1.567069542E0,1.145799329E1,4.254160751E-1,8.487328244E0,1.426538923E1
1.577079542E0,1.234397510E1,1.172963154E0,8.588832985E0,1.508368708E1
1.587089542E0,1.291545389E1,1.997030406E0,8.491088004E0,1.558511005E1
1.597100542E0,1.310494227E1,2.710354024E0,8.625478070E0,1.592119351E1
1.607110542E0,1.294984722E1,3.532826301E0,8.926688029E0,1.612033386E1
1.617120542E0,1.230997705E1,4.417350985E0,9.283916652E0,1.603869175E1
1.627131542E0,1.108928658E1,5.292051762E0,9.432775068E0,1.549049174E1
1.637141542E0,9.676639044E0,5.930774703E0,9.003659606E0,1.448714320E1
1.647151542E0,8.703775796E0,5.936892060E0,8.425210934E0,1.349024017E1
1.657162542E0,7.894069744E0,5.539613518E0,7.931132321E0,1.248625304E1
1.667172542E0,7.515296470E0,5.223452228E0,7.449845662E0,1.180103108E1
1.677182542E0,7.195806361E0,4.716569090E0,7.215154797E0,1.122871818E1
1.687192542E0,6.857319818E0,4.534936153E0,6.924490292E0,1.074881607E1
1.697203542E0,6.635667075E0,4.417755905E0,6.210091517E0,1.010514134E1
1.707213542E0,6.277100024E0,4.203928784E0,5.299281844E0,9.228076180E0
1.717223542E0,5.985385358E0,4.193782987E0,3.790967424E0,8.233109233E0
1.727234542E0,6.020164597E0,4.201754496E0,2.036473530E0,7.618684077E0
1.737244542E0,5.948834413E0,3.991786830E0,4.937298265E-1,7.181000077E0
1.747254542E0,5.998501832E0,3.883051423E0,-2.895128962E-1,7.151498465E0
1.757265542E0,6.275434152E0,3.525084880E0,-2.293087944E-1,7.201380405E0
1.767275542E0,6.599880946E0,2.622877339E0,4.604433820E-1,7.116875869E0
1.777285542E0,6.837390168E0,1.535675589E0,1.417797476E0,7.149710029E0
1.787296542E0,6.951844736E0,5.636100470E-1,2.343019365E0,7.357685864E0
1.797306542E0,6.907805847E0,-1.709056351E-1,2.895223103E0,7.491949491E0
1.807316542E0,6.586952752E0,-5.798739311E-1,3.072510681E0,7.291400566E0
1.817327542E0,5.626879703E0,-1.149818998E0,2.960633858E0,6.461362995E0
1.827337542E0,3.502090412E0,-1.519228249E0,3.115851121E0,4.927597785E0
1.837347542E0,4.037291908E-1,-1.009750409E0,3.040843915E0,3.229446526E0
1.847358542E0,-3.855111380E0,-4.916289219E-1,2.204813699E0,4.468197197E0
1.857368542E0,-8.150306429E0,-4.432610464E-1,4.572440779E-1,8.175148157E0
1.867378542E0,-1.195369568E1,-9.691833034E-1,-2.385501434E0,1.222786873E1
1.877389542E0,-1.427218334E1,-2.112472423E0,-5.793551077E0,1.554744324E1
1.887399542E0,-1.623581869E1,-3.502973342E0,-8.497358558E0,1.865684146E1
1.897409542E0,-1.939077979E1,-4.355552933E0,-1.084358307E1,2.263971016E1
1.907419917E0,-2.215776878E1,-5.776578948E0,-1.427541334E1,2.698375451E1
1.917429917E0,-2.285886163E1,-8.285235608E0,-1.660386466E1,2.944250339E1
1.927439917E0,-2.211215816E1,-1.039137462E1,-1.695189913E1,2.973709953E1
1.937450917E0,-2.139132277E1,-1.085510560E1,-1.639513778E1,2.905550808E1
1.947460917E0,-2.009884486E1,-9.771479713E0,-1.570872027E1,2.731683131E1
1.957470917E0,-1.903379090E1,-7.976441225E0,-1.480133063E1,2.539661787E1
1.967481917E0,-1.816567351E1,-6.034127748E0,-1.240461775E1,2.280957985E1
1.977491917E0,-1.632919405E1,-4.675412586E0,-9.271239304E0,1.935091572E1
1.987501917E0,-1.373028795E1,-3.823762410E0,-6.008733290E0,1.546760621E1
1.997512917E0,-1.075306935E1,-2.979040892E0,-2.905404567E0,1.153015875E1
2.007522917E0,-7.435132313E0,-2.157480781E0,-5.658134240E-1,7.762477740E0
2.017532917E0,-3.816733180E0,-1.787371911E0,7.017167491E-1,4.272535185E0
2.027543917E0,-2.317643327E-1,-1.520303698E0,1.500508095E0,2.148618762E0
2.037553917E0,2.964831866E0,-1.192205172E0,2.222461181E0,3.892417612E0
2.047563917E0,5.418205440E0,-6.787947866E-1,3.311996847E0,6.386472866E0
2.057574917E0,7.355343547E0,1.226006171E-1,4.720412757E0,8.740618182E0
2.067584917E0,8.993691857E0,8.662822482E-1,5.970078517E0,1.082953257E1
2.077594917E0,1.062718113E1,1.632536324E0,7.041675510E0,1.285252301E1
2.087605917E0,1.202081353E1,2.452283653E0,8.054368238E0,1.467605194E1
2.097615917E0,1.271854423E1,3.390327902E0,8.962447261E0,1.592423158E1
2.107625917E0,1.279140404E1,4.531465831E0,9.697834616E0,1.667939436E1
2.117636917E0,1.254453811E1,5.709934723E0,1.029660529E1,1.720432711E1
2.127646917E0,1.215723608E1,6.671545590E0,1.057959181E1,1.744235284E1
2.137656917E0,1.168678782E1,7.095606135E0,1.069574792E1,1.735879200E1
2.147666917E0,1.100335123E1,7.077090341E0,1.058849595E1,1.683078110E1
2.157677917E0,1.031069942E1,6.544324796E0,1.045462044E1,1.607600069E1
2.167687917E0,9.607983962E0,5.434056072E0,1.043746939E1,1.519154661E1
2.177697917E0,9.181319652E0,3.707960643E0,1.063737517E1,1.453269944E1
2.187708917E0,9.187377368E0,1.818212172E0,1.066640308E1,1.419457478E1
2.197718917E0,9.239932727E0,6.732307224E-1,9.915020671E0,1.356971744E1
2.207728917E0,8.544448525E0,3.177958784E-1,8.530099458E0,1.207771467E1
2.217739917E0,7.372986935E0,4.577747127E-1,6.657177812E0,9.944270232E0
2.227749917E0,5.754165401E0,1.175080431E0,4.367470143E0,7.318881672E0
2.237759917E0,3.983538455E0,2.125524578E0,1.973299627E0,4.927508982E0
2.247770917E0,2.790157408E0,2.657163365E0,1.112491250E-1,3.854591013E0
2.257780917E0,2.620661244E0,2.697586629E0,-1.281734814E0,3.973371756E0
2.267790917E0,3.724258295E0,1.937638628E0,-1.900528105E0,4.608313181E0
2.277801917E0,5.369657178E0,3.777198985E-1,-1.474184808E0,5.581138896E0
2.287811917E0,7.367348465E0,-1.246640557E0,-1.930016783E-1,7.474569268E0
2.297821917E0,8.739077775E0,-2.355567198E0,1.434332525E0,9.163923122E0
2.307832917E0,9.140648174E0,-2.626177800E0,2.579983335E0,9.854165256E0
2.317842917E0,8.099482430E0,-2.513865651E0,2.973703262E0,8.986881953E0
2.327852917E0,5.578682274E0,-2.104376368E0,2.924007776E0,6.640776858E0
2.337863917E0,2.368594794E0,-5.488602993E-1,2.720433455E0,3.648595224E0
2.347873917E0,-1.534506438E0,1.013093846E0,1.992237005E0,2.711102623E0
2.357883917E0,-5.560081111E0,1.854334809E0,6.826273441E-1,5.900766021E0
2.367894917E0,-9.284748126E0,1.601522546E0,-5.429730302E-1,9.437491295E0
2.377904917E0,-1.195363253E1,8.706863710E-1,-1.941919375E0,1.214160106E1
2.387914917E0,-1.355323192E1,2.508052057E-1,-3.071209676E0,1.389911248E1
2.397925917E0,-1.407088242E1,-7.740365741E-1,-4.046162719E0,1.466152439E1
2.407935917E0,-1.543282407E1,-2.537854730E0,-4.608747018E0,1.630500888E1
2.417945917E0,-1.877203679E1,-4.874556764E0,-6.936058424E0,2.059756236E1
2.427956917E0,-2.090782820E1,-7.698478042E0,-1.071455140E1,2.472256976E1
2.437966917E0,-2.133464687E1,-8.904032407E0,-1.390909698E1,2.697984301E1
2.447976917E0,-2.199435781E1,-8.638464151E0,-1.663284697E1,2.889682399E1
2.457987917E0,-2.279723665E1,-6.990564998E0,-1.796009944E1,2.985208820E1
2.467997917E0,-2.358525889E1,-4.726828615E0,-1.802766986E1,3.006001042E1
2.478007917E0,-2.357747975E1,-2.754419226E0,-1.675990463E1,2.905819643E1
2.488018917E0,-2.160798082E1,-1.787507858E0,-1.482337229E1,2.626466039E1
2.498028917E0,-1.835209677E1,-1.592323999E0,-1.203229980E1,2.200252690E1
2.508038917E0,-1.427918831E1,-6.299766755E-1,-7.982817614E0,1.637123900E1
2.518049917E0,-9.304836236E0,2.449245147E-1,-3.744168356E0,1.003288404E1
2.528059917E0,-4.319159278E0,-3.438981414E-2,-3.124313504E-2,4.319409179E0
2.538069917E0,2.333091670E-1,-6.734099396E-1,3.192151145E0,3.270740444E0
2.548080917E0,3.808159407E0,-1.219180132E0,5.797975080E0,7.043081236E0
2.558090917E0,6.325069411E0,-1.282746236E0,7.889509501E0,1.019295350E1
2.568100917E0,8.236216060E0,-8.260174441E-1,9.276836843E0,1.243291042E1
2.578111917E0,1.016967744E1,-2.305830489E-1,9.896492014E0,1.419211267E1
2.588121917E0,1.215788045E1,1.137973416E-1,9.636126026E0,1.551392702E1
2.598131917E0,1.413102571E1,1.856916355E-1,9.051772251E0,1.678257876E1
2.608142917E0,1.564209709E1,4.116803809E-1,8.658432977E0,1.788332027E1
2.618152917E0,1.652270297E1,6.983496299E-1,8.579116666E0,1.863031531E1
2.628162917E0,1.663013386E1,1.210539116E0,9.044626368E0,1.896923887E1
2.638173917E0,1.582712404E1,1.849967962E0,9.666662525E0,1.863771985E1
2.648183917E0,1.419677882E1,2.154870584E0,9.970423039E0,1.748145679E1
2.658193917E0,1.206732228E1,2.122121498E0,1.010981014E1,1.588495916E1
2.668204917E0,1.016546627E1,2.175277951E0,1.020588223E1,1.456806682E1
2.678214917E0,8.548103034E0,2.266441013E0,9.176284615E0,1.274405821E1
2.688224917E0,6.965597388E0,2.233222250E0,7.514744493E0,1.048704979E1
2.698234917E0,5.703988105E0,2.346650632E0,5.542737100E0,8.292417262E0
2.708245917E0,4.852935222E0,2.362136545E0,3.581985598E0,6.477753480E0
2.718255917E0,4.173553668E0,2.453148456E0,1.982928237E0,5.231490415E0
2.728265917E0,3.941711567E0,2.670167280E0,5.307055718E-1,4.790462586E0
2.738276917E0,4.320759661E0,2.731917094E0,-7.700522813E-1,5.169653331E0
2.748286917E0,5.292288575E0,2.468898224E0,-1.791512032E0,6.108460703E0
2.758296917E0,6.542227399E0,1.959663774E0,-2.290335368E0,7.203239379E0
2.768307917E0,7.647611943E0,1.353684803E0,-1.966846640E0,8.011673776E0
2.778317917E0,8.641533939E0,8.277640074E-1,-7.230590862E-1,8.711148978E0
2.788327917E0,9.256836442E0,7.239197963E-1,9.100027567E-1,9.329586583E0
2.798338917E0,9.354967339E0,7.212354858E-1,2.413616308E0,9.688195819E0
2.808348917E0,9.315510328E0,7.785064781E-1,3.630665422E0,1.002828681E1
2.818358917E0,9.007307684E0,9.616029730E-1,4.707236057E0,1.020854266E1
2.828369917E0,7.930599055E0,1.082678929E0,5.599284938E0,9.768243795E0
2.838379917E0,6.610874881E0,1.291743932E0,6.129739664E0,9.107468222E0
2.848389917E0,4.807487154E0,1.928516241E0,6.271104873E0,8.133748457E0
2.858400917E0,3.164618361E0,2.457363714E0,5.873619924E0,7.110053221E0
2.868410917E0,7.542756164E-1,2.183768254E0,5.395199570E0,5.869067549E0
2.878420917E0,-1.338428832E0,1.598507430E0,4.331576425E0,4.807200024E0
2.888431917E0,-3.314706447E0,6.707729915E-1,2.720551568E0,4.340347459E0
2.898441917E0,-6.039362175E0,-3.122340068E-2,1.155828181E0,6.149049453E0
2.908451917E0,-9.302561669E0,-6.330825703E-1,-8.434576419E-1,9.362150818E0
2.918462917E0,-1.212214694E1,-1.154458471E0,-3.748986754E0,1.274104087E1
2.928472917E0,-1.464433055E1,-1.965664918E0,-6.301256626E0,1.606319056E1
2.938482917E0,-1.817299656E1,-2.750060127E0,-7.769522882E0,1.995460149E1
2.948493917E0,-2.172394514E1,-3.456359339E0,-9.645225463E0,2.401887979E1
2.958503917E0,-2.310546444E1,-3.925910051E0,-1.148207564E1,2.609814778E1
2.968513917E0,-2.215873006E1,-4.814373712E0,-1.196952409E1,2.564092469E1
2.978524917E0,-2.073719709E1,-6.226219307E0,-1.181464421E1,2.466542049E1
2.988534917E0,-2.004349512E1,-7.270519159E0,-1.226262396E1,2.459622109E1
2.998544917E0,-2.025590107E1,-7.052331476E0,-1.341457105E1,2.529797668E1
3.008555917E0,-2.064834748E1,-5.550754218E0,-1.419304479E1,2.566335220E1
3.018565917E0,-2.040920571E1,-3.497688044E0,-1.389888540E1,2.493889562E1
3.028575917E0,-1.905346094E1,-1.842735102E0,-1.205662421E1,2.262282550E1
3.038586917E0,-1.727237917E1,-5.916025686E-1,-9.068728591E0,1.951734905E1
3.048596917E0,-1.459940990E1,9.574727923E-2,-5.518772871E0,1.560797203E1
3.058606917E0,-1.110160784E1,-8.582250774E-3,-2.086410506E0,1.129596738E1
3.068617917E0,-6.909300395E0,-6.476675726E-1,9.791206464E-1,7.008322372E0
3.078627917E0,-2.669348086E0,-1.295679400E0,3.432002470E0,4.536832073E0
3.088637917E0,1.308301638E0,-1.565157835E0,5.108388380E0,5.500636696E0
3.098648917E0,4.984236789E0,-1.702090709E0,6.111149611E0,8.067581962E0
3.108658917E0,8.279569071E0,-1.694849955E0,6.488599076E0,1.065484389E1
3.118668917E0,1.092479973E1,-1.385221176E0,6.682698569E0,1.288132552E1
3.128679917E0,1.287500286E1,-9.500689747E-1,6.854693248E0,1.461694733E1
3.138689917E0,1.432276877E1,-4.270262522E-1,6.985785484E0,1.594130658E1
3.148699917E0,1.520950371E1,5.935749806E-2,7.521781032E0,1.696790253E1
3.158710917E0,1.566266526E1,6.561496899E-1,8.398658727E0,1.778446186E1
3.168720917E0,1.568740132E1,1.419308396E0,8.963382815E0,1.812322344E1
3.178730917E0,1.512959683E1,2.250141900E0,9.369454401E0,1.793751695E1
3.188741917E0,1.408774111E1,2.683580793E0,9.841511815E0,1.739314262E1
3.198751917E0,1.277016228E1,2.757883701E0,1.017531181E1,1.655958749E1
3.208761917E0,1.141855967E1,2.666868866E0,1.013360596E1,1.549792452E1
3.218772917E0,1.011429729E1,2.569293163E0,9.485242134E0,1.410213088E1
3.228782917E0,8.673599485E0,2.401786075E0,8.283185574E0,1.223156031E1
3.238792917E0,7.336756418E0,2.031809791E0,6.743749348E0,1.017027045E1
3.248803917E0,6.313149278E0,1.706243401E0,5.261769617E0,8.393648780E0
3.258813917E0,5.451851488E0,1.900810379E0,3.534477263E0,6.769659834E0
3.268823917E0,4.903069834E0,2.205585239E0,1.741154641E0,5.651222835E0
3.278834917E0,4.563046643E0,2.370284640E0,1.656867027E-1,5.144618161E0
3.288844917E0,4.806679069E0,2.487502602E0,-9.342266017E-1,5.492231988E0
3.298854917E0,5.480939632E0,2.314570907E0,-1.278552175E0,6.085444388E0
3.308865917E0,6.374450317E0,1.918719524E0,-1.016864131E0,6.734175088E0
3.318875917E0,7.322254153E0,1.201332675E0,-2.491188687E-1,7.424329350E0
3.328885917E0,8.301692011E0,4.701456669E-1,1.216805577E0,8.403555379E0
3.338896917E0,8.774085640E0,2.436585926E-1,2.771465029E0,9.204616599E0
3.348906917E0,9.058088413E0,3.510900705E-1,4.085564474E0,9.943041135E0
3.358916917E0,8.939456009E0,5.042143227E-1,4.744122632E0,1.013285771E1
3.368927917E0,8.962492284E0,8.500820987E-1,4.659361102E0,1.013698937E1
3.378937917E0,9.440530815E0,1.229261608E0,4.514153395E0,1.053623685E1
3.388947917E0,9.521080889E0,9.661485985E-1,4.199825792E0,1.045097895E1
3.398958917E0,9.303796601E0,1.126017322E-1,3.812310053E0,1.005519857E1
3.408968917E0,7.409116296E0,-8.430109146E-1,4.457716654E0,8.687744786E0
3.418978917E0,2.586687752E0,-1.587997060E0,4.996353974E0,5.846044921E0
3.428988917E0,-4.539691109E0,-2.004557527E0,4.575771646E0,6.750165361E0
3.438999917E0,-1.225059390E1,-1.248891296E0,2.210380248E0,1.251089770E1
3.449009917E0,-1.837818705E1,-2.421919647E-1,-2.149624754E0,1.850506155E1
3.459019917E0,-2.241176949E1,2.184806281E-1,-6.638870180E0,2.337540893E1
3.469030917E0,-2.453314166E1,-2.336564916E-1,-9.926329186E0,2.646623597E1
3.479040917E0,-2.552822550E1,-2.233005465E0,-1.187026410E1,2.824145500E1
3.489050917E0,-2.465236873E1,-5.535402353E0,-1.240199702E1,2.814586103E1
3.499061917E0,-2.176924001E1,-8.167708912E0,-1.328163460E1,2.677710024E1
3.509071917E0,-1.894745559E1,-9.389501579E0,-1.453494201E1,2.565995621E1
3.519081917E0,-1.720811125E1,-9.313894157E0,-1.519551366E1,2.477440923E1
3.529092917E0,-1.617943984E1,-8.525984772E0,-1.527441949E1,2.382802091E1
3.539102917E0,-1.578282788E1,-7.341836479E0,-1.493157385E1,2.293364595E1
3.549112917E0,-1.561228097E1,-6.015133653E0,-1.378163937E1,2.167622508E1
3.559123917E0,-1.542650791E1,-4.682970989E0,-1.149433140E1,1.979967217E1
3.569133917E0,-1.500239065E1,-3.387709519E0,-8.572995801E0,1.760808218E1
3.579143917E0,-1.376577704E1,-2.013538411E0,-5.450703095E0,1.494192487E1
3.589154917E0,-1.137019267E1,-1.004994283E0,-2.391540146E0,1.166236508E1
3.599164917E0,-8.452795758E0,-4.420164666E-1,5.339767966E-1,8.481171258E0
3.609174917E0,-5.100534400E0,-1.761277834E-1,2.805033017E0,5.823631375E0
3.619185917E0,-1.205025777E0,-6.639016360E-2,4.246612873E0,4.414772437E0
3.629195917E0,3.028983423E0,2.098317191E-2,5.045592792E0,5.884996813E0
3.639205917E0,7.109938830E0,1.623580290E-1,5.688628054E0,9.107034612E0
3.649216917E0,1.021916242E1,4.192477012E-1,6.318626949E0,1.202215022E1
3.659226917E0,1.228681623E1,9.611983457E-1,7.007106187E0,1.417706925E1
3.669236917E0,1.342552990E1,1.580977185E0,7.443814843E0,1.543226236E1
3.679247917E0,1.391179137E1,2.421560774E0,7.650749559E0,1.606038183E1
3.689257917E0,1.377561908E1,3.425116496E0,7.959859107E0,1.627447268E1
3.699267917E0,1.330807571E1,4.269760830E0,8.483132867E0,1.634928989E1
3.709278917E0,1.259588134E1,5.015253929E0,9.214675094E0,1.639265798E1
3.719288917E0,1.178628522E1,5.536221548E0,9.674458618E0,1.622225070E1
3.729298917E0,1.099937278E1,5.461575993E0,1.008683759E1,1.589211460E1
3.739309917E0,1.003538093E1,5.079395546E0,1.012185306E1,1.513145858E1
3.749319917E0,9.050285304E0,4.605787450E0,9.879151511E0,1.416751837E1
3.759329917E0,8.103806446E0,4.077512566E0,9.250213301E0,1.295624304E1
3.769340917E0,7.334252640E0,3.397878119E0,8.081292327E0,1.142996602E1
3.779350917E0,7.013519413E0,2.860699972E0,6.539545866E0,1.000693355E1
3.789360917E0,6.976366789E0,2.461882735E0,4.482434589E0,8.650016186E0
3.799371917E0,6.992523816E0,2.117593707E0,2.433494795E0,7.700746025E0
3.809381917E0,7.190100063E0,1.738047431E0,6.054066753E-1,7.421917881E0
3.819391917E0,7.668007616E0,1.356163730E0,-7.928613925E-1,7.827269642E0
3.829402917E0,8.317587082E0,7.481480268E-1,-1.399172632E0,8.467565435E0
3.839412917E0,8.963313818E0,1.835141324E-1,-1.097165405E0,9.032078607E0
3.849422917E0,9.426503929E0,-2.345924847E-1,-1.983396015E-1,9.431508287E0
3.859433917E0,9.676299906E0,-5.611590403E-1,1.132579944E0,9.758504838E0
3.869443917E0,9.505082322E0,-8.006925684E-1,2.689301124E0,9.910602357E0
3.879453917E0,8.846578251E0,-8.834457265E-1,4.078292877E0,9.781354501E0
3.889464917E0,7.909031015E0,-5.244873503E-1,5.140191386E0,9.447191438E0
3.899474917E0,6.705543056E0,-1.354150826E-1,5.674664319E0,8.785468687E0
3.909485458E0,5.387544980E0,4.143980205E-1,5.628014063E0,7.802045176E0
3.919496458E0,3.589958276E0,6.010335428E-1,5.297751043E0,6.427690710E0
3.929506458E0,1.084225810E0,4.629424819E-1,4.806170946E0,4.948650372E0
3.939516458E0,-1.438245481E0,3.009048803E-1,4.095956438E0,4.351546042E0
3.949527458E0,-5.296454716E0,2.454152423E-1,3.126492176E0,6.155291587E0
3.959537458E0,-1.079824026E1,1.059180723E-1,1.147086886E0,1.085951286E1
3.969547458E0,-1.732086311E1,-5.447146234E-1,-2.949271840E0,1.757860112E1
3.979558458E0,-2.358509049E1,-9.737084636E-1,-8.778050637E0,2.518449473E1
3.989568458E0,-2.884391720E1,-1.136592011E0,-1.432959832E1,3.222732985E1
3.999578458E0,-3.194096514E1,-1.624587473E0,-1.653454592E1,3.600355187E1
4.009589458E0,-3.250121494E1,-3.166393283E0,-1.520524693E1,3.602158455E1
4.019599458E0,-2.898584082E1,-5.098269773E0,-1.434492972E1,3.274062204E1
4.029609458E0,-2.291802142E1,-6.784969295E0,-1.353658958E1,2.746835946E1
4.039620458E0,-1.751195246E1,-7.282241072E0,-1.280994907E1,2.288655302E1
4.049630458E0,-1.418986156E1,-7.143681357E0,-1.296362677E1,2.050463297E1
4.059640458E0,-1.311063044E1,-6.686916751E0,-1.344857963E1,1.993659400E1
4.069651458E0,-1.291723379E1,-5.635859272E0,-1.282480334E1,1.905501034E1
4.079661458E0,-1.238534065E1,-4.151953176E0,-1.097445429E1,1.706089168E1
4.089671458E0,-1.065746035E1,-2.838516220E0,-8.661876987E0,1.402379223E1
4.099682458E0,-7.963355157E0,-2.218777581E0,-6.133535092E0,1.029360248E1
4.109692458E0,-5.315344146E0,-1.706066085E0,-2.565502997E0,6.143724481E0
4.119702458E0,-2.842209907E0,-1.360601328E0,1.496996842E0,3.488608988E0
4.129713458E0,6.237692714E-2,-1.206058980E0,4.679251868E0,4.832583903E0
4.139723458E0,3.080254149E0,-1.165123208E0,6.574923860E0,7.353577461E0
4.149733458E0,5.873271430E0,-8.385584061E-1,7.859492819E0,9.847341005E0
4.159743458E0,8.460096007E0,-4.651772878E-1,8.570531784E0,1.205170649E1
4.169754458E0,1.075254427E1,-1.632551381E-1,8.532239538E0,1.372745322E1
4.179764458E0,1.270357185E1,3.662748510E-1,8.103974846E0,1.507280011E1
4.189775458E0,1.420063564E1,9.871158367E-1,7.770636191E0,1.621774451E1
4.199785458E0,1.525757951E1,1.629575879E0,7.824400755E0,1.722412544E1
4.209795458E0,1.611213956E1,2.000743534E0,8.266304662E0,1.821910559E1
4.219805458E0,1.652682058E1,2.540622218E0,8.957131557E0,1.896894213E1
4.229816458E0,1.602394717E1,3.292891362E0,9.573728049E0,1.895432102E1
4.239826458E0,1.469507269E1,3.911304876E0,9.853574620E0,1.812005519E1
4.249836458E0,1.308516699E1,4.220098381E0,1.000035026E1,1.700111263E1
4.259847458E0,1.146280321E1,4.393881431E0,9.874812877E0,1.575480818E1
4.269857458E0,1.009434074E1,4.339890581E0,9.376052983E0,1.444440150E1
4.279867458E0,8.966490610E0,4.034186744E0,8.448683996E0,1.296352104E1
4.289878458E0,7.890129306E0,3.556356082E0,7.058492103E0,1.116799534E1
4.299888458E0,6.788549545E0,3.204391122E0,5.151832023E0,9.104608755E0
4.309898458E0,5.882121776E0,3.081044692E0,3.156175274E0,7.352117745E0
4.319909458E0,5.125731221E0,2.842773578E0,1.124821858E0,5.968224726E0
4.329919458E0,4.779246857E0,2.538601420E0,-4.933199367E-1,5.434064984E0
4.339929458E0,4.896482946E0,2.166814106E0,-1.450721393E0,5.547541903E0
4.349940458E0,5.194816074E0,1.648635756E0,-1.615524581E0,5.684543392E0
4.359950458E0,5.922175788E0,1.079682962E0,-1.010595039E0,6.104030119E0
4.369960458E0,6.812409693E0,5.489518082E-1,-3.226815194E-2,6.834567663E0
4.379971458E0,7.554327219E0,4.857672344E-1,9.910706010E-1,7.634530141E0
4.389981458E0,7.805732934E0,6.097346382E-1,2.070962747E0,8.098773343E0
4.399991458E0,7.666404895E0,5.719342893E-1,3.452440535E0,8.427349434E0
4.410002458E0,7.181763103E0,7.069964924E-1,4.901865892E0,8.723866949E0
4.420012458E0,6.491118641E0,9.940678838E-1,5.433094790E0,8.522987221E0
4.430022458E0,6.076078597E0,1.175383171E0,4.758669335E0,7.806740072E0
4.440033458E0,5.978814257E0,9.287764120E-1,3.720389192E0,7.102826289E0
4.450043458E0,5.353147565E0,4.442623821E-1,3.562358249E0,6.445459968E0
4.460053458E0,3.379378406E0,1.779978691E-1,3.939962957E0,5.193764507E0
4.470064458E0,3.995145178E-1,-7.680873245E-2,3.384504075E0,3.408867739E0
4.480074458E0,-3.784496895E0,-3.820839679E-1,1.683834386E0,4.159772007E0
4.490084458E0,-8.591298171E0,-5.249147817E-1,-1.481834427E0,8.733943729E0
4.500095458E0,-1.380064282E1,-1.790841648E0,-6.264706850E0,1.526143532E1
4.510105458E0,-1.928584098E1,-3.478246636E0,-1.036235372E1,2.216800028E1
4.520115458E0,-2.581457301E1,-4.811843914E0,-1.378997048E1,2.965989392E1
4.530126458E0,-2.985398862E1,-6.418199769E0,-1.654178594E1,3.472872885E1
4.540136458E0,-2.859414988E1,-6.826832435E0,-1.643718627E1,3.368103533E1
4.550146458E0,-2.479901456E1,-8.485100455E0,-1.475588841E1,3.007863520E1
4.560157458E0,-2.149486058E1,-9.326000817E0,-1.278968496E1,2.669418222E1
4.570167458E0,-1.914409980E1,-8.517567705E0,-1.162492194E1,2.396214362E1
4.580177458E0,-1.805345374E1,-6.793781633E0,-1.182834424E1,2.262724880E1
4.590188458E0,-1.775712621E1,-4.943848901E0,-1.227761388E1,2.214716632E1
4.600198458E0,-1.733817087E1,-3.421852580E0,-1.211455609E1,2.142623890E1
4.610208458E0,-1.675014446E1,-2.134449622E0,-1.084525421E1,2.006845169E1
4.620219458E0,-1.549065187E1,-1.010133840E0,-8.346484607E0,1.762510910E1
4.630229458E0,-1.337503101E1,-2.362207881E-1,-5.389869833E0,1.442213409E1
4.640239458E0,-1.048114809E1,1.428080097E-2,-2.623439549E0,1.080449463E1
4.650250458E0,-7.138659768E0,-6.493508399E-2,-1.286855221E-2,7.138966693E0
4.660260458E0,-3.293684537E0,-1.602515696E-1,2.317959369E0,4.030753531E0
4.670270458E0,8.787645918E-1,-6.106273618E-1,4.417833088E0,4.545584911E0
4.680281458E0,5.126118307E0,-1.310768140E0,6.047578098E0,8.035446650E0
4.690291458E0,9.047613126E0,-1.753635961E0,7.111001853E0,1.164048494E1
4.700301458E0,1.197804816E1,-1.611250559E0,7.951016947E0,1.446680464E1
4.710312458E0,1.390108980E1,-7.568861058E-1,8.699102701E0,1.641607633E1
4.720322458E0,1.508908264E1,1.306425852E-1,9.283101550E0,1.771647416E1
4.730332458E0,1.577636554E1,7.507611474E-1,9.856316965E0,1.861731280E1
4.740343458E0,1.565094393E1,1.177404480E0,1.078958287E1,1.904608689E1
4.750353458E0,1.491012042E1,1.715348539E0,1.190315819E1,1.915565938E1
4.760363458E0,1.400191217E1,2.199546381E0,1.286691148E1,1.914285662E1
4.770374458E0,1.313737444E1,2.635190698E0,1.336217415E1,1.892306887E1
4.780384458E0,1.219496934E1,2.670638566E0,1.341933303E1,1.832834107E1
4.790394458E0,1.133718046E1,2.423644722E0,1.305651212E1,1.746076240E1
4.800405458E0,1.076852003E1,1.927142730E0,1.213697431E1,1.633955471E1
4.810415458E0,1.044832182E1,1.596215760E0,1.040610960E1,1.483247959E1
4.820425458E0,1.011678236E1,1.432364498E0,8.197758338E0,1.309977843E1
4.830436458E0,9.575779252E0,1.220076656E0,6.037255424E0,1.138563079E1
4.840446458E0,8.669846742E0,1.084469638E0,3.926779532E0,9.579243938E0
4.850456458E0,7.750615910E0,8.733326747E-1,2.012181565E0,8.055037653E0
4.860467458E0,6.859734718E0,7.193884966E-1,8.291199768E-1,6.947007999E0
4.870477458E0,5.970758548E0,6.650729795E-1,1.793858519E-1,6.010362634E0
4.880487458E0,5.447623951E0,6.980446976E-1,-1.070671964E-1,5.493208216E0
4.890498458E0,5.541780496E0,5.528467847E-1,-1.545477569E-2,5.569309605E0
4.900508458E0,5.976747851E0,3.047349527E-1,3.211431170E-1,5.993121989E0
4.910518083E0,6.518871281E0,2.841505609E-1,7.422388306E-1,6.567141144E0
4.920529083E0,6.943914742E0,3.470056441E-1,1.223070284E0,7.059338906E0
4.930539083E0,7.208573756E0,3.256291008E-1,1.673475459E0,7.407434780E0
4.940549083E0,7.332392056E0,2.371455252E-1,2.120129060E0,7.636436243E0
4.950559083E0,7.308932442E0,4.742745320E-1,2.520283555E0,7.745789758E0
4.960570083E0,6.755798120E0,6.219860168E-1,2.831902727E0,7.351690139E0
4.970580083E0,5.367473243E0,4.772669908E-1,2.852919667E0,6.097270161E0
4.980590083E0,3.390648329E0,3.951663820E-1,2.107754889E0,4.011892725E0
4.990601083E0,1.173008763E0,8.510809493E-1,1.110440047E0,1.825750650E0
5.000611083E0,-1.599951400E0,1.906619149E0,4.748734331E-1,2.533879602E0
5.010621083E0,-3.976584946E0,3.112890968E0,4.275104016E-2,5.050261940E0
5.020632083E0,-6.036700523E0,3.991509964E0,2.035892317E-1,7.239844858E0
5.030642083E0,-8.113967153E0,3.900721124E0,2.863147616E-1,9.007444942E0
5.040652083E0,-1.045304169E1,1.073218718E0,-5.614016998E-1,1.052297729E1
5.050663083E0,-1.360985519E1,-3.895858871E0,-1.027779713E0,1.419373826E1
5.060673083E0,-2.118204624E1,-8.089391305E0,-2.230156701E0,2.278356718E1
5.070683083E0,-2.859063921E1,-9.330617779E0,-6.649682266E0,3.080102844E1
5.080694083E0,-3.147743297E1,-8.136539744E0,-1.186537349E1,3.460952402E1
5.090704083E0,-3.066042257E1,-6.838069614E0,-1.629452240E1,3.538830553E1
5.100714083E0,-2.760315675E1,-6.567890244E0,-1.975660265E1,3.457448182E1
5.110725083E0,-2.347864778E1,-7.228992233E0,-2.161438469E1,3.272135168E1
5.120735083E0,-1.942778682E1,-7.239192116E0,-2.112733501E1,2.960082918E1
5.130745083E0,-1.646880685E1,-6.043760451E0,-1.894284565E1,2.581821141E1
5.140756083E0,-1.457964631E1,-4.442060734E0,-1.586665122E1,2.200110477E1
5.150766083E0,-1.261526720E1,-2.952954417E0,-1.191237574E1,1.760027279E1
5.160776083E0,-1.042359278E1,-1.701115101E0,-7.468538625E0,1.293538357E1
5.170787083E0,-8.244702709E0,-7.013435505E-1,-3.261536838E0,8.894078259E0
5.180797083E0,-5.836180202E0,7.960107028E-3,5.824686331E-1,5.865179658E0
5.190807083E0,-3.415987238E0,1.343171217E-1,3.829685639E0,5.133566207E0
5.200818083E0,-8.127413410E-1,4.251949042E-2,6.352315682E0,6.404238512E0
5.210828083E0,1.837004539E0,-9.179631561E-2,7.980116200E0,8.189338606E0
5.220838083E0,4.555033618E0,-2.835339721E-1,9.043858629E0,1.013015803E1
5.230849083E0,7.334875953E0,-3.961464485E-1,9.844486878E0,1.228296622E1
5.240859083E0,9.843579390E0,-3.203581282E-1,1.003792914E1,1.406267066E1
5.250869083E0,1.199913556E1,-1.258466989E-1,9.666825078E0,1.540917255E1
5.260880083E0,1.418931192E1,1.809039353E-1,8.975066137E0,1.679050658E1
5.270890083E0,1.602340806E1,5.362083864E-1,8.401330905E0,1.810026205E1
5.280900083E0,1.722985237E1,8.376594698E-1,8.394574447E0,1.918432606E1
5.290911083E0,1.757976846E1,1.291879295E0,8.767132131E0,1.968704694E1
5.300921083E0,1.699812487E1,1.808132742E0,9.421526195E0,1.951847200E1
5.310931083E0,1.548842525E1,1.936821042E0,1.017373657E1,1.863189492E1
5.320942083E0,1.351994139E1,2.151200725E0,1.062161692E1,1.732729713E1
5.330952083E0,1.177822658E1,2.339371434E0,1.055071358E1,1.598489403E1
5.340962083E0,1.044946320E1,2.179559136E0,1.002499744E1,1.464384966E1
5.350973083E0,9.506913085E0,1.889938213E0,9.171444290E0,1.334423670E1
5.360983083E0,8.568151968E0,1.507293204E0,7.910846575E0,1.175868422E1
5.370993083E0,7.558037862E0,1.322237454E0,6.164108428E0,9.842178668E0
5.381004083E0,6.583480090E0,1.521352981E0,4.173756858E0,7.942101190E0
5.391014083E0,5.805450745E0,1.787585772E0,2.236425793E0,6.473045773E0
5.401024083E0,5.351542504E0,1.936615658E0,7.582669258E-1,5.741468114E0
5.411035083E0,5.354184276E0,1.838509466E0,-2.026510459E-1,5.664668901E0
5.421045083E0,5.906064954E0,1.432760793E0,-4.321630311E-1,6.092714635E0
5.431055083E0,6.638981277E0,8.427622618E-1,-1.000335807E-1,6.693005852E0
5.441066083E0,7.248958721E0,5.550747201E-2,6.725283256E-1,7.280300678E0
5.451076083E0,7.341012606E0,-8.425962009E-1,1.748259300E0,7.593210455E0
5.461086083E0,6.834824994E0,-1.093677980E0,2.610033638E0,7.397515787E0
5.471097083E0,5.620097517E0,-8.457076505E-1,2.786908695E0,6.329895545E0
5.481107083E0,4.130754388E0,9.203926742E-2,2.263589326E0,4.711203634E0
5.491117083E0,2.128685875E0,1.213516518E0,1.371929285E0,2.808222900E0
5.501128083E0,-1.968114316E-1,2.292209693E0,2.692759752E-1,2.316348326E0
5.511138083E0,-2.280900593E0,3.228447152E0,-7.258496699E-1,4.018984482E0
5.521148083E0,-3.620791814E0,3.589505994E0,-1.220976981E0,5.242658813E0
5.531159083E0,-4.645996413E0,3.263227852E0,-1.344804052E0,5.834589671E0
5.541169083E0,-5.922760509E0,2.204318586E0,-1.176191694E0,6.428183210E0
5.551179083E0,-7.143753862E0,1.160686340E0,-1.015367244E0,7.308309152E0
5.561190083E0,-8.279288405E0,1.807270570E-1,-1.294400176E0,8.381810698E0
5.571200083E0,-1.103498232E1,-8.379030794E-1,-2.411564228E0,1.132645392E1
5.581210083E0,-1.589089144E1,-2.088045680E0,-5.965055759E0,1.710152788E1
5.591221083E0,-2.080683275E1,-3.263250364E0,-1.005653031E1,2.333895657E1
5.601231083E0,-2.492148098E1,-4.166906845E0,-1.146418900E1,2.774654855E1
5.611241083E0,-2.809501050E1,-5.272603923E0,-1.190075850E1,3.096381792E1
5.621252083E0,-2.895065462E1,-6.466572030E0,-1.304978666E1,3.240762084E1
5.631262083E0,-2.805689835E1,-7.144591184E0,-1.481032599E1,3.252046254E1
5.641272083E0,-2.581495425E1,-7.006603911E0,-1.626669667E1,3.130670506E1
5.651283083E0,-2.213437524E1,-6.303071601E0,-1.612403396E1,2.810060053E1
5.661293083E0,-1.722762458E1,-5.461941444E0,-1.401618639E1,2.287088398E1
5.671303083E0,-1.194488626E1,-5.115782769E0,-1.078920280E1,1.688959556E1
5.681314083E0,-6.796742079E0,-4.967182800E0,-7.048689246E0,1.097964607E1
5.691324083E0,-2.529927076E0,-4.439639987E0,-3.376360950E0,6.124601823E0
5.701334083E0,6.347532660E-1,-3.731391021E0,-4.940289116E-1,3.817100369E0
5.711345083E0,2.947824070E0,-3.065123601E0,1.883882836E0,4.651200273E0
5.721355083E0,4.669632028E0,-2.414232459E0,3.956588053E0,6.579405039E0
5.731365083E0,5.994425738E0,-1.703309269E0,5.622852141E0,8.393501569E0
5.741376083E0,7.184182096E0,-8.444895293E-1,6.584515048E0,9.781690721E0
5.751386083E0,8.573213317E0,-4.620586753E-2,7.097399476E0,1.112992367E1
5.761396083E0,9.760904438E0,3.403952207E-1,7.713605374E0,1.244551454E1
5.771407083E0,1.105770928E1,8.013687989E-1,8.361133636E0,1.388609672E1
5.781417083E0,1.245383844E1,1.422541176E0,9.128065551E0,1.550623410E1
5.791427083E0,1.365761291E1,2.053691972E0,9.852380619E0,1.696518332E1
5.801438083E0,1.455861622E1,2.756002360E0,1.031351310E1,1.805318275E1
5.811448083E0,1.481129896E1,3.770611804E0,1.069879783E1,1.865626880E1
5.821458083E0,1.401916029E1,4.589090726E0,1.070917079E1,1.822862990E1
5.831469083E0,1.270825898E1,4.965396475E0,1.013420472E1,1.699579694E1
5.841479083E0,1.141193594E1,4.967649992E0,9.362327814E0,1.557443452E1
5.851489083E0,1.055850909E1,4.524625466E0,8.514497917E0,1.429863716E1
5.861499083E0,1.004468385E1,3.367655323E0,7.679389806E0,1.308471642E1
5.871510083E0,9.791988237E0,2.134790953E0,7.375495391E0,1.244340381E1
5.881520083E0,9.281211146E0,1.189068213E0,7.175073888E0,1.179137180E1
5.891530083E0,8.419319279E0,7.643407211E-1,7.032671968E0,1.099670991E1
5.901541083E0,7.348692924E0,1.050996229E0,6.296954829E0,9.734450210E0
5.911551333E0,6.585917795E0,1.402533465E0,4.436377825E0,8.063675435E0
5.921561333E0,6.212729781E0,1.609814629E0,2.325632377E0,6.826278666E0
5.931572333E0,5.786002321E0,1.727025575E0,8.506196040E-1,6.097867981E0
5.941582333E0,5.518626106E0,1.876015261E0,2.496638292E-1,5.834123704E0
5.951592333E0,5.588070563E0,1.829766417E0,4.354544288E-1,5.896117224E0
5.961603333E0,6.102408024E0,1.280028450E0,8.652902681E-1,6.294964954E0
5.971613333E0,6.792717440E0,4.593756804E-1,1.471254183E0,6.965387650E0
5.981623333E0,6.997768768E0,-1.978050198E-1,2.223146767E0,7.345085167E0
5.991634333E0,6.844755905E0,-6.821215600E-1,2.727357727E0,7.399625220E0
6.001644333E0,6.482947742E0,-6.821964043E-1,3.110457357E0,7.222807510E0
6.011654333E0,5.617305472E0,-6.419500190E-1,3.382478600E0,6.588427890E0
6.021665333E0,4.093559080E0,-4.338166237E-1,2.958932610E0,5.069586274E0
6.031675333E0,1.699600233E0,1.114917845E-3,1.738020826E0,2.430917232E0
6.041685333E0,-1.148590205E0,2.421970810E-1,3.939684337E-1,1.238196274E0
6.051696333E0,-4.979401141E0,6.741152599E-1,-1.098916354E0,5.143586712E0
6.061706333E0,-9.798634182E0,1.331011639E0,-3.217877140E0,1.039901712E1
6.071716333E0,-1.403310005E1,1.776595492E0,-6.358181024E0,1.550840593E1
6.081727333E0,-1.713833409E1,1.208047033E0,-8.876925300E0,1.933860584E1
6.091737333E0,-1.988870061E1,2.759999809E-1,-9.387681341E0,2.199466183E1
6.101747333E0,-2.323001949E1,-1.578846167E0,-8.906019291E0,2.492877334E1
6.111758333E0,-2.542895615E1,-3.569281352E0,-8.022261761E0,2.690219813E1
6.121768333E0,-2.626758253E1,-5.325395510E0,-7.850739537E0,2.792811917E1
6.131778333E0,-2.552541650E1,-6.562561677E0,-9.159377975E0,2.790176174E1
6.141789333E0,-2.362912236E1,-7.111250945E0,-1.192653536E1,2.740707134E1
6.151799333E0,-2.116837545E1,-6.869409521E0,-1.504847606E1,2.686532222E1
6.161809333E0,-1.909106789E1,-6.197195483E0,-1.724485165E1,2.646240755E1
6.171820333E0,-1.754756200E1,-5.183026333E0,-1.679480432E1,2.483638755E1
6.181830333E0,-1.586297449E1,-3.801951419E0,-1.436593994E1,2.173635261E1
6.191840333E0,-1.348673388E1,-2.630148937E0,-1.152948603E1,1.793707675E1
6.201851333E0,-1.057014973E1,-1.993080173E0,-8.150805781E0,1.349577966E1
6.211861333E0,-7.683565303E0,-1.768299901E0,-4.739684888E0,9.199384389E0
6.221871333E0,-4.958738835E0,-1.416068600E0,-1.798372862E0,5.461546124E0
6.231882333E0,-2.466264346E0,-9.755389345E-1,9.763119364E-1,2.826184890E0
6.241892333E0,3.476228178E-2,-6.282273348E-1,3.526567442E0,3.582255703E0
6.251902333E0,2.502527023E0,-4.351588520E-1,5.511072673E0,6.068272138E0
6.261913333E0,4.914035118E0,-3.430057101E-1,6.775012656E0,8.376526162E0
6.271923333E0,7.061674157E0,-1.245269823E-1,7.483863008E0,1.029033306E1
6.281933333E0,8.754339593E0,1.516930000E-1,7.861190266E0,1.176689359E1
6.291944333E0,1.006105371E1,6.036813082E-1,8.340703465E0,1.308268196E1
6.301954333E0,1.119433649E1,1.185639041E0,8.892922697E0,1.434583506E1
6.311964333E0,1.232075347E1,1.811800554E0,9.249403462E0,1.551241605E1
6.321975333E0,1.376999289E1,2.455811278E0,9.472684069E0,1.689305942E1
6.331985333E0,1.498203064E1,2.828242955E0,1.008739893E1,1.828157043E1
6.341995333E0,1.546656602E1,2.929510006E0,1.064407023E1,1.900244522E1
6.352006333E0,1.500891848E1,2.919754511E0,1.090025897E1,1.877786585E1
6.362016333E0,1.396753405E1,2.918601440E0,1.123354441E1,1.816047251E1
6.372026333E0,1.261323003E1,2.892152730E0,1.133653259E1,1.720392660E1
6.382037333E0,1.157698881E1,2.844908981E0,1.112004996E1,1.630262825E1
6.392047333E0,1.086833200E1,2.722713284E0,1.064080748E1,1.545187988E1
6.402057333E0,1.024987200E1,2.408190092E0,9.966437577E0,1.449790100E1
6.412068333E0,9.498212428E0,2.020979432E0,9.070417852E0,1.328807274E1
6.422078333E0,8.642696950E0,1.725272580E0,8.208641176E0,1.204386010E1
6.432088333E0,7.895117565E0,1.498891925E0,7.140141453E0,1.074993853E1
6.442099333E0,7.028605814E0,1.326322318E0,5.927240061E0,9.289381321E0
6.452109333E0,6.330642393E0,1.176678037E0,4.719778334E0,7.983602685E0
6.462119333E0,5.767536814E0,9.217359258E-1,3.670262182E0,6.898181101E0
6.472130333E0,5.464669755E0,7.033142084E-1,2.864335771E0,6.209805618E0
6.482140333E0,5.537857599E0,3.985947508E-1,2.180026475E0,5.964835286E0
6.492150333E0,5.809173083E0,-5.515663907E-2,1.572717700E0,6.018552577E0
6.502161333E0,6.253313550E0,-4.336056854E-1,1.095945384E0,6.363414220E0
6.512171333E0,6.661062702E0,-7.815474688E-1,8.133997375E-1,6.755900525E0
6.522181333E0,6.903766590E0,-8.768519676E-1,5.131282568E-1,6.978120314E0
6.532192333E0,6.958054479E0,-7.202693796E-1,2.968795109E-1,7.001531801E0
6.542202333E0,6.685198839E0,-7.276158214E-1,-4.460489988E-2,6.724826979E0
6.552212333E0,6.639340881E0,-6.645689495E-1,-3.310497621E-1,6.680725497E0
6.562223333E0,5.904908375E0,-8.383613549E-1,-1.406109184E-2,5.964142050E0
6.572233333E0,4.828550579E0,-1.060038363E0,3.823777905E-1,4.958305638E0
6.582243333E0,2.632568514E0,-1.575999450E0,1.423356131E0,3.382326703E0
6.592254333E0,-9.852464819E-1,-2.321043482E0,2.230604890E0,3.366534071E0
6.602264333E0,-5.308443262E0,-2.470224665E0,1.880724755E0,6.149691485E0
6.612274333E0,-9.672126163E0,-1.835849421E0,2.366952896E-1,9.847659228E0
6.622285333E0,-1.427977303E1,-1.288107548E0,-2.037473696E0,1.448179678E1
6.632295333E0,-1.903153856E1,-1.045055897E0,-4.416928232E0,1.956529725E1
6.642305333E0,-2.355771149E1,-1.270487110E0,-6.682050698E0,2.451998592E1
6.652316333E0,-2.812021902E1,-2.765153252E0,-8.729732755E0,2.957365422E1
6.662326333E0,-3.115498943E1,-4.722503722E0,-1.049411371E1,3.321237465E1
6.672336333E0,-3.094552813E1,-5.756683213E0,-1.216360955E1,3.374490347E1
6.682347333E0,-2.910080410E1,-6.080021374E0,-1.325449768E1,3.255004098E1
6.692357333E0,-2.672755024E1,-5.834698518E0,-1.340645863E1,3.046537020E1
6.702367333E0,-2.434064898E1,-5.412485694E0,-1.309231580E1,2.816329042E1
6.712378333E0,-2.219850516E1,-4.861765687E0,-1.233294492E1,2.585559760E1
6.722388333E0,-2.013917662E1,-4.101922937E0,-1.114129055E1,2.337820698E1
6.732398333E0,-1.732944332E1,-3.386591823E0,-9.337711036E0,1.997426988E1
6.742409333E0,-1.367929205E1,-2.512567862E0,-6.642289047E0,1.541285282E1
6.752419333E0,-9.536993501E0,-1.794675375E0,-4.089244712E0,1.053076574E1
6.762429333E0,-5.483315356E0,-1.490005619E0,-1.846976380E0,5.974795878E0
6.772440333E0,-1.892471226E0,-1.702584945E0,5.387437391E-1,2.602016075E0
6.782450333E0,1.265757297E0,-1.975010815E0,2.906159735E0,3.734778930E0
6.792460333E0,4.132395701E0,-1.994848517E0,4.844333676E0,6.672606957E0
6.802471333E0,6.934766189E0,-1.717095980E0,5.713575200E0,9.147914640E0
6.812481333E0,9.669798971E0,-1.496007055E0,5.492709492E0,1.122109205E1
6.822491333E0,1.215238757E1,-1.331375482E0,4.990032549E0,1.320429889E1
6.832501333E0,1.407898783E1,-1.132778603E0,4.868777961E0,1.494008315E1
6.842512333E0,1.528982574E1,-5.776980360E-1,5.402318555E0,1.622644606E1
6.852522333E0,1.589796423E1,3.129298255E-1,6.282278903E0,1.709708221E1
6.862532333E0,1.610210456E1,1.273402532E0,7.338330488E0,1.774120683E1
6.872543333E0,1.590054402E1,1.922334711E0,8.499161839E0,1.813169664E1
6.882553333E0,1.526091009E1,2.461169082E0,9.529581571E0,1.815945084E1
6.892563333E0,1.417107095E1,2.762567906E0,1.030083750E1,1.773579112E1
6.902574333E0,1.269008349E1,2.701384688E0,1.093878861E1,1.697035045E1
6.912584792E0,1.126581987E1,2.634239649E0,1.132464169E1,1.618967033E1
6.922594792E0,9.870394721E0,2.750424408E0,1.118778878E1,1.517089794E1
6.932605792E0,8.403294985E0,2.965080373E0,1.046852395E1,1.374762023E1
6.942615792E0,7.305461535E0,3.170651226E0,9.308876077E0,1.225063146E1
6.952625792E0,6.533378808E0,3.362813829E0,7.901208610E0,1.078993295E1
6.962636792E0,6.139865288E0,3.409257093E0,6.305045037E0,9.437932644E0
6.972646792E0,6.088034983E0,3.201880327E0,4.759603428E0,8.364809166E0
6.982656792E0,6.474656391E0,2.800436813E0,3.093396935E0,7.702773937E0
6.992667792E0,7.311849033E0,2.266729866E0,1.609885819E0,7.822591190E0
7.002677792E0,8.293471996E0,1.758300431E0,5.638119221E-1,8.496539415E0
7.012687792E0,9.117386781E0,1.321556838E0,1.431839857E-1,9.213780757E0
7.022698792E0,9.716046939E0,8.783453465E-1,3.304916453E-1,9.761264436E0
7.032708792E0,1.001420582E1,5.817165349E-1,1.035980141E0,1.008444184E1
7.042718792E0,9.927835429E0,3.498623013E-1,1.956980048E0,1.012492424E1
7.052729792E0,9.558651588E0,1.459772006E-2,2.906496242E0,9.990783437E0
7.062739792E0,9.161196460E0,2.327826253E-1,3.747872275E0,9.900921922E0
7.072749792E0,8.052712306E0,5.011161755E-1,4.160949117E0,9.078038911E0
7.082760792E0,6.916088428E0,1.150208130E0,4.106427047E0,8.125146213E0
7.092770792E0,5.321415895E0,1.456014439E0,4.025497197E0,6.829500191E0
7.102780792E0,3.530210842E0,1.491124045E0,4.124908634E0,5.630338422E0
7.112791792E0,1.506615804E0,1.425861371E0,4.022905419E0,4.526227993E0
7.122801792E0,-4.459835100E-1,9.645565479E-1,3.455239305E0,3.614961864E0
7.132811792E0,-2.896597783E0,-3.221713498E-2,2.282603010E0,3.688033780E0
7.142822792E0,-7.168908584E0,-1.375233400E0,4.588456303E-1,7.314031481E0
7.152832792E0,-1.297258821E1,-2.256175788E0,-2.108125018E0,1.333501275E1
7.162842792E0,-1.864434295E1,-2.064356562E0,-5.867297330E0,1.965447201E1
7.172853792E0,-2.345878128E1,-1.349480070E0,-1.011056677E1,2.558044323E1
7.182863792E0,-2.693343538E1,-1.451892006E0,-1.352593127E1,3.017397469E1
7.192873792E0,-2.839593395E1,-2.126098774E0,-1.466611026E1,3.203036295E1
7.202884792E0,-2.817114826E1,-3.403788192E0,-1.421486426E1,3.173738701E1
7.212894792E0,-2.720743591E1,-4.957299836E0,-1.325383811E1,3.066730531E1
7.222904792E0,-2.639886889E1,-6.525635340E0,-1.147938475E1,2.951712164E1
7.232915792E0,-2.597351202E1,-7.719560763E0,-9.618186768E0,2.875281659E1
7.242925792E0,-2.462726079E1,-7.603114632E0,-9.215805945E0,2.737225612E1
7.252935792E0,-2.183969194E1,-6.072280245E0,-1.025913399E1,2.488161091E1
7.262946792E0,-1.840085554E1,-4.340140257E0,-1.065717150E1,2.170261750E1
7.272956792E0,-1.465290725E1,-2.903881075E0,-8.989443271E0,1.743417065E1
7.282966792E0,-1.088669810E1,-2.196164205E0,-6.775562879E0,1.300967275E1
7.292977792E0,-7.356124735E0,-2.324568915E0,-4.286175427E0,8.825389031E0
7.302987792E0,-4.369766929E0,-2.108476874E0,-1.600670899E0,5.109078691E0
7.312997792E0,-1.795468258E0,-1.606734754E0,6.809562099E-1,2.503797954E0
7.323008792E0,3.821441942E-1,-1.230830124E0,2.386803316E0,2.712527797E0
7.333018792E0,2.527726184E0,-8.575694583E-1,3.441053375E0,4.354959628E0
7.343028792E0,4.423591719E0,-5.755282073E-1,4.136908875E0,6.083864845E0
7.353039792E0,6.293966902E0,-3.516318881E-1,4.855617048E0,7.957052297E0
7.363049792E0,8.235888031E0,-2.313235988E-1,5.538130664E0,9.927449497E0
7.373059792E0,1.040789651E1,-1.814704574E-1,5.837050853E0,1.193433718E1
7.383070792E0,1.308691998E1,-4.723076383E-1,5.743310630E0,1.429951629E1
7.393080792E0,1.560702315E1,-8.312737256E-1,5.805941911E0,1.667270671E1
7.403090792E0,1.774503885E1,-8.335442725E-1,6.519658901E0,1.892319085E1
7.413101792E0,1.850946757E1,-6.747048786E-1,8.018900782E0,2.018312132E1
7.423111792E0,1.787641643E1,-4.612789491E-1,1.004144215E1,2.050876893E1
7.433121792E0,1.627541837E1,4.102410156E-2,1.190354177E1,2.016395876E1
7.443132792E0,1.421408424E1,7.103852463E-1,1.294212889E1,1.923651575E1
7.453142792E0,1.201188717E1,1.462884186E0,1.305801837E1,1.780273314E1
7.463152792E0,1.026256981E1,2.019415740E0,1.266954690E1,1.642911433E1
7.473163792E0,8.886052803E0,2.307135441E0,1.193287959E1,1.505584351E1
7.483173792E0,8.137860045E0,2.234982408E0,1.107516205E1,1.392404851E1
7.493183792E0,8.020062039E0,1.811456007E0,9.780378006E0,1.277726739E1
7.503194792E0,8.377901112E0,1.343711499E0,8.461318660E0,1.198285029E1
7.513204792E0,8.840262673E0,8.508853599E-1,7.093935585E0,1.136653738E1
7.523214792E0,9.451879676E0,3.736285286E-1,5.504978705E0,1.094451544E1
7.533225792E0,9.842775983E0,-1.236759201E-1,3.706290386E0,1.051818060E1
7.543235792E0,1.001294750E1,-4.339856813E-1,2.318800783E0,1.028709377E1
7.553245792E0,9.767157451E0,-5.058016225E-1,1.628045224E0,9.914823811E0
7.563256792E0,9.257056298E0,-3.923013195E-1,1.580597408E0,9.399216977E0
7.573266792E0,8.666879280E0,-3.219424313E-1,1.742967278E0,8.846263523E0
7.583276792E0,7.945570850E0,-2.564062536E-1,2.118631003E0,8.227176772E0
7.593287792E0,7.449331691E0,-1.920734328E-1,2.495392835E0,7.858525323E0
7.603297792E0,6.876529675E0,-2.368519950E-1,2.708477068E0,7.394498446E0
7.613307792E0,6.361176553E0,-1.246271159E-1,2.624419250E0,6.882417849E0
7.623318792E0,6.072725219E0,6.743257597E-2,2.088199169E0,6.422080232E0
7.633328792E0,5.587824980E0,3.419521880E-1,1.797876141E0,5.879887578E0
7.643338792E0,4.824349355E0,5.162929161E-1,1.440215408E0,5.061138754E0
7.653349792E0,3.454827368E0,5.605444980E-1,9.979138899E-1,3.639488207E0
7.663359792E0,8.724519378E-1,7.465431122E-1,6.557398000E-1,1.322306200E0
7.673369792E0,-3.782220574E0,9.519138443E-1,-1.945661008E-2,3.900219352E0
7.683380792E0,-9.768830339E0,1.164633211E0,-2.325501400E0,1.010912328E1
7.693390792E0,-1.614751404E1,1.041088268E0,-6.245506933E0,1.734452165E1
7.703400792E0,-2.208679761E1,7.188444132E-1,-9.952272112E0,2.423615246E1
7.713411792E0,-2.670458706E1,2.314076525E-1,-1.132539014E1,2.900780897E1
7.723421792E0,-3.016589314E1,-8.528433001E-1,-1.185610916E1,3.242338315E1
7.733431792E0,-3.111290117E1,-2.035902988E0,-1.270233575E1,3.366759352E1
7.743442792E0,-3.014517295E1,-3.580821125E0,-1.278492767E1,3.293946125E1
7.753452792E0,-2.813532822E1,-4.349923818E0,-1.213366011E1,3.094744317E1
7.763462792E0,-2.627118208E1,-4.898306108E0,-1.133748919E1,2.902941735E1
7.773472792E0,-2.479509459E1,-4.984554877E0,-1.174244864E1,2.788418195E1
7.783483792E0,-2.294403451E1,-4.512767020E0,-1.307661368E1,2.679163323E1
7.793493792E0,-2.083463041E1,-3.829713706E0,-1.355064161E1,2.514693658E1
7.803503792E0,-1.832032184E1,-2.813130241E0,-1.235285585E1,2.227422146E1
7.813514792E0,-1.535945087E1,-1.963793516E0,-9.701661619E0,1.827269696E1
7.823524792E0,-1.183558192E1,-1.364371759E0,-5.885164082E0,1.328825293E1
7.833534792E0,-8.232517696E0,-1.403763135E0,-2.280413812E0,8.657088755E0
7.843545792E0,-4.953920730E0,-1.516167085E0,6.016051081E-1,5.215555764E0
7.853555792E0,-1.929462467E0,-1.524989656E0,2.718515860E0,3.665889707E0
7.863565792E0,8.275301188E-1,-1.645634965E0,4.323209352E0,4.699261605E0
7.873576792E0,3.594150730E0,-1.701501309E0,5.546367052E0,6.824603552E0
7.883586792E0,6.680505863E0,-1.775381172E0,5.880558230E0,9.075356852E0
7.893596792E0,9.842683597E0,-1.951209139E0,5.553749746E0,1.146864306E1
7.903607792E0,1.271328057E1,-2.027233029E0,5.068369451E0,1.383566209E1
7.913617042E0,1.499664167E1,-1.774171529E0,4.848234938E0,1.586040125E1
7.923627042E0,1.644171553E1,-1.375489655E0,5.004098611E0,1.724131620E1
7.933638042E0,1.729733508E1,-8.804066361E-1,5.405526338E0,1.814366644E1
7.943648042E0,1.751248338E1,-2.958696967E-1,6.025139408E0,1.852233565E1
7.953658042E0,1.729894775E1,3.015099575E-1,6.768954356E0,1.857856949E1
7.963669042E0,1.673119948E1,8.942486036E-1,7.503457612E0,1.835850192E1
7.973679042E0,1.607868530E1,1.210405215E0,8.411624343E0,1.818638572E1
7.983689042E0,1.500571187E1,1.219169314E0,9.442748079E0,1.777141676E1
7.993700042E0,1.371364093E1,1.131490023E0,1.046436541E1,1.728719644E1
8.003710042E0,1.244785206E1,1.071417776E0,1.124483889E1,1.680902611E1
8.013720042E0,1.121205122E1,9.936897882E-1,1.145701564E1,1.606115560E1
8.023731042E0,1.042456926E1,8.260561819E-1,1.102361183E1,1.519453951E1
8.033741042E0,9.850053427E0,6.595626365E-1,1.016962247E1,1.417320700E1
8.043751042E0,9.330725368E0,5.985213596E-1,8.882670189E0,1.289660783E1
8.053762042E0,8.928599483E0,7.794096536E-1,7.038249627E0,1.139580300E1
8.063772042E0,8.574129576E0,7.030529109E-1,4.970002327E0,9.935336155E0
8.073782042E0,8.088728231E0,6.476234993E-1,2.997939678E0,8.650698406E0
8.083793042E0,7.764869667E0,5.300452019E-1,1.174898875E0,7.871120392E0
8.093803042E0,7.253689703E0,3.163549782E-1,-2.387298283E-1,7.264508704E0
8.103813042E0,6.542998647E0,2.643515233E-1,-1.032304581E0,6.629205516E0
8.113824042E0,6.084598575E0,1.613172247E-1,-1.381016150E0,6.241439631E0
8.123834042E0,5.740937830E0,1.047829816E-1,-1.481451727E0,5.929927981E0
8.133844042E0,5.382097714E0,9.513989970E-2,-1.400775646E0,5.562211774E0
8.143855042E0,5.320678561E0,2.484229039E-1,-1.279452353E0,5.477986182E0
8.153865042E0,5.359542664E0,4.864586677E-1,-1.031301199E0,5.479500139E0
8.163875042E0,5.502494223E0,6.908644630E-1,-5.742559263E-1,5.575348083E0
8.173886042E0,5.744809856E0,8.070683724E-1,-3.950846672E-2,5.801358510E0
8.183896042E0,5.508090593E0,5.752682255E-1,9.487180486E-1,5.618724183E0
8.193906042E0,4.712197419E0,-3.234423883E-1,2.387954048E0,5.292612213E0
8.203917042E0,3.086114813E0,-1.361288230E0,4.027206631E0,5.253151771E0
8.213927042E0,5.049713910E-1,-1.725735387E0,4.627996052E0,4.965028317E0
8.223937042E0,-3.138784193E0,-1.485166317E0,3.363126947E0,4.834077788E0
8.233948042E0,-7.797308266E0,-7.039354751E-1,4.706496969E-1,7.843153223E0
8.243958042E0,-1.322620885E1,5.431195030E-1,-3.129520157E0,1.360225995E1
8.253968042E0,-1.814557195E1,1.129278021E0,-6.711155798E0,1.937980037E1
8.263979042E0,-2.196162744E1,4.456396937E-1,-8.248437910E0,2.346376786E1
8.273989042E0,-2.567458365E1,-1.850009477E0,-7.700487730E0,2.686827668E1
8.283999042E0,-2.905936137E1,-4.752769495E0,-7.076931882E0,3.028396054E1
8.294010042E0,-2.992002474E1,-6.931425090E0,-9.101981707E0,3.203277392E1
8.304020042E0,-2.779696622E1,-7.639302465E0,-1.184889603E1,3.116771744E1
8.314030042E0,-2.741023606E1,-8.140321723E0,-1.176549135E1,3.091945448E1
8.324041042E0,-2.565855994E1,-7.684343567E0,-1.278332553E1,2.967868336E1
8.334051042E0,-2.264378232E1,-7.056272500E0,-1.416582834E1,2.762612083E1
8.344061042E0,-1.952292453E1,-5.957086589E0,-1.344806741E1,2.444344452E1
8.354072042E0,-1.656539466E1,-4.627811573E0,-1.031283482E1,2.005451326E1
8.364082042E0,-1.370331007E1,-3.617561227E0,-6.805716970E0,1.572212580E1
8.374092042E0,-1.048449738E1,-3.026974027E0,-3.612301657E0,1.149504155E1
8.384103042E0,-7.367008742E0,-2.480912206E0,-1.104938402E0,7.851664285E0
8.394113042E0,-4.661110296E0,-1.935595465E0,6.558239999E-1,5.089458136E0
8.404123042E0,-2.287888016E0,-1.306786040E0,1.649572041E0,3.108570289E0
8.414134042E0,1.520673680E-1,-6.434647402E-1,2.033042969E0,2.137857588E0
8.424144042E0,2.404525350E0,-2.050450422E-1,2.507563522E0,3.480181094E0
8.434154042E0,4.799630835E0,3.568628803E-2,3.122899939E0,5.726275726E0
8.444165042E0,7.225654058E0,1.471959065E-1,3.632199439E0,8.088548446E0
8.454175042E0,9.566538312E0,1.930512334E-1,3.904724712E0,1.033454397E1
8.464185042E0,1.161563306E1,1.851636319E-1,4.248112976E0,1.236946566E1
8.474196042E0,1.317495800E1,2.432112806E-1,4.852269517E0,1.404219319E1
8.484206042E0,1.435828710E1,4.792038079E-1,5.572001830E0,1.540899897E1
8.494216042E0,1.502232030E1,9.519097513E-1,6.472321597E0,1.638496830E1
8.504227042E0,1.524426657E1,1.453493996E0,7.415604951E0,1.701444989E1
8.514237042E0,1.524964601E1,1.906238788E0,8.283165693E0,1.745841584E1
8.524247042E0,1.497330894E1,2.214417458E0,9.133631516E0,1.767842894E1
8.534258042E0,1.424227834E1,2.321292720E0,9.924787860E0,1.751377476E1
8.544268042E0,1.303967916E1,2.372989269E0,1.060271404E1,1.697297428E1
8.554278042E0,1.162335957E1,2.457183035E0,1.084489870E1,1.608577210E1
8.564289042E0,1.025227053E1,2.643950704E0,1.048116212E1,1.489813028E1
8.574299042E0,9.115486436E0,2.728494426E0,9.565254264E0,1.349188141E1
8.584309042E0,8.302438701E0,2.587829713E0,8.470012300E0,1.213954115E1
8.594320042E0,7.667719933E0,2.280685854E0,7.093352033E0,1.069163692E1
8.604330042E0,7.378896716E0,2.173877689E0,5.397108686E0,9.396948607E0
8.614340042E0,6.910974453E0,2.126537608E0,3.261593848E0,7.932321509E0
8.624351042E0,6.680638011E0,1.922201833E0,1.220931665E0,7.058077518E0
8.634361042E0,6.896926517E0,1.620704630E0,-3.101830959E-2,7.084859986E0
8.644371042E0,7.290806658E0,1.181826949E0,-7.886595833E-1,7.427958037E0
8.654381042E0,7.631482984E0,8.992291157E-1,-1.059567224E0,7.756985770E0
8.664392042E0,7.936919895E0,6.657701138E-1,-8.257063723E-1,8.007480145E0
8.674402042E0,8.204877908E0,4.086348586E-1,-9.575780421E-2,8.215605485E0
8.684412042E0,8.591779981E0,2.817722060E-1,9.433175603E-1,8.648001321E0
8.694423042E0,8.748373679E0,1.728201596E-1,2.105416588E0,8.999815989E0
8.704433042E0,8.521423944E0,2.641617081E-1,2.966474934E0,9.026872159E0
8.714443042E0,8.228507676E0,5.993344881E-1,3.302459746E0,8.886719348E0
8.724454042E0,7.330130353E0,8.090801069E-1,3.661910019E0,8.233772319E0
8.734464042E0,5.351348961E0,3.662562861E-1,4.001403160E0,6.691958355E0
8.744474042E0,2.914786132E0,9.239287779E-2,4.084196226E0,5.018483182E0
8.754485042E0,1.005802953E-1,2.868173298E-1,3.627149784E0,3.639862103E0
8.764495042E0,-3.043240689E0,5.984685154E-1,2.068795476E0,3.728188994E0
8.774505042E0,-5.829688624E0,1.349700218E0,-1.409740305E-1,5.985552088E0
8.784516042E0,-8.786690483E0,1.707788382E0,-2.525318885E0,9.300521828E0
8.794526042E0,-1.140960758E1,1.113739338E0,-4.513196790E0,1.232024780E1
8.804536042E0,-1.438772315E1,-3.081239989E-1,-6.026887726E0,1.560207978E1
8.814547042E0,-1.925191544E1,-2.579634548E0,-7.998012189E0,2.100616484E1
8.824557042E0,-2.588429053E1,-5.349128188E0,-9.357061812E0,2.803862112E1
8.834567042E0,-3.102008013E1,-6.611864814E0,-1.046100092E1,3.339752488E1
8.844578042E0,-3.301502615E1,-6.469804371E0,-1.266352193E1,3.594739362E1
8.854588042E0,-3.224576646E1,-5.887593015E0,-1.560249273E1,3.630276829E1
8.864598042E0,-2.898046840E1,-5.341123935E0,-1.789170923E1,3.447475037E1
8.874609042E0,-2.440226460E1,-5.567228163E0,-1.779837013E1,3.071231881E1
8.884619042E0,-1.996529913E1,-5.659352800E0,-1.571472887E1,2.603063862E1
8.894629042E0,-1.576148086E1,-4.926904839E0,-1.291721391E1,2.096552135E1
8.904640042E0,-1.240716245E1,-3.790005557E0,-9.712964287E0,1.620627957E1
8.914650333E0,-9.686455935E0,-2.730358811E0,-6.424953303E0,1.193994610E1
8.924660333E0,-7.349612691E0,-1.852329506E0,-3.078567227E0,8.180801151E0
8.934671333E0,-5.316346359E0,-1.095971258E0,-6.261371014E-1,5.464132069E0
8.944681333E0,-3.511691540E0,-5.317930077E-1,6.688755700E-1,3.614163224E0
8.954691333E0,-1.646297016E0,-1.536833923E-1,1.752847026E0,2.409644194E0
8.964702333E0,2.178959066E-1,-1.670682536E-1,3.209341667E0,3.221065719E0
8.974712333E0,2.043738111E0,-1.799995172E-1,4.786237788E0,5.207430984E0
8.984722333E0,4.122125067E0,-2.070437667E-1,6.126837691E0,7.387348799E0
8.994733333E0,6.438318284E0,-4.307826497E-1,7.323362786E0,9.760592119E0
9.004743333E0,9.115164839E0,-7.360969153E-1,8.315875018E0,1.236049538E1
9.014753333E0,1.161995649E1,-9.087141766E-1,9.095671976E0,1.478446478E1
9.024764333E0,1.354942890E1,-7.324401397E-1,9.532729127E0,1.658301591E1
9.034774333E0,1.464332249E1,-3.803873252E-1,9.662660691E0,1.754817939E1
9.044784333E0,1.494528206E1,2.468314379E-1,9.647374899E0,1.779028454E1
9.054795333E0,1.488009496E1,9.978942286E-1,9.451926454E0,1.765649831E1
9.064805333E0,1.445797511E1,1.640726081E0,8.920848999E0,1.706770556E1
9.074815333E0,1.364066534E1,2.005032467E0,8.210295353E0,1.604670857E1
9.084826333E0,1.276495826E1,2.124210416E0,7.487614582E0,1.495061207E1
9.094836333E0,1.184332013E1,2.054227723E0,7.054848118E0,1.393753799E1
9.104846333E0,1.083508941E1,1.749874740E0,6.887445257E0,1.295755094E1
9.114857333E0,1.002623003E1,1.560601539E0,6.718236192E0,1.216944795E1
9.124867333E0,9.424389576E0,1.471509560E0,6.344237169E0,1.145573239E1
9.134877333E0,8.770193149E0,1.448190133E0,5.867609571E0,1.065093351E1
9.144888333E0,8.130648090E0,1.482820268E0,4.931749842E0,9.624362359E0
9.154898333E0,7.450915702E0,1.637347267E0,3.731669641E0,8.492491341E0
9.164908333E0,6.852856053E0,1.653091919E0,3.071269317E0,7.689411174E0
9.174919333E0,6.461439929E0,1.546921247E0,2.697947402E0,7.170919849E0
9.184929333E0,6.404379875E0,1.371259925E0,2.324291903E0,6.949731521E0
9.194939333E0,6.738863999E0,1.105577356E0,1.770034916E0,7.054616424E0
9.204950333E0,7.546966159E0,6.541693841E-1,1.550490095E0,7.732312418E0
9.214960333E0,8.437757304E0,2.854221842E-1,1.721272938E0,8.616263383E0
9.224970333E0,9.121602623E0,-1.153129399E-2,2.189309807E0,9.380663347E0
9.234981333E0,9.546036220E0,-8.208087444E-2,2.758768970E0,9.937019222E0
9.244991333E0,9.666191824E0,-1.080958678E-1,3.194027809E0,1.018080364E1
9.255001333E0,9.432930604E0,6.814783663E-3,3.508226188E0,1.006418786E1
9.265011333E0,8.934408107E0,2.977805668E-1,3.444853188E0,9.580153182E0
9.275022333E0,8.163564990E0,7.285041596E-1,3.099166091E0,8.762382217E0
9.285032333E0,6.949065555E0,9.669484976E-1,2.949629105E0,7.610835259E0
9.295042333E0,5.108961407E0,8.902764438E-1,3.097791995E0,6.040727940E0
9.305053333E0,2.560328504E0,2.299047719E-1,3.552797174E0,4.385260085E0
9.315063333E0,-6.304982471E-1,-5.574957597E-1,3.928374361E0,4.017518473E0
9.325073333E0,-4.866307805E0,-6.575524369E-1,2.889878747E0,5.697782554E0
9.335084333E0,-1.009100666E1,-4.445410019E-1,1.082951117E-1,1.010137416E1
9.345094333E0,-1.651114069E1,-5.883936167E-2,-4.067987452E0,1.700499194E1
9.355104333E0,-2.309610656E1,-2.203321490E-1,-8.798546298E0,2.471625176E1
9.365115333E0,-2.923593091E1,-1.356918605E0,-1.253366580E1,3.183824214E1
9.375125333E0,-3.208874065E1,-2.936417614E0,-1.481130364E1,3.546384836E1
9.385135333E0,-3.119291915E1,-4.529497658E0,-1.499285267E1,3.490415713E1
9.395146333E0,-2.848837141E1,-6.178988423E0,-1.397978748E1,3.232957874E1
9.405156333E0,-2.537775793E1,-7.310800627E0,-1.223070050E1,2.910444018E1
9.415166333E0,-2.253526268E1,-7.608223929E0,-1.038813292E1,2.595450714E1
9.425177333E0,-2.027940922E1,-7.567459481E0,-9.494982426E0,2.363631893E1
9.435187333E0,-1.781895467E1,-6.839122698E0,-9.194136164E0,2.118539319E1
9.445197333E0,-1.524688379E1,-5.695783292E0,-8.800182348E0,1.850277336E1
9.455208333E0,-1.313271421E1,-4.552127260E0,-7.247789862E0,1.567547457E1
9.465218333E0,-1.128085891E1,-3.598791957E0,-4.992399502E0,1.285041377E1
9.475228333E0,-9.395828851E0,-2.806217955E0,-2.764117710E0,1.018807174E1
9.485239333E0,-7.173174713E0,-2.250098484E0,-8.086497518E-1,7.561170086E0
9.495249333E0,-4.700398323E0,-1.881450979E0,6.842809367E-1,5.108996240E0
9.505259333E0,-2.126821783E0,-1.504637107E0,1.558254905E0,3.035697954E0
9.515270333E0,4.152651626E-1,-1.109641463E0,1.914210297E0,2.251210873E0
9.525280333E0,2.830680951E0,-6.717449449E-1,2.005548483E0,3.533584673E0
9.535290333E0,5.186780246E0,-3.711870968E-1,1.821417616E0,5.509812276E0
9.545301333E0,7.462518332E0,-5.791360125E-2,1.718549013E0,7.658064021E0
9.555311333E0,9.589348885E0,6.001823343E-1,2.102724530E0,9.835511239E0
9.565321333E0,1.129376839E1,1.239773733E0,2.941738288E0,1.173627145E1
9.575332333E0,1.261831594E1,1.920636095E0,3.975962217E0,1.336858316E1
9.585342333E0,1.377626227E1,2.338151266E0,4.943834867E0,1.482207329E1
9.595352333E0,1.479960102E1,2.543839063E0,6.041262521E0,1.618629545E1
9.605363333E0,1.534723136E1,2.964716968E0,7.228599300E0,1.722148963E1
9.615373333E0,1.539124335E1,3.498950750E0,8.079696622E0,1.773173781E1
9.625383333E0,1.489726473E1,3.574642957E0,8.461751938E0,1.750165177E1
9.635394333E0,1.420196062E1,3.455383731E0,8.617048724E0,1.696728885E1
9.645404333E0,1.336286412E1,3.296316076E0,8.726660628E0,1.629682310E1
9.655414333E0,1.209475508E1,3.061898862E0,8.607035952E0,1.515715649E1
9.665425333E0,1.063063801E1,2.977364788E0,8.190154034E0,1.374604629E1
9.675435333E0,9.463981073E0,2.992433648E0,7.500481964E0,1.244101389E1
9.685445333E0,8.585348044E0,2.741790994E0,6.432584504E0,1.107265832E1
9.695456333E0,7.874361119E0,2.496229572E0,5.415976481E0,9.877728806E0
9.705466333E0,7.326869361E0,2.151053083E0,4.529723653E0,8.878538189E0
9.715476333E0,6.899726164E0,1.568978991E0,3.726552450E0,7.997193844E0
9.725487333E0,6.570112186E0,1.225483869E0,3.003920795E0,7.327463749E0
9.735497333E0,6.516564555E0,1.098097598E0,2.159292833E0,6.952264197E0
9.745507333E0,6.585858738E0,1.099058149E0,1.333968284E0,6.808886510E0
9.755518333E0,6.805545647E0,1.230455317E0,6.259207544E-1,6.944152117E0
9.765528333E0,7.151257594E0,1.201382230E0,2.599327093E-1,7.256126340E0
9.775538333E0,7.799208611E0,1.010966629E0,2.111993828E-1,7.867293922E0
9.785549333E0,8.542545256E0,6.591767934E-1,3.597461423E-1,8.575488953E0
9.795559333E0,8.889056518E0,3.559933993E-1,8.068306831E-1,8.932694601E0
9.805569333E0,8.998733912E0,2.451046090E-1,1.337733891E0,9.100924142E0
9.815580333E0,9.094507211E0,1.559443644E-1,1.930497424E0,9.298451503E0
9.825590333E0,8.604439203E0,-3.767171010E-2,2.843957347E0,9.062333394E0
9.835600333E0,6.875494718E0,-2.527631459E-1,3.987918896E0,7.952346443E0
9.845610333E0,4.140999295E0,8.205982447E-2,5.173017654E0,6.626818288E0
9.855621333E0,-1.907946467E-3,9.600496602E-1,5.429539683E0,5.513764609E0
9.865631333E0,-4.382433752E0,2.316497272E0,4.142800529E0,6.460238497E0
9.875642333E0,-9.095887738E0,3.148468644E0,1.604492055E0,9.758197749E0
9.885652333E0,-1.333834558E1,3.000629982E0,-1.967457382E0,1.381253531E1
9.895662333E0,-1.641983642E1,2.310061827E0,-5.433433928E0,1.744905779E1
9.905672333E0,-1.817295680E1,1.480763218E0,-7.636713903E0,1.976786326E1
9.915683542E0,-2.030876692E1,7.957563490E-2,-7.673188834E0,2.171013987E1
9.925693542E0,-2.257388237E1,-2.193923845E0,-7.750486686E0,2.396796844E1
9.935703542E0,-2.190217295E1,-4.998122172E0,-8.825948689E0,2.413677226E1
9.945714542E0,-1.995834095E1,-7.753824277E0,-9.729724746E0,2.351860344E1
9.955724542E0,-1.843461619E1,-9.264528455E0,-9.959721465E0,2.290988025E1
9.965734542E0,-1.751836802E1,-9.689145654E0,-1.084037880E1,2.276590816E1
9.975745542E0,-1.765576122E1,-9.430796371E0,-1.207711403E1,2.337782085E1
9.985755542E0,-1.882649892E1,-8.312450303E0,-1.275664936E1,2.421293032E1
9.995765542E0,-2.014200199E1,-6.584250169E0,-1.306376267E1,2.489406535E1
1.000577654E1,-2.041452668E1,-5.002414613E0,-1.225759185E1,2.433157639E1
1.001578654E1,-1.941385875E1,-3.527893883E0,-1.013020990E1,2.218028628E1
1.002579654E1,-1.718770330E1,-2.206716383E0,-7.068630005E0,1.871502797E1
1.003580754E1,-1.442426240E1,-1.317769011E0,-3.554025089E0,1.491398523E1
1.004581754E1,-1.105427229E1,-8.835632555E-1,-3.984813148E-1,1.109668451E1
1.005582754E1,-7.375449198E0,-1.029142407E0,1.853006029E0,7.673983080E0
1.006583854E1,-3.595983247E0,-9.397998753E-1,2.691875653E0,4.589173548E0
1.007584854E1,1.576894659E-1,-6.847516376E-1,2.309495816E0,2.414026035E0
1.008585854E1,3.816153721E0,-4.472487013E-1,1.645025831E0,4.179613691E0
1.009586954E1,6.973248469E0,-4.447974023E-1,1.212906654E0,7.091909580E0
1.010587954E1,9.393809223E0,-3.448610316E-1,1.342245602E0,9.495483353E0
1.011588954E1,1.115567938E1,-1.033412044E-1,1.763349794E0,1.129465645E1
1.012590054E1,1.224624708E1,1.642759158E-1,2.434116646E0,1.248689225E1
1.013591054E1,1.286074501E1,5.397092606E-1,3.658803101E0,1.338196130E1
1.014592054E1,1.321409693E1,1.067083235E0,5.298137544E0,1.427659923E1
1.015593154E1,1.346680540E1,1.669017980E0,7.139833889E0,1.533354808E1
1.016594154E1,1.346404084E1,2.535343936E0,8.539095399E0,1.614386926E1
1.017595154E1,1.314453845E1,3.421710493E0,9.233076866E0,1.642366287E1
1.018596254E1,1.264845716E1,4.159310435E0,9.382073277E0,1.628823597E1
1.019597254E1,1.211213300E1,4.505807371E0,9.415862582E0,1.598951325E1
1.020598254E1,1.135904437E1,4.484525553E0,9.595021269E0,1.553072090E1
1.021599354E1,1.055667073E1,4.365058751E0,9.601315797E0,1.492254334E1
1.022600354E1,9.754231596E0,4.172012926E0,9.107871607E0,1.398227632E1
1.023601354E1,8.772091155E0,3.790324523E0,8.612153435E0,1.286411015E1
1.024602454E1,7.883214973E0,3.332639565E0,7.939196216E0,1.167400537E1
1.025603454E1,7.095999652E0,3.024474050E0,6.784895620E0,1.027304545E1
1.026604454E1,6.698310050E0,2.738145255E0,5.085411161E0,8.844557855E0
1.027605554E1,6.700519713E0,2.369377736E0,3.745871358E0,8.033832679E0
1.028606554E1,6.899068937E0,2.091099388E0,2.885020881E0,7.764869241E0
1.029607554E1,7.217646881E0,1.892216288E0,2.155868996E0,7.766767674E0
1.030608654E1,7.694425921E0,1.557415829E0,1.551819167E0,8.002366966E0
1.031609654E1,8.346342520E0,1.159618054E0,1.007505662E0,8.486531397E0
1.032610654E1,9.083907963E0,7.368783957E-1,6.221773669E-1,9.134959131E0
1.033611754E1,9.756952890E0,2.541495207E-1,9.599619520E-1,9.807356863E0
1.034612754E1,1.014297086E1,-2.054629719E-1,1.692254961E0,1.028522240E1
1.035613754E1,1.002171832E1,-4.933234450E-1,2.350218165E0,1.030542244E1
1.036614854E1,9.657379485E0,-5.004421377E-1,2.534674722E0,9.996999390E0
1.037615854E1,9.267176659E0,-4.038854577E-1,2.694254593E0,9.659331990E0
1.038616854E1,8.655719869E0,-2.024303135E-1,2.972738471E0,9.154214248E0
1.039617854E1,7.605330727E0,2.172129518E-1,3.522795988E0,8.384409848E0
1.040618954E1,5.984443957E0,7.105860981E-1,4.147062857E0,7.315506299E0
1.041619954E1,4.173815623E0,9.239393029E-1,4.293790255E0,6.058963232E0
1.042620954E1,2.225302927E0,9.367050903E-1,4.430974706E0,5.046080299E0
1.043622054E1,-7.626201779E-1,9.645338899E-1,4.182032423E0,4.359049248E0
1.044623054E1,-4.225569913E0,1.245213982E0,2.977950679E0,5.317347948E0
1.045624054E1,-8.116831119E0,9.058022632E-1,5.022305086E-1,8.182643866E0
1.046625154E1,-1.305033863E1,-2.225193000E-1,-2.819863018E0,1.335336964E1
1.047626154E1,-1.856132652E1,-1.315720001E0,-6.443793032E0,1.969203976E1
1.048627154E1,-2.383058467E1,-2.274611912E0,-1.028780523E1,2.605589303E1
1.049628254E1,-2.826338926E1,-3.874031215E0,-1.361242095E1,3.160894327E1
1.050629254E1,-2.990567567E1,-5.985051482E0,-1.555804921E1,3.423774487E1
1.051630254E1,-2.755131300E1,-7.897690925E0,-1.652138969E1,3.308178785E1
1.052631354E1,-2.382151915E1,-9.207095348E0,-1.587470167E1,3.007060911E1
1.053632354E1,-2.103729491E1,-9.185230855E0,-1.370839832E1,2.673679912E1
1.054633354E1,-1.919014545E1,-8.559961773E0,-1.169336243E1,2.404723171E1
1.055634454E1,-1.730362084E1,-7.744695604E0,-1.076635422E1,2.180160516E1
1.056635454E1,-1.555590095E1,-7.042571304E0,-1.004029961E1,1.980887379E1
1.057636454E1,-1.425590937E1,-6.151548609E0,-8.352835268E0,1.763072203E1
1.058637554E1,-1.331061808E1,-4.893321649E0,-5.815989182E0,1.532784658E1
1.059638554E1,-1.229690853E1,-3.466086474E0,-3.518999683E0,1.325183284E1
1.060639554E1,-1.095205477E1,-2.197617823E0,-2.001705693E0,1.134829738E1
1.061640654E1,-9.107495046E0,-1.215946914E0,-9.649823713E-1,9.238841047E0
1.062641654E1,-6.819339813E0,-5.328256260E-1,-2.143364140E-1,6.843481477E0
1.063642654E1,-3.839440842E0,-1.348084339E-1,2.864290747E-1,3.852469455E0
1.064643754E1,-4.097962618E-1,-8.455994770E-2,7.202380970E-1,8.329623505E-1
1.065644754E1,3.293230793E0,-2.560909425E-1,1.173587929E0,3.505461489E0
1.066645754E1,6.752444158E0,-4.847917727E-1,1.794496450E0,7.003623539E0
1.067646854E1,9.614893616E0,-5.737062880E-1,2.564661291E0,9.967587757E0
1.068647854E1,1.171742957E1,-2.524434493E-1,3.497798848E0,1.223096400E1
1.069648854E1,1.275394912E1,5.330448966E-1,4.400232385E0,1.350219982E1
1.070649954E1,1.324685537E1,1.724527060E0,5.404630544E0,1.441052400E1
1.071650954E1,1.363073911E1,2.886837318E0,6.679070957E0,1.545124161E1
1.072651954E1,1.387088893E1,3.729031377E0,8.151443712E0,1.651524355E1
1.073653054E1,1.421580800E1,4.492802871E0,9.554138707E0,1.770751369E1
1.074654054E1,1.413799676E1,4.994225587E0,1.069311200E1,1.841651123E1
1.075655054E1,1.354965460E1,5.077178866E0,1.144263383E1,1.844735086E1
1.076656154E1,1.274054964E1,4.571288878E0,1.198545424E1,1.807952988E1
1.077657154E1,1.204487482E1,3.861155646E0,1.223930760E1,1.760080063E1
1.078658154E1,1.122165819E1,3.360059205E0,1.157586380E1,1.646864394E1
1.079659254E1,1.018609291E1,2.985493003E0,1.037275825E1,1.484128603E1
1.080660254E1,9.220626390E0,2.815030879E0,8.889057103E0,1.311334000E1
1.081661254E1,8.590854367E0,2.574251309E0,7.073850399E0,1.142229872E1
1.082662254E1,7.909785306E0,2.157618044E0,5.305233725E0,9.765527333E0
1.083663354E1,7.247892188E0,1.692002654E0,3.630580637E0,8.281058502E0
1.084664354E1,6.776149939E0,1.304512058E0,2.140871472E0,7.225046046E0
1.085665354E1,6.540131757E0,1.114955559E0,1.179109455E0,6.738452968E0
1.086666454E1,6.484166887E0,1.086124400E0,8.563197622E-1,6.630035442E0
1.087667454E1,6.702644007E0,1.148710512E0,9.292421427E-1,6.863560554E0
1.088668454E1,7.070216355E0,1.148863416E0,1.151405932E0,7.254900556E0
1.089669554E1,7.435083196E0,1.063746521E0,1.588145871E0,7.676863038E0
1.090670554E1,7.864943594E0,8.735088220E-1,2.040370699E0,8.172115270E0
1.091671604E1,8.270829822E0,5.308223699E-1,2.390532670E0,8.625719958E0
1.092672704E1,8.575759780E0,3.173975368E-1,2.776452704E0,9.019594593E0
1.093673704E1,8.532443606E0,4.050234720E-2,3.028307193E0,9.053997945E0
1.094674704E1,8.257150261E0,-6.962279677E-2,3.075761441E0,8.811678967E0
1.095675804E1,7.669524384E0,-8.942746237E-2,3.054309761E0,8.255810661E0
1.096676804E1,6.044511234E0,-9.844138384E-2,2.927765197E0,6.716964776E0
1.097677804E1,3.272566148E0,-3.889073762E-1,3.067991076E0,4.502611174E0
1.098678904E1,-1.372756666E-1,-8.759389248E-1,3.161975127E0,3.283930619E0
1.099679904E1,-3.808282784E0,-8.617050478E-1,2.226287891E0,4.494653615E0
1.100680904E1,-7.958361050E0,-5.796894515E-1,4.391659489E-1,7.991521582E0
1.101682004E1,-1.171255767E1,6.526252806E-2,-2.263894551E0,1.192952157E1
1.102683004E1,-1.430030845E1,-5.933804145E-1,-5.128872930E0,1.520382385E1
1.103684004E1,-1.597899729E1,-2.155509977E0,-6.532880040E0,1.739692786E1
1.104685104E1,-1.888845953E1,-4.143031202E0,-7.085527289E0,2.059473981E1
1.105686104E1,-2.290052655E1,-6.027180086E0,-8.473209558E0,2.515067188E1
1.106687104E1,-2.490209863E1,-7.205298731E0,-1.039433331E1,2.792978716E1
1.107688204E1,-2.491324109E1,-7.475202112E0,-1.286858846E1,2.901980009E1
1.108689204E1,-2.384495946E1,-6.494777244E0,-1.531092015E1,2.907212581E1
1.109690204E1,-2.254576896E1,-5.064059469E0,-1.635257823E1,2.830835938E1
1.110691304E1,-2.078032147E1,-3.896526623E0,-1.564041777E1,2.629880888E1
1.111692304E1,-1.857067037E1,-3.144988381E0,-1.370934674E1,2.329607130E1
1.112693304E1,-1.627993243E1,-2.835163719E0,-1.111178199E1,1.991346409E1
1.113694404E1,-1.448409345E1,-2.463958789E0,-8.088359857E0,1.677145257E1
1.114695404E1,-1.317420137E1,-1.860980754E0,-5.070133556E0,1.423829644E1
1.115696404E1,-1.222044683E1,-1.067095222E0,-2.370029116E0,1.249380050E1
1.116697504E1,-1.104178147E1,-4.182723856E-1,8.137277663E-3,1.104970389E1
1.117698504E1,-9.386192640E0,-3.153868255E-1,1.981873692E0,9.598328212E0
1.118699504E1,-7.227525752E0,-6.641676843E-1,3.462659129E0,8.041657506E0
1.119700604E1,-4.363145542E0,-1.226404366E0,4.113410669E0,6.120559944E0
1.120701604E1,-1.124259356E0,-1.672647201E0,3.882731287E0,4.374621127E0
1.121702604E1,2.728956941E0,-1.775597811E0,2.789890483E0,4.287591687E0
1.122703604E1,6.755192349E0,-2.041870656E0,1.525228954E0,7.219984959E0
1.123704704E1,1.067145040E1,-2.183664612E0,6.555161440E-1,1.091228419E1
1.124705704E1,1.366903018E1,-2.031382798E0,4.622250286E-1,1.382687796E1
1.125706804E1,1.539358107E1,-1.181237988E0,1.206339354E0,1.548589410E1
1.126707804E1,1.597499311E1,1.216596539E-1,2.703977928E0,1.620267579E1
1.127708804E1,1.565456336E1,1.339273609E0,4.523880530E0,1.635006124E1
1.128709804E1,1.482153627E1,2.265076127E0,6.343453642E0,1.628029211E1
1.129710904E1,1.374352722E1,3.091517640E0,7.849936130E0,1.612648502E1
1.130711904E1,1.252419798E1,3.906392046E0,8.916773490E0,1.586266949E1
1.131712904E1,1.137995635E1,4.393508087E0,9.684566699E0,1.557553055E1
1.132714004E1,1.039976888E1,4.556056881E0,1.028522894E1,1.531988190E1
1.133715004E1,9.605431652E0,4.498334337E0,1.046047234E1,1.489700676E1
1.134716004E1,8.896435704E0,4.214437692E0,1.032321713E1,1.426453172E1
1.135717104E1,8.230401589E0,3.722622828E0,9.781076748E0,1.331416138E1
1.136718104E1,7.726818327E0,3.141613368E0,8.829664595E0,1.214645763E1
1.137719104E1,7.602893023E0,2.628286598E0,7.525791637E0,1.101587094E1
1.138720204E1,7.747763053E0,2.097671658E0,5.829950579E0,9.920503136E0
1.139721204E1,8.132444354E0,1.708068464E0,3.910729803E0,9.184114363E0
1.140722204E1,8.622476109E0,1.479733523E0,2.168676152E0,9.013315805E0
1.141723304E1,9.238660372E0,1.434168510E0,8.363412881E-1,9.386647514E0
1.142724304E1,9.825544238E0,1.689258555E0,1.232636914E-1,9.970461774E0
1.143725304E1,1.027380582E1,2.017114861E0,-1.325680733E-2,1.046995770E1
1.144726404E1,1.044718395E1,2.546086441E0,3.117679837E-1,1.075748149E1
1.145727404E1,1.031859783E1,3.148813922E0,8.541521993E-1,1.082211007E1
1.146728404E1,9.855870237E0,2.912076240E0,1.819835944E0,1.043696168E1
1.147729504E1,8.899533559E0,2.099160652E0,3.074220407E0,9.646709497E0
1.148730504E1,7.778039936E0,1.432966907E0,4.214621294E0,8.961826380E0
1.149731504E1,6.663575251E0,1.069164259E0,5.181254042E0,8.508333608E0
1.150732604E1,4.866787861E0,7.936671388E-1,6.089169928E0,7.835401842E0
1.151733604E1,2.808254541E0,1.007620268E0,5.976491743E0,6.679823780E0
1.152734604E1,1.123785147E0,1.178775579E0,4.710606100E0,4.984196500E0
1.153735704E1,-9.645841759E-1,9.890802088E-1,2.844782974E0,3.162513630E0
1.154736704E1,-3.190499307E0,5.802037141E-1,6.559979546E-1,3.308512580E0
1.155737704E1,-5.602886238E0,6.072713524E-2,-1.794165498E0,5.883455772E0
1.156738804E1,-8.245479219E0,-9.508204150E-1,-4.596319346E0,9.487788918E0
1.157739804E1,-1.125730282E1,-2.636407211E0,-7.181234515E0,1.361057085E1
1.158740804E1,-1.507582700E1,-4.888989739E0,-9.424438693E0,1.843916552E1
1.159741804E1,-1.939769354E1,-6.873276869E0,-1.108398199E1,2.337449692E1
1.160742904E1,-2.310508554E1,-8.008368777E0,-1.200697551E1,2.724236423E1
1.161743904E1,-2.520743556E1,-8.291061773E0,-1.207011257E1,2.915208621E1
1.162744904E1,-2.594619149E1,-8.018128949E0,-1.235254244E1,2.983421776E1
1.163746004E1,-2.601310703E1,-7.452440656E0,-1.272320680E1,2.990151502E1
1.164747004E1,-2.576041376E1,-6.973651342E0,-1.324006909E1,2.979144440E1
1.165748004E1,-2.450204617E1,-6.919467534E0,-1.358365967E1,2.885732329E1
1.166749104E1,-2.203869140E1,-7.025602684E0,-1.350769498E1,2.678657939E1
1.167750104E1,-1.938509747E1,-7.148525190E0,-1.271753734E1,2.426147506E1
1.168751104E1,-1.663081214E1,-6.928554107E0,-1.141366438E1,2.132745904E1
1.169752204E1,-1.404944770E1,-6.074790455E0,-9.728765802E0,1.813667400E1
1.170753204E1,-1.187364846E1,-4.762007803E0,-7.983222241E0,1.507952531E1
1.171754204E1,-9.581901287E0,-3.426407854E0,-6.003645043E0,1.181511138E1
1.172755304E1,-7.101312432E0,-2.515118710E0,-3.450023004E0,8.285959154E0
1.173756304E1,-4.654029318E0,-1.833709925E0,-6.251234865E-1,5.041156649E0
1.174757304E1,-1.762912715E0,-1.225263282E0,1.921513470E0,2.881205540E0
1.175758404E1,1.466405672E0,-5.589350519E-1,3.851315367E0,4.158771939E0
1.176759404E1,4.622430380E0,-1.241814119E-1,4.995037766E0,6.806811729E0
1.177760404E1,7.627368883E0,2.153696170E-1,5.797066423E0,9.582751132E0
1.178761504E1,1.032418777E1,5.404888406E-1,6.410394321E0,1.216446204E1
1.179762504E1,1.235704480E1,1.045117000E0,6.734480342E0,1.411176995E1
1.180763504E1,1.374058490E1,1.793115630E0,7.062013296E0,1.555284440E1
1.181764604E1,1.442738014E1,2.650686697E0,7.801798342E0,1.661455672E1
1.182765604E1,1.461461617E1,3.403402276E0,8.628511021E0,1.730957409E1
1.183766604E1,1.433434977E1,4.108950121E0,9.429241011E0,1.764277871E1
1.184767704E1,1.362601456E1,4.756735076E0,1.003680882E1,1.757931547E1
1.185768704E1,1.297168306E1,5.002770123E0,1.010199358E1,1.718553300E1
1.186769704E1,1.195702625E1,4.734260134E0,1.031166538E1,1.648375378E1
1.187770804E1,1.083170621E1,4.314365438E0,1.047885715E1,1.567628960E1
1.188771804E1,9.867710849E0,3.893700664E0,1.045930055E1,1.489730144E1
1.189772804E1,9.134364172E0,3.507501718E0,1.002734802E1,1.401024216E1
1.190773904E1,8.655770740E0,3.060365722E0,8.955769740E0,1.282552210E1
1.191774867E1,8.353317078E0,2.711394829E0,7.351299028E0,1.145299810E1
1.192775867E1,8.031395112E0,2.660411786E0,5.568380064E0,1.012857122E1
1.193776867E1,8.011361967E0,2.752063383E0,3.851778759E0,9.305480806E0
1.194777967E1,8.057704659E0,2.623011240E0,2.361973700E0,8.796914919E0
1.195778967E1,8.246221815E0,2.481853607E0,1.248798910E0,8.701682037E0
1.196779967E1,8.594277327E0,2.411143521E0,5.739828613E-1,8.944533089E0
1.197781067E1,8.913639967E0,2.157803401E0,6.420748571E-1,9.193549537E0
1.198782067E1,9.195934768E0,1.855346962E0,1.667761559E0,9.528323946E0
1.199783067E1,9.226534417E0,1.863274325E0,2.666756015E0,9.783267153E0
1.200784167E1,9.105114060E0,1.951967815E0,3.143187439E0,9.828169091E0
1.201785167E1,8.794830392E0,2.072063485E0,3.264264271E0,9.607180124E0
1.202786167E1,8.321484252E0,2.188603171E0,3.340809587E0,9.230281290E0
1.203787267E1,7.967897274E0,2.267998711E0,3.523278675E0,9.002482866E0
1.204788267E1,7.925350009E0,2.330682325E0,3.748315202E0,9.071555529E0
1.205789267E1,7.905516254E0,2.179704878E0,3.943400828E0,9.099379687E0
1.206790367E1,7.763123689E0,1.817220777E0,4.070174310E0,8.951798684E0
1.207791367E1,7.086726553E0,1.252165737E0,4.266265365E0,8.366040427E0
1.208792367E1,6.257008991E0,5.454937649E-1,4.717388285E0,7.855028783E0
1.209793467E1,5.230109868E0,-6.595363972E-1,5.128054905E0,7.354317412E0
1.210794467E1,2.609836294E0,-1.769685253E0,5.172651034E0,6.057998852E0
1.211795467E1,-1.955527015E0,-2.124627615E0,3.834814525E0,4.800409446E0
1.212796567E1,-6.895559438E0,-1.432072283E0,5.229308215E-1,7.062083803E0
1.213797567E1,-1.403285914E1,-4.679491603E-1,-5.091074774E0,1.493516503E1
1.214798567E1,-2.083248565E1,3.893848014E-1,-1.251067571E1,2.430352003E1
1.215799667E1,-2.535001406E1,-1.417737249E0,-1.683053900E1,3.046145490E1
1.216800667E1,-2.673738526E1,-4.329352436E0,-1.538269239E1,3.114896929E1
1.217801667E1,-2.618631793E1,-7.524415787E0,-1.147946076E1,2.956548831E1
1.218802767E1,-2.522873345E1,-1.076428197E1,-7.644125834E0,2.847439934E1
1.219803767E1,-2.348570420E1,-1.166796096E1,-5.456903483E0,2.678614213E1
1.220804767E1,-2.273201915E1,-1.136901738E1,-6.231646693E0,2.616930781E1
1.221805867E1,-2.202201046E1,-9.883676087E0,-8.550868767E0,2.560807206E1
1.222806867E1,-2.160337555E1,-7.990902559E0,-9.794044118E0,2.502965559E1
1.223807867E1,-2.128564487E1,-6.223778679E0,-1.001481510E1,2.433332324E1
1.224808967E1,-2.012918723E1,-4.765879537E0,-9.781001319E0,2.288155968E1
1.225809967E1,-1.762537441E1,-3.906506066E0,-8.706328105E0,2.004282320E1
1.226810967E1,-1.448561373E1,-3.406205139E0,-6.961105556E0,1.642839704E1
1.227811967E1,-1.150865591E1,-2.890020835E0,-5.039229852E0,1.289167246E1
1.228813067E1,-8.786421511E0,-2.190110291E0,-3.271862436E0,9.628232956E0
1.229814067E1,-6.364040519E0,-1.330383064E0,-1.954645255E0,6.789077176E0
1.230815067E1,-3.698973765E0,-5.756534109E-1,-1.106263673E0,3.903537252E0
1.231816167E1,-7.745865047E-1,-9.164048731E-2,-5.489351436E-1,9.537882491E-1
1.232817167E1,2.321348122E0,6.173958063E-2,1.700370312E-1,2.328386023E0
1.233818167E1,5.245296257E0,-5.624144375E-3,1.177606721E0,5.375864771E0
1.234819267E1,7.909833253E0,-6.483860493E-2,2.476190579E0,8.288617853E0
1.235820267E1,1.000275229E1,-1.720958358E-1,3.959122236E0,1.075915049E1
1.236821267E1,1.142703930E1,-1.823378187E-1,5.671422037E0,1.275835029E1
1.237822367E1,1.219958162E1,-7.494624808E-2,7.457569249E0,1.429862748E1
1.238823367E1,1.285495743E1,4.517981274E-1,9.298532352E0,1.587188571E1
1.239824367E1,1.334535873E1,1.410092015E0,1.095553504E1,1.732370362E1
1.240825467E1,1.363806450E1,2.379969383E0,1.191943918E1,1.826839040E1
1.241826467E1,1.411766248E1,3.163662926E0,1.210506840E1,1.886398256E1
1.242827467E1,1.431018323E1,3.665941674E0,1.209526262E1,1.909229819E1
1.243828567E1,1.375065030E1,3.773855840E0,1.215150464E1,1.873449857E1
1.244829567E1,1.295170897E1,3.644149394E0,1.185705173E1,1.793366292E1
1.245830567E1,1.187117158E1,3.429296671E0,1.156680647E1,1.692559607E1
1.246831667E1,1.084380644E1,3.059202418E0,1.117097570E1,1.586623949E1
1.247832667E1,1.030517146E1,2.775047033E0,1.053183293E1,1.499389708E1
1.248833667E1,1.000697632E1,2.428820823E0,9.471723372E0,1.399115039E1
1.249834767E1,9.718831968E0,1.960577548E0,8.205404742E0,1.286966301E1
1.250835767E1,9.373695386E0,1.655285648E0,6.890868217E0,1.175117869E1
1.251836767E1,9.011033530E0,1.594406193E0,5.584399096E0,1.072037171E1
1.252837867E1,8.425064169E0,1.769964750E0,4.297607610E0,9.622053452E0
1.253838867E1,8.012115088E0,2.025176855E0,3.095902175E0,8.824961176E0
1.254839867E1,7.837910746E0,2.282118860E0,2.316423013E0,8.485677753E0
1.255840967E1,7.532280877E0,2.480350288E0,1.835562615E0,8.139820814E0
1.256841967E1,7.143124117E0,2.541830545E0,1.767556866E0,7.785202756E0
1.257842967E1,6.699346762E0,2.408558467E0,1.958271991E0,7.383578408E0
1.258843967E1,6.474985004E0,2.143214013E0,2.099648894E0,7.136338178E0
1.259845067E1,6.631598582E0,1.704904535E0,1.929679106E0,7.113962376E0
1.260846067E1,6.776607776E0,1.017686542E0,1.808070177E0,7.087116241E0
1.261847067E1,6.652928056E0,5.210271142E-1,1.713677697E0,6.889819462E0
1.262848167E1,6.310144978E0,4.730719060E-1,1.506687140E0,6.504754631E0
1.263849167E1,5.475514001E0,4.408838609E-1,1.441829824E0,5.679305010E0
1.264850167E1,3.741396484E0,2.460486419E-1,1.391085640E0,3.999213278E0
1.265851267E1,1.749337819E0,-7.722724691E-2,7.102194777E-1,1.889592168E0
1.266852267E1,-9.031574214E-1,-9.619830421E-1,-1.035226142E-1,1.323563989E0
1.267853267E1,-5.095225128E0,-1.664937062E0,-1.134481751E0,5.479085998E0
1.268854367E1,-9.979534171E0,-1.213713570E0,-2.768214270E0,1.042723420E1
1.269855367E1,-1.498140616E1,-3.018312255E-1,-5.407077604E0,1.593016387E1
1.270856367E1,-1.888493015E1,4.804949462E-3,-8.230170039E0,2.060039584E1
1.271857467E1,-2.176068670E1,-9.281972453E-1,-8.878287701E0,2.352048104E1
1.272858467E1,-2.396922683E1,-2.946394426E0,-8.671193941E0,2.565920262E1
1.273859467E1,-2.600830997E1,-5.564383492E0,-8.665407536E0,2.797291259E1
1.274860567E1,-2.703121018E1,-7.688619052E0,-8.861838314E0,2.946749676E1
1.275861567E1,-2.642339446E1,-8.544899345E0,-9.867107416E0,2.947152674E1
1.276862567E1,-2.472385211E1,-8.251368535E0,-1.165129055E1,2.855007036E1
1.277863667E1,-2.268369308E1,-7.246329228E0,-1.311264773E1,2.718456823E1
1.278864667E1,-2.057802652E1,-5.827456741E0,-1.337688341E1,2.522608645E1
1.279865667E1,-1.867001691E1,-4.446815982E0,-1.244524771E1,2.287417527E1
1.280866767E1,-1.662564203E1,-3.332473796E0,-1.065957705E1,2.002857802E1
1.281867767E1,-1.433343410E1,-2.572938901E0,-8.314296269E0,1.676886609E1
1.282868767E1,-1.187653114E1,-2.040654874E0,-5.952596512E0,1.344059781E1
1.283869867E1,-9.393322735E0,-1.603473762E0,-3.620274335E0,1.019372485E1
1.284870867E1,-6.979833019E0,-1.196854000E0,-1.704465994E0,7.283936627E0
1.285871867E1,-4.561182550E0,-9.564908986E-1,-1.208522996E-1,4.661959499E0
1.286872967E1,-2.218633009E0,-5.898416796E-1,1.180781759E0,2.581567585E0
1.287873967E1,2.554309380E-1,-1.762263089E-1,2.142535590E0,2.164892475E0
1.288874967E1,2.847318619E0,-1.467114647E-1,2.768992534E0,3.974426654E0
1.289875967E1,5.655541584E0,-3.469274376E-1,3.328371097E0,6.571420198E0
1.290877067E1,8.402471112E0,-6.238623883E-1,4.196756881E0,9.412942865E0
1.291878029E1,1.051305401E1,-5.263701537E-1,5.500067629E0,1.187653628E1
1.292879029E1,1.191884978E1,-1.378279361E-1,6.636631866E0,1.364268519E1
1.293880129E1,1.296244797E1,6.568706515E-1,7.734937770E0,1.510912965E1
1.294881129E1,1.364080567E1,1.588001445E0,8.770322957E0,1.629453567E1
1.295882129E1,1.431198183E1,2.351576181E0,9.428357497E0,1.729903638E1
1.296883229E1,1.482235254E1,3.026039350E0,9.676132091E0,1.795791138E1
1.297884229E1,1.493095054E1,3.517572670E0,9.912597585E0,1.826379458E1
1.298885229E1,1.436147383E1,3.802249919E0,1.031911590E1,1.808848219E1
1.299886329E1,1.353480150E1,3.950943151E0,1.084875552E1,1.779034288E1
1.300887329E1,1.235821892E1,3.921632813E0,1.132808687E1,1.721715223E1
1.301888329E1,1.119848801E1,3.588706972E0,1.152868613E1,1.646801614E1
1.302889429E1,1.025560695E1,3.239784903E0,1.126326698E1,1.557353085E1
1.303890429E1,9.593420302E0,2.851058498E0,1.053597392E1,1.453165490E1
1.304891429E1,9.263937886E0,2.440470085E0,9.260561119E0,1.332420473E1
1.305892529E1,9.024276888E0,1.897050620E0,7.655522642E0,1.198513251E1
1.306893529E1,8.977021446E0,1.453220785E0,5.816113143E0,1.079471800E1
1.307894529E1,8.952838531E0,1.053861365E0,4.067907052E0,9.889985305E0
1.308895629E1,8.875202125E0,7.502267119E-1,2.767059152E0,9.326771641E0
1.309896629E1,8.734808139E0,5.893892513E-1,1.923975147E0,8.963589308E0
1.310897629E1,8.397717326E0,5.105829638E-1,1.517199265E0,8.548932381E0
1.311898729E1,7.993249047E0,5.539162405E-1,1.356896971E0,8.126501271E0
1.312899729E1,7.565032886E0,7.487804031E-1,1.326795797E0,7.716915300E0
1.313900729E1,7.143602419E0,1.043164469E0,1.502306699E0,7.374020142E0
1.314901829E1,6.819101831E0,1.145883822E0,1.904326456E0,7.172144642E0
1.315902829E1,6.506157680E0,8.802911536E-1,2.535422289E0,7.037994491E0
1.316903829E1,6.102705063E0,4.495804247E-1,3.130647792E0,6.873578925E0
1.317904829E1,5.557038220E0,1.085269538E-1,3.620419346E0,6.633241148E0
1.318905929E1,5.227752271E0,4.333912387E-2,3.640743391E0,6.370736576E0
1.319906929E1,4.938747790E0,-2.943964908E-1,3.154968116E0,5.867855046E0
1.320907929E1,3.927641997E0,-7.553286999E-1,2.442356250E0,4.686362892E0
1.321909029E1,1.825584927E0,-1.108000004E0,1.513062360E0,2.617208826E0
1.322910029E1,-1.558603399E0,-1.295379876E0,1.541863990E-1,2.032492811E0
1.323911029E1,-6.611254950E0,-1.300886784E0,-1.701919824E0,6.949642402E0
1.324912129E1,-1.290761278E1,-1.443483709E0,-4.213203929E0,1.365434730E1
1.325913129E1,-1.879115718E1,-1.720253476E0,-7.375670807E0,2.025999457E1
1.326914129E1,-2.347677667E1,-1.805538040E0,-1.011260510E1,2.562584227E1
1.327915229E1,-2.630809438E1,-2.522572448E0,-1.201993878E1,2.903374123E1
1.328916229E1,-2.695113140E1,-4.909303551E0,-1.264841272E1,3.017361578E1
1.329917229E1,-2.592197700E1,-7.844630951E0,-1.242048241E1,2.979522629E1
1.330918329E1,-2.416269950E1,-9.602151364E0,-1.216848145E1,2.870730393E1
1.331919329E1,-2.258936112E1,-9.877030141E0,-1.211914732E1,2.747196192E1
1.332920329E1,-2.055225434E1,-9.183137552E0,-1.266528662E1,2.582895001E1
1.333921429E1,-1.843724393E1,-8.296847008E0,-1.377734284E1,2.446599292E1
1.334922429E1,-1.692943646E1,-7.125260289E0,-1.400893351E1,2.310033271E1
1.335923429E1,-1.576707080E1,-5.742523010E0,-1.318445856E1,2.134026803E1
1.336924529E1,-1.498765450E1,-4.194770290E0,-1.128036891E1,1.922167027E1
1.337925529E1,-1.427327677E1,-2.790802648E0,-8.623162572E0,1.690780713E1
1.338926529E1,-1.298043049E1,-1.846972287E0,-5.717384076E0,1.430354373E1
1.339927629E1,-1.087302848E1,-9.884010547E-1,-3.553193615E0,1.148150120E1
1.340928629E1,-8.352864504E0,-5.422158158E-1,-1.826295948E0,8.567362505E0
1.341929629E1,-5.346492264E0,-4.704526457E-1,-3.038236642E-1,5.375743115E0
1.342930629E1,-1.875298539E0,-3.263604413E-1,9.001291484E-1,2.105585009E0
1.343931729E1,2.015313626E0,-2.279525328E-1,1.722813680E0,2.661115996E0
1.344932729E1,5.736660592E0,-4.690729952E-1,2.680557198E0,6.349385097E0
1.345933729E1,8.828254831E0,-5.610660696E-1,3.788722093E0,9.623268342E0
1.346934829E1,1.116799362E1,-4.094077143E-1,5.166792124E0,1.231208500E1
1.347935829E1,1.246746362E1,9.288594425E-2,7.122486370E0,1.435883313E1
1.348936829E1,1.310286885E1,9.299692440E-1,9.080969152E0,1.596915826E1
1.349937929E1,1.349342309E1,1.908588784E0,1.068383130E1,1.731644967E1
1.350938929E1,1.365843386E1,2.815484623E0,1.175995286E1,1.824215614E1
1.351939929E1,1.354315717E1,3.512552251E0,1.238933546E1,1.868825200E1
1.352941029E1,1.336388622E1,3.885998127E0,1.261994965E1,1.878716491E1
1.353942029E1,1.271680761E1,4.022706029E0,1.259313900E1,1.834356861E1
1.354943029E1,1.190782895E1,4.054583294E0,1.238242873E1,1.765107864E1
1.355944129E1,1.075957262E1,3.783192381E0,1.206720066E1,1.660416452E1
1.356945129E1,9.929692504E0,3.122535073E0,1.155838531E1,1.555459062E1
1.357946129E1,9.668122575E0,2.299409223E0,1.089623257E1,1.474746626E1
1.358947229E1,9.684835671E0,1.579740937E0,1.007977416E1,1.406746141E1
1.359948229E1,9.753696576E0,9.573535091E-1,9.337688817E0,1.353674832E1
1.360949229E1,9.973420322E0,5.760032205E-1,7.930717168E0,1.275527998E1
1.361950329E1,9.880676465E0,4.295493257E-1,6.048025410E0,1.159270854E1
1.362951329E1,9.448838539E0,5.065467770E-1,4.137677199E0,1.032751238E1
1.363952329E1,8.843617221E0,7.578147899E-1,2.486574649E0,9.217749307E0
1.364953429E1,8.212811995E0,1.097922328E0,1.326251421E0,8.391344179E0
1.365954429E1,7.722723522E0,1.517365180E0,8.122396499E-1,7.912179784E0
1.366955429E1,7.259243388E0,1.743472185E0,1.224661312E0,7.565454722E0
1.367956529E1,6.963829774E0,1.734039457E0,1.919209374E0,7.428673003E0
1.368957529E1,6.832083820E0,1.568254521E0,2.838605098E0,7.562702590E0
1.369958529E1,6.679766775E0,1.275776209E0,3.533437335E0,7.663685048E0
1.370959529E1,6.519025648E0,9.451793137E-1,3.835130274E0,7.622288603E0
1.371960629E1,5.998218827E0,7.091642015E-1,3.986583977E0,7.237015598E0
1.372961629E1,5.358427600E0,6.332633954E-1,3.830340235E0,6.617044294E0
1.373962629E1,4.766125120E0,5.939280063E-1,3.599630448E0,6.002169483E0
1.374963729E1,4.038813354E0,6.319463101E-1,3.095621216E0,5.127790963E0
1.375964729E1,2.815686936E0,3.627723688E-1,2.417416706E0,3.728753176E0
1.376965729E1,4.096161675E-1,-2.900626807E-1,1.653347296E0,1.727853884E0
1.377966829E1,-3.157455522E0,-8.596593994E-1,8.556034783E-1,3.382395152E0
1.378967829E1,-7.713587247E0,-7.965685272E-1,-1.365181598E0,7.873859945E0
1.379968829E1,-1.274119751E1,-2.080091420E-1,-5.692435176E0,1.395654685E1
1.380969929E1,-1.846455043E1,-4.080526221E-1,-1.007221956E1,2.103700873E1
1.381970929E1,-2.387948376E1,-8.843653473E-1,-1.174079505E1,2.662438948E1
1.382971929E1,-2.815255178E1,-2.171133737E0,-1.240327055E1,3.084025152E1
1.383973029E1,-3.091772813E1,-5.246579136E0,-1.155237203E1,3.341990133E1
1.384974029E1,-3.170254375E1,-8.562333988E0,-9.083950648E0,3.407173320E1
1.385975029E1,-3.019907024E1,-1.069581341E1,-7.636146723E0,3.293470821E1
1.386976129E1,-2.773477290E1,-1.107015333E1,-7.765006492E0,3.085548976E1
1.387977129E1,-2.442359525E1,-9.825762924E0,-9.971668496E0,2.815123078E1
1.388978129E1,-2.068831203E1,-8.179232605E0,-1.185369776E1,2.520746420E1
1.389979229E1,-1.759726801E1,-6.695161325E0,-1.163327762E1,2.213192659E1
1.390980229E1,-1.457512174E1,-5.229402940E0,-9.569583542E0,1.820323482E1
1.391981233E1,-1.133719216E1,-4.282064249E0,-6.800531659E0,1.389659063E1
1.392982333E1,-7.864605625E0,-3.605066897E0,-4.049766943E0,9.552441638E0
1.393983333E1,-4.382814991E0,-2.607570206E0,-1.947071357E0,5.458898835E0
1.394984333E1,-1.148225339E0,-1.615413923E0,-6.906163949E-1,2.098793600E0
1.395985433E1,1.822342061E0,-8.456371915E-1,3.856659722E-1,2.045671305E0
1.396986433E1,4.350688634E0,-4.323825940E-1,1.616537904E0,4.661399049E0
1.397987433E1,6.231026303E0,-1.779144001E-1,3.173747911E0,6.994999509E0
1.398988433E1,7.692574693E0,2.718602984E-1,4.884586785E0,9.116402881E0
1.399989533E1,8.910066733E0,8.609685910E-1,6.372304974E0,1.098803107E1
1.400990533E1,1.007458651E1,1.401514003E0,7.467225925E0,1.261828030E1
1.401991533E1,1.152087659E1,1.982236950E0,8.693309864E0,1.456823590E1
1.402992633E1,1.268513909E1,2.554097126E0,9.855800071E0,1.626569890E1
1.403993633E1,1.368104387E1,3.015311463E0,1.079577858E1,1.768648919E1
1.404994633E1,1.434187280E1,3.302187558E0,1.151615204E1,1.868730895E1
1.405995733E1,1.460847776E1,3.572061703E0,1.220476342E1,1.936810516E1
1.406996733E1,1.432724306E1,3.627713748E0,1.243428769E1,1.931428775E1
1.407997733E1,1.309171587E1,3.167678209E0,1.233937919E1,1.826711495E1
1.408998833E1,1.153138287E1,2.833642566E0,1.191062158E1,1.681859766E1
1.409999833E1,9.887517707E0,2.646990672E0,1.142338713E1,1.533829650E1
1.411000833E1,8.953854192E0,2.264664629E0,1.096959876E1,1.433988521E1
1.412001933E1,8.462961727E0,1.752312444E0,1.028184458E1,1.343162864E1
1.413002933E1,8.378206336E0,1.623050094E0,9.071649275E0,1.245485663E1
1.414003933E1,8.557646860E0,1.498376200E0,7.375134033E0,1.139609815E1
1.415005033E1,8.493318132E0,1.321070349E0,5.519907816E0,1.021523676E1
1.416006033E1,8.413234667E0,1.357606530E0,3.662796457E0,9.275866047E0
1.417007033E1,8.193047821E0,1.551351682E0,2.168320642E0,8.615935181E0
1.418008133E1,7.792487236E0,1.544665976E0,1.001300597E0,8.006962794E0
1.419009133E1,7.649708170E0,1.395364487E0,2.036719698E-1,7.778596237E0
1.420010133E1,7.527457509E0,1.165827943E0,1.185642841E-1,7.618125021E0
1.421011133E1,7.264091315E0,8.656298451E-1,6.223065904E-1,7.341907324E0
1.422012233E1,7.129405965E0,6.626349829E-1,1.265814015E0,7.271162194E0
1.423013233E1,7.048885127E0,4.588128859E-1,1.799611595E0,7.289437063E0
1.424014233E1,6.891560528E0,5.778744757E-1,2.156519791E0,7.244178561E0
1.425015333E1,6.781451610E0,8.633355439E-1,2.373820451E0,7.236605401E0
1.426016333E1,6.476732737E0,9.537304281E-1,2.481512130E0,7.001112135E0
1.427017333E1,6.149089855E0,1.204546597E0,2.605623375E0,6.786126415E0
1.428018433E1,5.432946271E0,1.417015118E0,2.849880284E0,6.296558954E0
1.429019433E1,4.181922787E0,1.386159215E0,3.489499311E0,5.620188699E0
1.430020433E1,2.462261927E0,1.088654345E0,4.404650833E0,5.162252516E0
1.431021533E1,-6.345760953E-1,6.435211658E-1,4.915047271E0,4.997448948E0
1.432022533E1,-5.532124988E0,-1.049025571E-1,4.501871318E0,7.133179992E0
1.433023533E1,-1.258758648E1,-5.710708018E-1,3.126260042E0,1.298256358E1
1.434024633E1,-2.106884648E1,-1.341561186E0,-1.126524568E0,2.114154999E1
1.435025633E1,-2.832734611E1,-2.875334968E0,-8.196533931E0,2.962919602E1
1.436026633E1,-3.249963385E1,-4.256542322E0,-1.554557593E1,3.627684226E1
1.437027733E1,-3.283334614E1,-5.391001854E0,-2.140587298E1,3.956390928E1
1.438028733E1,-2.878530471E1,-6.777587770E0,-2.333914958E1,3.767287309E1
1.439029733E1,-2.326297440E1,-8.589611834E0,-2.090594539E1,3.243464139E1
1.440030833E1,-1.862571372E1,-9.238819417E0,-1.630747983E1,2.642360487E1
1.441031833E1,-1.522431353E1,-8.479805217E0,-1.183349680E1,2.106462593E1
1.442032833E1,-1.351238211E1,-7.719107603E0,-8.865241978E0,1.790981875E1
1.443033933E1,-1.321712461E1,-6.216445101E0,-6.761716672E0,1.609525971E1
1.444034933E1,-1.375295293E1,-4.173494611E0,-5.398033131E0,1.535254159E1
1.445035933E1,-1.428340298E1,-2.030611258E0,-3.759953207E0,1.490893125E1
1.446036933E1,-1.407521871E1,-3.791732240E-1,-2.036364772E0,1.422681748E1
1.447038033E1,-1.268372640E1,6.867402756E-1,-3.553519598E-1,1.270727361E1
1.448039033E1,-1.008959397E1,7.676309493E-1,5.741030216E-1,1.013502630E1
1.449040033E1,-7.170905993E0,2.197383642E-2,6.599799085E-1,7.201246357E0
1.450041133E1,-4.182967685E0,-7.222594795E-1,2.437891316E-1,4.251859658E0
1.451042133E1,-1.164992230E0,-5.175908518E-1,-2.408763412E-1,1.297354461E0
1.452043133E1,1.737091995E0,5.219458580E-2,-7.846191573E-1,1.906787901E0
1.453044233E1,4.541979125E0,5.292129238E-1,-1.168143002E0,4.719554932E0
1.454045233E1,7.346469812E0,6.065984841E-1,-1.031476323E0,7.443287166E0
1.455046233E1,1.007998700E1,4.658600964E-1,-5.989019403E-1,1.010850370E1
1.456047333E1,1.264701992E1,4.309147967E-1,3.371872920E-1,1.265885049E1
1.457048333E1,1.444703731E1,6.998444706E-1,1.945030094E0,1.459417046E1
1.458049333E1,1.567714530E1,1.130147502E0,3.932792809E0,1.620237567E1
1.459050433E1,1.614664865E1,1.677783833E0,6.371977530E0,1.743936120E1
1.460051433E1,1.605288270E1,2.345860820E0,8.675569997E0,1.839738081E1
1.461052433E1,1.570686787E1,2.870159597E0,1.030517964E1,1.900369022E1
1.462053533E1,1.490581570E1,3.228340148E0,1.121300431E1,1.892979100E1
1.463054533E1,1.372019683E1,3.434625238E0,1.157697595E1,1.827749500E1
1.464055533E1,1.221472825E1,3.505229198E0,1.125687714E1,1.697655739E1
1.465056633E1,1.044444863E1,3.641009731E0,1.052055832E1,1.526517627E1
1.466057633E1,8.627371983E0,3.660451431E0,9.282941921E0,1.319103721E1
1.467058633E1,7.290667495E0,3.803939179E0,7.818730710E0,1.134708490E1
1.468059633E1,6.588411047E0,3.967752142E0,6.339480459E0,9.966906726E0
1.469060733E1,6.195487511E0,3.559850670E0,4.872906972E0,8.648804811E0
1.470061733E1,6.557125520E0,3.036601760E0,3.625486543E0,8.084614896E0
1.471062733E1,7.147950994E0,2.101449544E0,2.453501336E0,7.844039929E0
1.472063833E1,8.076880018E0,1.467017291E0,1.429577861E0,8.332576037E0
1.473064833E1,8.993634555E0,1.005826488E0,6.959230354E-1,9.076423211E0
1.474065833E1,9.757845175E0,6.161836785E-1,3.273294711E-1,9.782758781E0
1.475066933E1,1.015919455E1,4.709867889E-1,4.301203063E-1,1.017919771E1
1.476067933E1,1.018682030E1,5.054669425E-1,5.338811946E-1,1.021331650E1
1.477068933E1,9.981771315E0,6.955748338E-1,5.243782997E-1,1.001970836E1
1.478070033E1,9.564697609E0,8.060813624E-1,7.054972664E-1,9.624496553E0
1.479071033E1,8.889655273E0,8.434275287E-1,1.027617453E0,8.988511473E0
1.480072033E1,7.982573200E0,8.901383033E-1,1.312575953E0,8.138591815E0
1.481073133E1,6.933914250E0,8.081392899E-1,1.474003544E0,7.134769960E0
1.482074133E1,6.089168174E0,5.274992511E-1,1.821535730E0,6.377634116E0
1.483075133E1,5.068449558E0,-1.192375910E-1,2.335719117E0,5.582023138E0
1.484076233E1,3.208856640E0,-8.275552619E-1,2.839420785E0,4.363933895E0
1.485077233E1,5.141819251E-1,-1.057562506E0,2.829498937E0,3.064128871E0
1.486078233E1,-3.085720711E0,-1.058369568E0,1.952778824E0,3.801994685E0
1.487079333E1,-7.109450002E0,-4.478209975E-1,-3.368616021E-1,7.131500454E0
1.488080333E1,-1.111252576E1,5.608826132E-1,-3.625437134E0,1.170241909E1
1.489081333E1,-1.446135714E1,1.381276352E0,-6.762362205E0,1.602399193E1
1.490082433E1,-1.772176225E1,1.870204445E0,-7.896898627E0,1.949152456E1
1.491083433E1,-2.187174170E1,1.124968477E0,-7.833510132E0,2.325946087E1
1.492084492E1,-2.654678240E1,-1.581731183E0,-6.902163284E0,2.747495928E1
1.493085492E1,-3.111647499E1,-4.999496267E0,-5.659876710E0,3.201974677E1
1.494086592E1,-3.384997112E1,-7.200748428E0,-6.767303687E0,3.526283769E1
1.495087592E1,-3.315409165E1,-7.485995488E0,-1.080961894E1,3.566625552E1
1.496088592E1,-2.913642066E1,-7.174675693E0,-1.624267280E1,3.412083527E1
1.497089692E1,-2.314913378E1,-7.014241544E0,-2.027386372E1,3.156123460E1
1.498090692E1,-1.802729447E1,-6.831155866E0,-2.062281152E1,2.823027437E1
1.499091692E1,-1.464522401E1,-6.025373297E0,-1.768283032E1,2.373752720E1
1.500092792E1,-1.219463254E1,-5.244874088E0,-1.371281764E1,1.908557399E1
1.501093792E1,-1.004999546E1,-4.678110491E0,-9.212994604E0,1.441410407E1
1.502094792E1,-7.676588405E0,-3.801593569E0,-4.265027217E0,9.569356320E0
1.503095892E1,-5.805572952E0,-2.698176613E0,-1.793379048E-1,6.404451297E0
1.504096892E1,-4.106112467E0,-1.168732109E0,2.294501216E0,4.846733969E0
1.505097892E1,-1.955619401E0,1.747354151E-1,3.055902542E0,3.632288542E0
1.506098992E1,5.789638120E-1,6.716636686E-1,3.151237885E0,3.273626641E0
1.507099992E1,3.510233830E0,2.945232292E-1,3.836549101E0,5.208415736E0
1.508100992E1,6.502366930E0,-3.770726117E-1,5.024788399E0,8.226266340E0
1.509102092E1,8.886220034E0,-5.009705798E-1,5.914779060E0,1.068646290E1
1.510103092E1,1.071827140E1,4.397990562E-2,6.089587419E0,1.232746328E1
1.511104092E1,1.230619624E1,7.292825702E-1,6.541194781E0,1.395569949E1
1.512105192E1,1.333622772E1,1.345230898E0,7.352825736E0,1.528818702E1
1.513106192E1,1.412796294E1,1.556349151E0,8.246368580E0,1.643241170E1
1.514107192E1,1.448879228E1,1.434382664E0,9.255348911E0,1.725236328E1
1.515108192E1,1.474746140E1,1.525885304E0,1.022930617E1,1.801262470E1
1.516109292E1,1.453061390E1,1.820656016E0,1.125095508E1,1.846720117E1
1.517110292E1,1.339337957E1,1.724183390E0,1.170367575E1,1.786984753E1
1.518111292E1,1.204879830E1,1.517797435E0,1.137666086E1,1.664048262E1
1.519112392E1,1.098416066E1,1.699335939E0,1.064807791E1,1.539224127E1
1.520113392E1,1.017775946E1,1.808463256E0,9.569232125E0,1.408643072E1
1.521114392E1,9.720811250E0,1.810508320E0,8.586228635E0,1.309562652E1
1.522115492E1,9.693127023E0,1.627880917E0,7.716557633E0,1.249607816E1
1.523116492E1,9.944820421E0,1.206411567E0,6.808821841E0,1.211259415E1
1.524117492E1,1.020244523E1,6.083419776E-1,5.965481436E0,1.183414287E1
1.525118592E1,1.029057096E1,-2.251178026E-4,5.224885966E0,1.154102613E1
1.526119592E1,9.984668026E0,4.976053610E-2,4.090187283E0,1.079007431E1
1.527120592E1,9.464065858E0,3.669848491E-1,2.679867226E0,9.843013197E0
1.528121692E1,8.623001189E0,4.267749681E-1,1.650223713E0,8.789853508E0
1.529122692E1,7.797221142E0,6.749464417E-1,1.248363000E0,7.925315162E0
1.530123692E1,7.245396597E0,1.146308183E0,1.092227432E0,7.416384231E0
1.531124792E1,6.862284104E0,1.495563105E0,1.270951964E0,7.137434484E0
1.532125792E1,6.832665033E0,1.497205880E0,1.997625799E0,7.274437829E0
1.533126792E1,7.109923627E0,1.278782555E0,2.527220399E0,7.653309202E0
1.534127892E1,7.345434855E0,8.192071921E-1,2.835090337E0,7.916075470E0
1.535128892E1,7.243123784E0,6.426019835E-1,3.326909001E0,7.996505672E0
1.536129892E1,6.849380468E0,7.626187161E-1,3.654270924E0,7.800595880E0
1.537130892E1,6.292600408E0,9.357483396E-1,3.355432596E0,7.192452485E0
1.538131992E1,5.288504841E0,9.515109712E-1,2.382076135E0,5.877749850E0
1.539132992E1,4.181787132E0,3.075980419E-1,1.096860181E0,4.334173789E0
1.540133992E1,2.833561290E0,-2.180964661E-1,7.437029734E-1,2.937640169E0
1.541135092E1,3.495325184E-1,8.292585558E-1,1.559570528E0,1.800584063E0
1.542136092E1,-3.582247553E0,2.113114155E0,2.515083919E0,4.860390527E0
1.543137092E1,-7.536123083E0,2.998837226E0,2.703110201E0,8.549443291E0
1.544138192E1,-1.158128417E1,3.127024273E0,1.880932331E-1,1.199749153E1
1.545139192E1,-1.462553409E1,2.171928374E0,-5.015291351E0,1.561334902E1
1.546140192E1,-1.683910283E1,3.985886112E-1,-8.865059545E0,1.903427271E1
1.547141292E1,-2.147099926E1,-1.887742876E0,-9.645324866E0,2.361354853E1
1.548142292E1,-2.733430178E1,-4.182294086E0,-1.053050444E1,2.958964618E1
1.549143292E1,-2.970839997E1,-5.899838254E0,-1.246138719E1,3.275184409E1
1.550144392E1,-2.833109300E1,-7.106083760E0,-1.474603117E1,3.271991278E1
1.551145392E1,-2.604435455E1,-6.937030815E0,-1.541245822E1,3.104794146E1
1.552146392E1,-2.355733727E1,-6.604746414E0,-1.396357081E1,2.817005722E1
1.553147492E1,-2.051974849E1,-6.593868839E0,-1.127685357E1,2.432502027E1
1.554148492E1,-1.751342245E1,-6.344478074E0,-8.344704130E0,2.041093959E1
1.555149492E1,-1.537967873E1,-6.103283937E0,-5.839963936E0,1.754678807E1
1.556150492E1,-1.394522809E1,-5.593624249E0,-4.378722525E0,1.565027890E1
1.557151592E1,-1.304509602E1,-4.919703993E0,-3.830475306E0,1.445858080E1
1.558152592E1,-1.213186852E1,-3.768125568E0,-4.011585209E0,1.332193004E1
1.559153592E1,-1.147148516E1,-2.595778711E0,-4.447642486E0,1.257436132E1
1.560154692E1,-1.095271668E1,-1.158581050E0,-4.816790074E0,1.202105566E1
1.561155692E1,-8.569228440E0,-4.754948460E-1,-4.404548214E0,9.646647935E0
1.562156692E1,-5.123267205E0,-6.526340514E-1,-3.133462349E0,6.040892678E0
1.563157792E1,-1.363277745E0,-7.919509810E-1,-1.653790807E0,2.284893126E0
1.564158792E1,2.593843575E0,-1.084565240E0,-5.896987152E-1,2.872638304E0
1.565159792E1,6.396073905E0,-2.009124494E0,7.411699596E-1,6.745048224E0
1.566160892E1,9.470073287E0,-2.730046569E0,3.030869150E0,1.031123708E1
1.567161892E1,1.159256696E1,-2.347569522E0,5.678733396E0,1.312046891E1
1.568162892E1,1.276132363E1,-1.180978225E0,8.079646336E0,1.515014110E1
1.569163992E1,1.349472585E1,2.115931928E-1,9.863664576E0,1.671658687E1
1.570164992E1,1.416276323E1,1.357214328E0,1.114979825E1,1.807605858E1
1.571165992E1,1.482520832E1,2.208387079E0,1.177993631E1,1.906385781E1
1.572167092E1,1.517517002E1,2.876260875E0,1.214150474E1,1.964624135E1
1.573168092E1,1.518845139E1,3.494025348E0,1.223557942E1,1.981430474E1
1.574169092E1,1.500476696E1,3.980925626E0,1.200770758E1,1.962589722E1
1.575170192E1,1.444058315E1,3.981868490E0,1.140501050E1,1.882710766E1
1.576171192E1,1.349704369E1,3.690024894E0,1.058887485E1,1.754738564E1
1.577172192E1,1.258421731E1,3.139941064E0,9.574959472E0,1.612146408E1
1.578173192E1,1.155202354E1,2.389935962E0,8.275122263E0,1.440967349E1
1.579174292E1,1.073517804E1,1.853917172E0,7.169164692E0,1.304139481E1
1.580175292E1,9.768233339E0,1.541819259E0,6.105364376E0,1.162200772E1
1.581176292E1,9.063335119E0,1.292436973E0,4.879718978E0,1.037429969E1
1.582177392E1,8.361576270E0,1.463918997E0,3.548833639E0,9.200719361E0
1.583178392E1,7.500552131E0,1.868352631E0,2.122317088E0,8.015812725E0
1.584179392E1,6.956854046E0,2.098781752E0,1.063150690E0,7.343908527E0
1.585180492E1,6.728208033E0,2.012696266E0,5.498285982E-1,7.044291383E0
1.586181492E1,6.533288176E0,1.861698792E0,6.893785393E-1,6.828251574E0
1.587182492E1,6.315222116E0,1.740554863E0,1.146042281E0,6.650186051E0
1.588183592E1,6.355215316E0,1.440368021E0,1.466615002E0,6.679399772E0
1.589184592E1,6.516658695E0,9.497841422E-1,1.638878361E0,6.786372576E0
1.590185592E1,6.771927665E0,4.937793817E-1,1.817569271E0,7.028967238E0
1.591186692E1,6.927172995E0,2.370138167E-1,1.942137769E0,7.198180351E0
1.592187679E1,6.897128831E0,8.243623897E-2,1.689248030E0,7.101460466E0
1.593188679E1,6.744029430E0,4.981155306E-2,1.439664893E0,6.896161914E0
1.594189779E1,6.326673303E0,2.748138732E-1,1.223695936E0,6.449786778E0
1.595190779E1,5.461009982E0,3.415629096E-1,1.432623676E0,5.656121095E0
1.596191779E1,3.852857278E0,6.435666279E-1,1.978625564E0,4.378772240E0
1.597192779E1,2.461301229E0,1.080107908E0,2.235750732E0,3.496171931E0
1.598193879E1,-7.980396867E-2,1.269137573E0,2.936383992E0,3.199910905E0
1.599194879E1,-3.907895365E0,1.756138716E0,3.667092406E0,5.639435795E0
1.600195879E1,-8.673462076E0,2.345873391E0,3.584599888E0,9.673749154E0
1.601196979E1,-1.348704495E1,2.816180734E0,2.106380209E0,1.393800893E1
1.602197979E1,-1.750458146E1,2.528901766E0,-1.045774227E0,1.771720519E1
1.603198979E1,-2.122811294E1,1.604454340E0,-4.699503114E0,2.180120140E1
1.604200079E1,-2.507629186E1,-3.528057897E-1,-8.611056497E0,2.651594199E1
1.605201079E1,-2.756427745E1,-3.794665788E0,-1.250935424E1,3.050693074E1
1.606202079E1,-2.733781245E1,-7.527037679E0,-1.547623380E1,3.230365456E1
1.607203179E1,-2.510896844E1,-9.569968289E0,-1.870813257E1,3.274200381E1
1.608204179E1,-2.274431701E1,-9.331587832E0,-2.059322928E1,3.206966760E1
1.609205179E1,-2.087215083E1,-7.566757230E0,-1.963069573E1,2.963556495E1
1.610206279E1,-1.996384902E1,-5.923556900E0,-1.662097011E1,2.664395694E1
1.611207279E1,-1.913867358E1,-4.877359042E0,-1.288802110E1,2.358343795E1
1.612208279E1,-1.794305948E1,-4.029660707E0,-8.960451021E0,2.045681382E1
1.613209379E1,-1.642990532E1,-3.183815939E0,-5.508392894E0,1.761876457E1
1.614210379E1,-1.433495671E1,-2.452797039E0,-2.595172354E0,1.477301989E1
1.615211379E1,-1.157913006E1,-1.731874525E0,-4.988306451E-1,1.171855257E1
1.616212379E1,-8.632213477E0,-1.281277416E0,8.343371549E-1,8.766578570E0
1.617213479E1,-5.240177019E0,-1.120431184E0,1.511449113E0,5.567701469E0
1.618214479E1,-1.397557631E0,-1.149773243E0,1.694656705E0,2.479315872E0
1.619215479E1,2.271201816E0,-9.453605774E-1,1.315349872E0,2.789661198E0
1.620216579E1,5.459937018E0,-6.665682587E-1,5.679742625E-1,5.529721534E0
1.621217579E1,8.282468120E0,-8.684704225E-1,2.694318035E-1,8.332233346E0
1.622218579E1,1.035848754E1,-1.606482739E0,9.689163780E-1,1.052700574E1
1.623219679E1,1.137454066E1,-2.127718015E0,2.683740422E0,1.187896552E1
1.624220679E1,1.199996002E1,-1.897464895E0,4.798603479E0,1.306238909E1
1.625221679E1,1.184600049E1,-7.143844494E-1,7.065887661E0,1.381176459E1
1.626222779E1,1.122112493E1,8.192270726E-1,9.302385668E0,1.459860119E1
1.627223779E1,1.082123619E1,2.237061093E0,1.143311456E1,1.590030514E1
1.628224779E1,1.104493195E1,3.471351015E0,1.314328013E1,1.751532506E1
1.629225879E1,1.146952634E1,4.110287087E0,1.405230348E1,1.859870230E1
1.630226879E1,1.129542433E1,4.368101642E0,1.426451180E1,1.871211424E1
1.631227879E1,1.116750596E1,4.265097091E0,1.404071079E1,1.844033085E1
1.632228979E1,1.129679024E1,3.444551764E0,1.375760030E1,1.813157391E1
1.633229979E1,1.113376518E1,2.742358467E0,1.326039869E1,1.753052853E1
1.634230979E1,1.057870538E1,2.319887488E0,1.183867744E1,1.604509797E1
1.635231979E1,1.067404773E1,2.109233066E0,9.927909104E0,1.472913909E1
1.636233079E1,1.066180250E1,1.577835914E0,7.486739253E0,1.312306608E1
1.637234079E1,1.026212309E1,1.245486609E0,5.014164008E0,1.148931015E1
1.638235079E1,9.495622112E0,1.171283395E0,2.955423111E0,1.001365417E1
1.639236179E1,8.663297861E0,1.068552494E0,1.336466799E0,8.830666892E0
1.640237179E1,7.885215306E0,1.052773637E0,4.175672114E-1,7.966135520E0
1.641238179E1,6.964075357E0,9.376191562E-1,1.736488563E-1,7.029056067E0
1.642239279E1,5.840745124E0,7.588959400E-1,4.501999372E-1,5.907021807E0
1.643240279E1,4.807407047E0,5.714501399E-1,8.729571372E-1,4.919326371E0
1.644241279E1,4.272947563E0,6.829582965E-1,1.220727305E0,4.496074739E0
1.645242379E1,4.461615577E0,1.125933999E0,8.782114452E-1,4.684548673E0
1.646243379E1,5.153349960E0,1.725518748E0,-1.480184636E-1,5.436574310E0
1.647244379E1,6.000088767E0,1.915511010E0,-1.357705933E0,6.443105854E0
1.648245479E1,6.810744406E0,1.247621281E0,-1.651937532E0,7.118405428E0
1.649246479E1,7.305731091E0,4.830316146E-1,-6.967281970E-1,7.354757406E0
1.650247479E1,7.481127681E0,-2.012006441E-1,1.024933873E0,7.553690655E0
1.651248479E1,6.368221863E0,-6.570814437E-1,3.307488644E0,7.205934141E0
1.652249579E1,4.114017903E0,-4.996960330E-1,5.987630104E0,7.281933376E0
1.653250579E1,1.214942654E0,-6.588335618E-1,6.945529743E0,7.081703943E0
1.654251579E1,-1.958899689E0,-3.587351587E-1,5.964061732E0,6.287766794E0
1.655252679E1,-4.418453186E0,6.804609507E-2,3.635087671E0,5.721994513E0
1.656253679E1,-5.993188468E0,-6.839341968E-3,7.151182750E-1,6.035706167E0
1.657254679E1,-7.432519192E0,-5.214084989E-1,-2.062218236E0,7.730908900E0
1.658255779E1,-9.938297267E0,-2.109772179E0,-4.626146286E0,1.116342782E1
1.659256779E1,-1.601803096E1,-3.720980346E0,-6.858733674E0,1.781755421E1
1.660257779E1,-2.483327456E1,-5.583775198E0,-8.781390567E0,2.692550633E1
1.661258879E1,-3.153221436E1,-7.523379661E0,-1.073177145E1,3.414751385E1
1.662259879E1,-3.348024466E1,-8.318250157E0,-1.414916260E1,3.728697991E1
1.663260879E1,-3.173309428E1,-7.795702035E0,-1.799714038E1,3.730495014E1
1.664261979E1,-2.831923485E1,-5.985379511E0,-1.990753332E1,3.512995464E1
1.665262979E1,-2.477003108E1,-4.588544596E0,-1.936069587E1,3.177177561E1
1.666263979E1,-2.132774248E1,-4.065571090E0,-1.642807046E1,2.722651220E1
1.667265079E1,-1.822005495E1,-4.255847965E0,-1.253364708E1,2.252054514E1
1.668266079E1,-1.490567069E1,-4.087333549E0,-8.997185569E0,1.788392189E1
1.669267079E1,-1.160889940E1,-3.106128078E0,-5.945345964E0,1.340752459E1
1.670268079E1,-8.794509380E0,-2.075886979E0,-3.624153670E0,9.735871394E0
1.671269179E1,-6.016020091E0,-1.308775848E0,-2.128311945E0,6.514223184E0
