"Time (s)","Linear Acceleration x (m/s^2)","Linear Acceleration y (m/s^2)","Linear Acceleration z (m/s^2)","Absolute acceleration (m/s^2)"
9.955696000E-3,-1.976156235E-2,-4.712789133E-2,-2.511692047E-2,5.694222670E-2
1.465772800E-2,-5.045795441E-2,-9.811185300E-2,-2.372264862E-2,1.128481498E-1
1.945548800E-2,-8.371114731E-2,-1.436567307E-1,-4.144668579E-3,1.663189428E-1
2.425324900E-2,-1.241092682E-1,-1.791140437E-1,3.023910522E-2,2.199985332E-1
2.905100900E-2,-1.728181839E-1,-2.034975290E-1,5.240249634E-2,2.720723996E-1
3.384876900E-2,-2.208251953E-1,-2.072551250E-1,5.913639069E-2,3.085701970E-1
3.864647800E-2,-2.559514046E-1,-1.934014559E-1,5.029296875E-2,3.247223850E-1
4.344423800E-2,-2.860894203E-1,-1.707710624E-1,2.695178986E-2,3.342698179E-1
4.824199900E-2,-2.967767715E-1,-1.425852478E-1,-1.893329620E-2,3.297961108E-1
5.303975900E-2,-2.960128784E-1,-1.141516864E-1,-1.016168594E-1,3.331369355E-1
5.783751900E-2,-2.799277306E-1,-7.720834017E-2,-2.084145546E-1,3.574315161E-1
6.263522800E-2,-2.483668327E-1,-3.089392185E-2,-3.471608162E-1,4.279733056E-1
6.743298800E-2,-1.534848213E-1,7.472175360E-2,-5.136518478E-1,5.412754859E-1
7.223074900E-2,-7.410144806E-2,1.858644187E-1,-6.804394722E-1,7.092492383E-1
7.702850900E-2,-1.128101349E-2,2.446401715E-1,-8.018193245E-1,8.383855342E-1
8.182621700E-2,3.706932068E-2,2.091628909E-1,-9.188289642E-1,9.430641097E-1
8.662397800E-2,5.268621445E-2,1.498973966E-1,-1.072009087E0,1.083719774E0
9.142173800E-2,6.778955460E-2,9.639909863E-2,-1.151908398E0,1.157921054E0
9.621949900E-2,3.065156937E-2,5.514740944E-2,-1.104372025E0,1.106172827E0
1.010172590E-1,-4.292726517E-2,-1.018518209E-2,-1.051244259E0,1.052169654E0
1.058149670E-1,-1.348342896E-1,-9.070998430E-2,-1.007672787E0,1.020692428E0
1.106127280E-1,-3.443408012E-1,-1.694890857E-1,-9.927577972E-1,1.064361396E0
1.154104880E-1,-5.235056877E-1,-2.298282385E-1,-9.000782967E-1,1.066311476E0
1.202082490E-1,-6.423664093E-1,-2.693374157E-1,-7.625546455E-1,1.032795640E0
1.250059570E-1,-7.191953659E-1,-2.832692862E-1,-6.179909706E-1,9.896445334E-1
1.298037170E-1,-7.593150139E-1,-2.781680822E-1,-4.885473251E-1,9.447831821E-1
1.346014780E-1,-7.702088356E-1,-2.738826275E-1,-3.588871956E-1,8.927672503E-1
1.393992380E-1,-7.451739311E-1,-2.869575024E-1,-2.326622009E-1,8.317214050E-1
1.441969990E-1,-6.804275513E-1,-3.169956207E-1,-9.990406036E-2,7.572639549E-1
1.489947070E-1,-5.954699516E-1,-3.680529594E-1,2.815246582E-2,7.005997471E-1
1.537924670E-1,-4.859824181E-1,-4.324765205E-1,1.452546120E-1,6.665686415E-1
1.585902280E-1,-3.920059204E-1,-5.307446718E-1,2.474532127E-1,7.046925860E-1
1.633879880E-1,-2.638573647E-1,-6.382870674E-1,3.475828171E-1,7.732043094E-1
1.681856960E-1,-1.162180901E-1,-7.100392580E-1,4.579420090E-1,8.528618153E-1
1.729834570E-1,3.606271744E-2,-7.506389618E-1,5.946216583E-1,9.582975984E-1
1.777812170E-1,1.707592010E-1,-7.711656094E-1,7.748398781E-1,1.106450152E0
1.825789780E-1,2.889728546E-1,-7.867995501E-1,9.961576462E-1,1.301878988E0
1.873767380E-1,3.873314857E-1,-8.074321747E-1,1.242394924E0,1.531508258E0
1.921744460E-1,4.864974022E-1,-8.403785229E-1,1.458732128E0,1.752374163E0
1.969722070E-1,5.811052322E-1,-8.693708181E-1,1.659414291E0,1.961413954E0
2.017699670E-1,6.753215790E-1,-8.906973600E-1,1.853555202E0,2.164501770E0
2.065677280E-1,7.704024315E-1,-9.056973457E-1,2.037647247E0,2.359197722E0
2.113654360E-1,9.310655594E-1,-7.937617302E-1,2.291763306E0,2.597906813E0
2.161631960E-1,1.148780346E0,-5.314407349E-1,2.570563793E0,2.865296451E0
2.209609570E-1,1.238200188E0,-3.805619478E-1,2.671094894E0,2.968621740E0
2.257587170E-1,1.169326782E0,-3.898515701E-1,2.626897335E0,2.901706219E0
2.305564780E-1,1.108622074E0,-4.659892321E-1,2.534569263E0,2.805393060E0
2.353541860E-1,1.130986214E0,-5.263288021E-1,2.430307388E0,2.731766063E0
2.401519460E-1,1.182310104E0,-4.955298901E-1,2.331634521E0,2.660813146E0
2.449497070E-1,1.244345665E0,-3.840758801E-1,2.255070686E0,2.604084141E0
2.497474670E-1,1.304520607E0,-2.504932880E-1,2.184922695E0,2.557031108E0
2.545452280E-1,1.393453598E0,-1.420327425E-1,2.130370140E0,2.549580978E0
2.593429360E-1,1.471391201E0,-4.615116119E-2,2.089630127E0,2.556105644E0
2.641406960E-1,1.558146954E0,5.385601521E-2,2.058769703E0,2.582490095E0
2.689384570E-1,1.577226639E0,1.251310110E-1,1.966407299E0,2.523897642E0
2.737362170E-1,1.549890995E0,1.331356764E-1,1.810811520E0,2.387242251E0
2.785339260E-1,1.531629086E0,1.003170013E-1,1.650601864E0,2.253982624E0
2.833316860E-1,1.555617809E0,6.245195866E-2,1.521908283E0,2.177166011E0
2.881294460E-1,1.631084442E0,6.624329090E-2,1.422759533E0,2.165425898E0
2.929272070E-1,1.748545647E0,1.200577021E-1,1.325759888E0,2.197604380E0
2.977249670E-1,1.893740177E0,2.015248537E-1,1.234276772E0,2.269427962E0
3.025226760E-1,2.047433376E0,2.982527018E-1,1.153372288E0,2.368798374E0
3.073204360E-1,2.195163250E0,3.863959312E-1,1.092503071E0,2.482258341E0
3.121181960E-1,2.320075989E0,4.614776373E-1,1.044230938E0,2.585755684E0
3.169159570E-1,2.437837124E0,5.312029123E-1,1.047404766E0,2.705971752E0
3.217136650E-1,2.530779362E0,6.026628017E-1,1.123331070E0,2.833711228E0
3.265114260E-1,2.526122570E0,6.354031563E-1,1.143984795E0,2.844948790E0
3.313091860E-1,2.437038898E0,6.132098436E-1,1.127299786E0,2.754267545E0
3.361069460E-1,2.294579029E0,5.599107742E-1,1.129595280E0,2.618124995E0
3.409046550E-1,2.107364655E0,5.131795406E-1,1.214259148E0,2.485712032E0
3.457024150E-1,1.876756191E0,4.915614128E-1,1.379720688E0,2.380646047E0
3.505001760E-1,1.606587410E0,4.903271198E-1,1.572705746E0,2.301075217E0
3.552979360E-1,1.305634022E0,5.051395893E-1,1.781227589E0,2.265528178E0
3.600956960E-1,9.899978638E-1,5.457916260E-1,1.989193916E0,2.287985294E0
3.648934050E-1,6.499567032E-1,6.097359657E-1,2.183368206E0,2.358244768E0
3.696911650E-1,3.020319939E-1,7.038521767E-1,2.372067928E0,2.492656709E0
3.744889260E-1,-3.272628784E-2,8.020768166E-1,2.561271191E0,2.684121521E0
3.792866860E-1,-3.544845581E-1,8.714518547E-1,2.719735146E0,2.877854565E0
3.840844460E-1,-6.489143372E-1,9.335694313E-1,2.824433565E0,3.044678417E0
3.888821550E-1,-9.299440384E-1,1.037522554E0,2.871742249E0,3.191888549E0
3.936799150E-1,-1.204279900E0,1.210517883E0,2.865046263E0,3.335286151E0
3.984776760E-1,-1.457180023E0,1.460458517E0,2.805464745E0,3.482376363E0
4.032754360E-1,-1.678574562E0,1.788021088E0,2.687567234E0,3.638358092E0
4.080731440E-1,-1.891530037E0,2.182038307E0,2.496666670E0,3.817397217E0
4.128709050E-1,-2.099827766E0,2.602956295E0,2.246633530E0,4.028898154E0
4.176686650E-1,-2.328137398E0,3.008781195E0,1.970299006E0,4.284281292E0
4.224664260E-1,-2.560363770E0,3.374286652E0,1.676844597E0,4.555554943E0
4.272641860E-1,-2.804451942E0,3.691341877E0,1.382223845E0,4.837509515E0
4.320618940E-1,-3.073853493E0,3.947948456E0,1.145711899E0,5.132984323E0
4.368596550E-1,-3.344705582E0,4.144476891E0,1.010175467E0,5.420719380E0
4.416574150E-1,-3.596049309E0,4.267518520E0,9.634270668E-1,5.663168430E0
4.464551760E-1,-3.835387230E0,4.303936005E0,9.540853500E-1,5.843315770E0
4.512529360E-1,-4.076742172E0,4.280488968E0,9.536957741E-1,5.987649637E0
4.560506440E-1,-4.324294090E0,4.230507374E0,9.488892555E-1,6.123487800E0
4.608484050E-1,-4.570468903E0,4.142089367E0,9.311344624E-1,6.238036686E0
4.656461650E-1,-4.810578346E0,4.015775204E0,9.033104181E-1,6.331199272E0
4.704439260E-1,-5.052061081E0,3.875638962E0,8.955245018E-1,6.430074857E0
4.752416340E-1,-5.276623726E0,3.726844549E0,9.222728014E-1,6.525543300E0
4.800393940E-1,-5.459021568E0,3.576956272E0,9.554806948E-1,6.596095513E0
4.848371550E-1,-5.599991798E0,3.447679043E0,9.426558018E-1,6.643417711E0
4.896349150E-1,-5.687963486E0,3.376616001E0,8.517960310E-1,6.669334353E0
4.944326240E-1,-5.704333305E0,3.377217770E0,6.986616850E-1,6.665819265E0
4.992303840E-1,-5.640205383E0,3.427484751E0,4.778164625E-1,6.617240894E0
5.040281440E-1,-5.494007111E0,3.489296675E0,2.099698782E-1,6.511788753E0
5.088259050E-1,-5.259713173E0,3.544476032E0,-8.676838875E-2,6.343139740E0
5.136236650E-1,-4.945664406E0,3.572876453E0,-3.826780319E-1,6.113222149E0
5.184213740E-1,-4.564848900E0,3.568736553E0,-6.675078869E-1,5.832606008E0
5.232191340E-1,-4.137288094E0,3.521695614E0,-9.218608737E-1,5.510836619E0
5.280168940E-1,-3.665970802E0,3.435641050E0,-1.213235736E0,5.168647047E0
5.328146550E-1,-3.163387299E0,3.319182873E0,-1.480854869E0,4.818394472E0
5.376123630E-1,-2.627481461E0,3.181133986E0,-1.887945533E0,4.537357226E0
5.424101240E-1,-2.027867317E0,3.026048422E0,-2.422290325E0,4.374552014E0
5.472078840E-1,-1.315651894E0,2.821581841E0,-3.280966759E0,4.522942279E0
5.520056440E-1,-5.304946899E-1,2.600068569E0,-4.320086479E0,5.070002798E0
5.568034050E-1,2.708597183E-1,2.340652227E0,-5.447456837E0,5.935217252E0
5.616011130E-1,1.007459641E0,2.024739265E0,-6.490969181E0,6.873661683E0
5.663988740E-1,1.627137661E0,1.658990860E0,-7.178231716E0,7.544987622E0
5.711966340E-1,2.102165222E0,1.265985250E0,-7.237893581E0,7.642572916E0
5.759943940E-1,2.421186447E0,9.132070541E-1,-6.669606209E0,7.154001532E0
5.807921550E-1,2.598015785E0,5.759291649E-1,-5.715272903E0,6.304421051E0
5.855898630E-1,2.644816875E0,2.610909939E-1,-4.601037502E0,5.313451883E0
5.903876240E-1,2.633646011E0,-6.484127045E-2,-3.428992987E0,4.324151779E0
5.951853840E-1,2.567915916E0,-3.507902622E-1,-2.336569309E0,3.489527489E0
5.999831440E-1,2.465560436E0,-5.420675278E-1,-1.384036660E0,2.878955183E0
6.047808530E-1,2.339342594E0,-5.844807625E-1,-6.044443846E-1,2.485858916E0
6.095786130E-1,2.209772587E0,-4.439892769E-1,-7.481539249E-2,2.255175981E0
6.143763740E-1,2.063818932E0,-2.145345211E-1,2.047878504E-1,2.085020793E0
6.191741340E-1,1.901556492E0,4.968643188E-4,2.900286913E-1,1.923547239E0
6.239718420E-1,1.709819317E0,1.670038700E-1,3.042854071E-1,1.744695388E0
6.287696030E-1,1.478112698E0,2.777018547E-1,4.534553289E-1,1.570846015E0
6.335673630E-1,9.360218048E-1,2.321703434E-1,5.372120142E-1,1.103918763E0
6.383651240E-1,2.399682999E-1,1.291532516E-1,5.397205353E-1,6.046185604E-1
6.431628840E-1,-3.779468536E-1,1.899216175E-1,6.959496737E-1,8.144077561E-1
6.479605920E-1,-8.987989426E-1,3.782553673E-1,1.051843524E0,1.434326135E0
6.527583530E-1,-1.326317787E0,5.993280411E-1,1.448616266E0,2.053485345E0
6.575561130E-1,-1.702560425E0,8.083298206E-1,1.839373708E0,2.633515661E0
6.623538740E-1,-1.962255478E0,9.862639904E-1,2.234832048E0,3.133310949E0
6.671516340E-1,-2.035539627E0,9.901211262E-1,2.521964550E0,3.388814927E0
6.719493420E-1,-1.967669487E0,7.583374977E-1,2.674505234E0,3.405844567E0
6.767471030E-1,-1.820511818E0,3.263745308E-1,2.716069221E0,3.286002987E0
6.815448630E-1,-1.536759377E0,-1.922187805E-1,2.567852974E0,2.998740792E0
6.863426240E-1,-1.224229813E0,-6.417298317E-1,2.282760620E0,2.668623589E0
6.911403320E-1,-8.224439621E-1,-9.609303474E-1,1.803826809E0,2.203087007E0
6.959380920E-1,-4.303855896E-1,-1.160826683E0,1.213815689E0,1.733810506E0
7.007358530E-1,-1.410322189E-1,-1.269911766E0,5.459286571E-1,1.389461795E0
7.055336130E-1,6.978034973E-2,-1.294442177E0,-1.437362432E-1,1.304266059E0
7.103313740E-1,2.593202591E-1,-1.320371628E0,-7.470729351E-1,1.539073164E0
7.151290820E-1,4.204301834E-1,-1.387617111E0,-1.215599298E0,1.892068826E0
7.199268420E-1,4.375381470E-1,-1.470980167E0,-1.489732504E0,2.138813974E0
7.247246030E-1,3.339900970E-1,-1.524394989E0,-1.554343939E0,2.202569987E0
7.295223630E-1,1.288557053E-1,-1.498524666E0,-1.506587029E0,2.128845800E0
7.343200710E-1,-1.615886688E-1,-1.450408936E0,-1.282891750E0,1.943092438E0
7.391178320E-1,-4.913339615E-1,-1.422861576E0,-9.723527431E-1,1.792041848E0
7.439155920E-1,-8.319711685E-1,-1.376489162E0,-6.846410036E-1,1.748036539E0
7.487133530E-1,-1.148186684E0,-1.262075901E0,-4.187663794E-1,1.756853301E0
7.535110610E-1,-1.419397354E0,-1.149247646E0,-1.922212839E-1,1.836411725E0
7.583088210E-1,-1.632354736E0,-1.081279278E0,1.235044003E-2,1.958034575E0
7.631065820E-1,-1.787694931E0,-1.049376488E0,1.660014391E-1,2.079567421E0
7.679043420E-1,-1.890496254E0,-1.021590710E0,3.399560452E-1,2.175590443E0
7.727021030E-1,-1.922571182E0,-9.870634079E-1,5.137905478E-1,2.221385795E0
7.774998110E-1,-1.571585655E0,-1.104304790E0,5.562845469E-1,1.999705738E0
7.822975710E-1,-1.107216835E0,-1.406628132E0,4.650020599E-1,1.849529328E0
7.870953320E-1,-5.306205750E-1,-1.700041294E0,4.002374411E-1,1.825346160E0
7.918930920E-1,1.087789536E-1,-1.897837162E0,3.873978853E-1,1.940024710E0
7.966908530E-1,7.524218559E-1,-2.002302647E0,4.075503945E-1,2.177487511E0
8.014885610E-1,1.365106106E0,-2.008071423E0,4.111965895E-1,2.462711545E0
8.062863210E-1,2.031222343E0,-1.964714050E0,3.140059710E-1,2.843336993E0
8.110840820E-1,2.782543182E0,-1.878962040E0,1.024483442E-1,3.359098178E0
8.158818420E-1,3.869072914E0,-1.835200787E0,-1.902730465E-1,4.286477689E0
8.206796030E-1,5.494792938E0,-1.838429451E0,-3.360081911E-1,5.803918830E0
8.254773110E-1,5.954210758E0,-1.533305168E0,5.550801754E-2,6.148717885E0
8.302750710E-1,5.716706753E0,-1.176890850E0,7.678125501E-1,5.886878993E0
8.350728320E-1,5.017073631E0,-4.799671173E-1,1.628904462E0,5.296671219E0
8.398705920E-1,4.050481796E0,6.663923264E-1,2.086834192E0,4.604927628E0
8.446683010E-1,2.692714691E0,2.273203850E0,1.833406210E0,3.972347729E0
8.494660610E-1,6.692328453E-1,4.153499126E0,-2.379081249E-1,4.213790202E0
8.542638210E-1,-1.735189438E0,6.018182278E0,-1.829316258E0,6.525013279E0
8.590615820E-1,-3.608800888E0,6.849808216E0,-2.139842033E0,8.032573708E0
8.638592900E-1,-4.657968998E0,6.414402008E0,-1.752226949E0,8.118591478E0
8.686570510E-1,-5.440515995E0,5.116783142E0,-9.934924841E-1,7.534435037E0
8.734548110E-1,-6.175747871E0,3.477888584E0,1.448596716E-1,7.089185785E0
8.782525710E-1,-6.774756432E0,2.097291946E0,1.362011075E0,7.221567170E0
8.830503320E-1,-7.098956585E0,1.277575016E0,2.182365179E0,7.535920666E0
8.878480400E-1,-6.898552895E0,8.704781532E-1,2.582867622E0,7.417477294E0
8.926458010E-1,-6.466844559E0,7.552423477E-1,2.216446877E0,6.877725373E0
8.974435610E-1,-5.945639610E0,8.610453606E-1,1.345492005E0,6.156490739E0
9.022413210E-1,-5.299753666E0,1.053287029E0,3.643066585E-1,5.415673719E0
9.070390300E-1,-4.587291718E0,1.309113503E0,-4.883274138E-1,4.795361001E0
9.118367900E-1,-3.870478630E0,1.622076511E0,-1.141808510E0,4.349191156E0
9.166345510E-1,-3.208547115E0,1.930400848E0,-1.625904560E0,4.082252768E0
9.214323110E-1,-2.614879608E0,2.267191887E0,-1.968244791E0,3.981424616E0
9.262300710E-1,-2.081488609E0,2.582098484E0,-2.232251167E0,3.997846006E0
9.310277800E-1,-1.666682243E0,2.903085232E0,-2.502892017E0,4.179737075E0
9.358255400E-1,-1.324353695E0,3.258762836E0,-2.661491156E0,4.411007040E0
9.406233010E-1,-1.070850372E0,3.570771694E0,-2.798031569E0,4.661127725E0
9.454210610E-1,-8.917136192E-1,3.811287642E0,-2.769892931E0,4.795140615E0
9.502188210E-1,-8.365111351E-1,3.975917101E0,-2.652039289E0,4.851904787E0
9.550165300E-1,-8.733553886E-1,4.126556873E0,-2.454025745E0,4.879904059E0
9.598142900E-1,-9.923400879E-1,4.263338566E0,-2.183694363E0,4.891759974E0
9.646120510E-1,-1.124732971E0,4.341931820E0,-1.808070183E0,4.835960501E0
9.694098110E-1,-1.228929996E0,4.316585541E0,-1.396378040E0,4.700324595E0
9.742075190E-1,-1.282837391E0,4.163561344E0,-8.630858660E-1,4.441377269E0
9.790052800E-1,-1.271594048E0,3.863948107E0,-3.852648139E-1,4.086009712E0
9.838030400E-1,-1.243993282E0,3.500439405E0,4.652474821E-2,3.715206572E0
9.886008010E-1,-1.183526516E0,3.099601507E0,5.031082034E-1,3.355798323E0
9.933985610E-1,-1.137453079E0,2.708510876E0,8.775134683E-1,3.065919203E0
9.981962690E-1,-1.026546478E0,2.378703594E0,1.210705519E0,2.859691647E0
1.002994030E0,-7.198019028E-1,2.097404480E0,1.473351479E0,2.662326973E0
1.007791790E0,-3.456168175E-1,1.753359318E0,1.552256942E0,2.367112480E0
1.012589551E0,1.393465996E-1,1.324523926E0,1.581304073E0,2.067438917E0
1.017387311E0,6.710214615E-1,8.103847504E-1,1.524370670E0,1.852214671E0
1.022185019E0,1.133255482E0,2.936997414E-1,1.371860147E0,1.803476583E0
1.026982780E0,1.501547337E0,-2.362031937E-1,1.409069896E0,2.072658757E0
1.031780540E0,1.874786854E0,-8.418140411E-1,1.403803468E0,2.488803086E0
1.036578301E0,2.218747139E0,-1.548286915E0,1.209747195E0,2.963700308E0
1.041376009E0,2.450048923E0,-2.157706261E0,7.892220020E-1,3.358765756E0
1.046173769E0,2.536302567E0,-2.490372658E0,1.607010067E-1,3.558175304E0
1.050971530E0,2.491123199E0,-2.544125080E0,-5.362827778E-1,3.600814691E0
1.055769290E0,2.314506054E0,-2.345979691E0,-1.245568156E0,3.523066706E0
1.060566999E0,2.056602478E0,-1.963239670E0,-1.852183700E0,3.393303436E0
1.065364759E0,1.684247494E0,-1.522535801E0,-2.321273804E0,3.247016624E0
1.070162519E0,1.275774479E0,-1.056308270E0,-2.617936134E0,3.097898850E0
1.074960280E0,7.734775543E-1,-6.825652122E-1,-2.731713533E0,2.920003703E0
1.079758040E0,2.152209282E-1,-4.188175201E-1,-2.757216692E0,2.797136402E0
1.084555749E0,-3.116769791E-1,-2.822289467E-1,-2.684488773E0,2.717218374E0
1.089353509E0,-7.994771004E-1,-2.537450790E-1,-2.550594807E0,2.684973755E0
1.094151269E0,-1.245053768E0,-3.100099564E-1,-2.402931213E0,2.724030740E0
1.098949030E0,-1.854287148E0,-6.215109825E-1,-2.314396381E0,3.030030914E0
1.103746738E0,-2.296018600E0,-8.697037697E-1,-2.031004906E0,3.186387765E0
1.108544499E0,-2.391435623E0,-9.155669212E-1,-1.728024721E0,3.089222647E0
1.113342259E0,-2.341051579E0,-8.211312294E-1,-1.482777596E0,2.890226356E0
1.118140019E0,-2.251786709E0,-6.572155952E-1,-1.230740070E0,2.648999215E0
1.122937780E0,-2.123754978E0,-4.764676094E-1,-9.157782197E-1,2.361356885E0
1.127735488E0,-2.039360523E0,-3.372602463E-1,-6.157731414E-1,2.156829242E0
1.132533249E0,-2.003464699E0,-2.319111824E-1,-3.631486893E-1,2.049275620E0
1.137331009E0,-2.015478134E0,-1.342806816E-1,-1.365390420E-1,2.024555833E0
1.142128769E0,-2.043460369E0,-4.489231110E-2,1.229455471E-1,2.047647725E0
1.146926530E0,-2.154888153E0,8.017635345E-2,4.048610032E-1,2.194056433E0
1.151724238E0,-2.315105438E0,2.613992691E-1,6.894397140E-1,2.429685142E0
1.156521999E0,-2.293129921E0,3.488893509E-1,9.333189726E-1,2.500250571E0
1.161319759E0,-2.189852238E0,3.764486313E-1,1.027470827E0,2.448032413E0
1.166117519E0,-2.169215202E0,3.888306618E-1,1.069920540E0,2.449778324E0
1.170915280E0,-2.216169357E0,4.167060852E-1,1.096315861E0,2.507380914E0
1.175712988E0,-2.275884628E0,4.649467468E-1,1.074168444E0,2.559231167E0
1.180510749E0,-2.299126625E0,4.935364723E-1,9.323417544E-1,2.529589420E0
1.185308509E0,-2.284482479E0,4.554252625E-1,6.955435276E-1,2.431060091E0
1.190106269E0,-2.235082626E0,3.655600548E-1,4.043563008E-1,2.300593949E0
1.194903978E0,-2.210904121E0,2.553544044E-1,1.594144702E-1,2.231303628E0
1.199701738E0,-2.203543186E0,1.834287643E-1,3.517866135E-4,2.211164582E0
1.204499499E0,-2.217705250E0,8.054399490E-2,-7.618063688E-2,2.220474589E0
1.209297259E0,-2.278277397E0,-9.253025055E-2,-4.771202803E-2,2.280654771E0
1.214095019E0,-2.355467796E0,-3.150215149E-1,7.226175070E-2,2.377538402E0
1.218892728E0,-2.467159748E0,-5.043849945E-1,2.204337716E-1,2.527819711E0
1.223690488E0,-2.602311611E0,-6.644144058E-1,4.194779992E-1,2.718351342E0
1.228488249E0,-2.745230198E0,-8.036012650E-1,5.994238853E-1,2.922562716E0
1.233286009E0,-2.868564606E0,-1.006438732E0,7.810907364E-1,3.138739326E0
1.238083769E0,-2.945327759E0,-1.268689632E0,9.332549572E-1,3.339984103E0
1.242881478E0,-2.963263035E0,-1.538170338E0,1.075091243E0,3.507522912E0
1.247679238E0,-2.912812710E0,-1.803309917E0,1.169624805E0,3.620003691E0
1.252476999E0,-2.805848598E0,-2.031280518E0,1.225944757E0,3.674483290E0
1.257274759E0,-2.625904083E0,-2.215264797E0,1.264712334E0,3.660910770E0
1.262072467E0,-2.369127750E0,-2.369314671E0,1.294707298E0,3.592030804E0
1.266870228E0,-2.029621601E0,-2.535771370E0,1.267771602E0,3.486652423E0
1.271667988E0,-1.627785683E0,-2.706701279E0,1.190677404E0,3.375445263E0
1.276465749E0,-1.197927475E0,-2.862570286E0,1.067281008E0,3.281528245E0
1.281263509E0,-7.782564163E-1,-2.951105595E0,9.715017080E-1,3.202892888E0
1.286061217E0,-4.066238403E-1,-2.906298637E0,8.347402811E-1,3.051017216E0
1.290858978E0,-8.845329285E-2,-2.873645306E0,6.419528723E-1,2.945804613E0
1.295656738E0,1.772494316E-1,-2.914214134E0,3.365220428E-1,2.938929817E0
1.300454499E0,3.559226990E-1,-3.063026428E0,-4.012894630E-2,3.083897242E0
1.305252259E0,5.226926804E-1,-3.316759586E0,-4.907072783E-1,3.393360491E0
1.310049967E0,7.514715195E-1,-3.609116077E0,-9.596349001E-1,3.809373629E0
1.314847728E0,9.503374100E-1,-3.908148289E0,-1.356773734E0,4.244714267E0
1.319645488E0,1.098855495E0,-4.175922871E0,-1.548096061E0,4.587201395E0
1.324443249E0,1.230234623E0,-4.429893017E0,-1.615436316E0,4.873095921E0
1.329240957E0,1.378539562E0,-4.579848289E0,-1.475554228E0,5.005261428E0
1.334038717E0,1.530281067E0,-4.676428318E0,-1.192018986E0,5.062771101E0
1.338836478E0,1.681221962E0,-4.750496864E0,-7.769668102E-1,5.098765063E0
1.343634238E0,1.810709476E0,-4.789868832E0,-1.948339939E-1,5.124399723E0
1.348431999E0,1.905618668E0,-4.834589005E0,4.016702175E-1,5.212098648E0
1.353229707E0,1.955159664E0,-4.923362732E0,1.070252538E0,5.404404722E0
1.358027467E0,1.979226112E0,-5.009586334E0,1.748289466E0,5.663021040E0
1.362825228E0,1.963257313E0,-5.012568951E0,2.417904854E0,5.901397347E0
1.367622988E0,1.926064968E0,-4.918756962E0,3.094107151E0,6.121878419E0
1.372420749E0,1.892118931E0,-4.762196541E0,3.585026741E0,6.253882528E0
1.377218457E0,1.856919289E0,-4.643218517E0,3.973237991E0,6.387037465E0
1.382016217E0,1.878274441E0,-4.438190460E0,4.229961395E0,6.412333650E0
1.386813978E0,1.929997444E0,-4.167607784E0,4.066505909E0,6.134355311E0
1.391611738E0,1.965395451E0,-3.805304050E0,3.473592758E0,5.514432414E0
1.396409499E0,2.035958290E0,-3.257668972E0,2.486601114E0,4.576102970E0
1.401207207E0,2.187203407E0,-2.465978146E0,1.059996843E0,3.462441374E0
1.406004967E0,2.150761127E0,-1.869986534E0,-5.427640676E-1,2.901243854E0
1.410802728E0,1.909103870E0,-1.521705627E0,-1.981855989E0,3.144522025E0
1.415600488E0,1.612007618E0,-1.313870907E0,-3.191253185E0,3.809057917E0
1.420398196E0,1.382975578E0,-1.140685558E0,-4.031789780E0,4.412381876E0
1.425195957E0,1.257794380E0,-9.144520760E-1,-4.383388042E0,4.651060098E0
1.429993717E0,1.256110191E0,-5.868844986E-1,-4.294792175E0,4.513035127E0
1.434791478E0,1.376648903E0,-1.850943565E-1,-3.860884905E0,4.103151761E0
1.439589238E0,1.630447388E0,2.839775085E-1,-3.182161808E0,3.586802989E0
1.444386946E0,1.973774433E0,8.079543114E-1,-2.326310158E0,3.155993446E0
1.449184707E0,2.250059605E0,1.255053997E0,-1.379078865E0,2.922291443E0
1.453982467E0,2.500256062E0,1.519978046E0,-4.146866798E-1,2.955262878E0
1.458780228E0,2.736510277E0,1.643448830E0,4.979169369E-1,3.230686278E0
1.463577988E0,3.008338928E0,1.733308315E0,1.374409318E0,3.734094508E0
1.468375696E0,3.260923862E0,1.842556477E0,2.157018661E0,4.322194849E0
1.473173457E0,3.453112364E0,1.927714825E0,2.687280893E0,4.781375120E0
1.477971217E0,3.590427399E0,1.912442207E0,2.916490555E0,5.005449156E0
1.482768978E0,3.642054796E0,1.833638191E0,2.850220203E0,4.974992197E0
1.487566686E0,3.633555889E0,1.703449726E0,2.554471493E0,4.757078303E0
1.492364446E0,3.557571888E0,1.598450184E0,2.109769344E0,4.434240342E0
1.497162207E0,3.418563128E0,1.555373192E0,1.596297503E0,4.080922119E0
1.501959967E0,3.199633121E0,1.622478008E0,1.015526414E0,3.728455565E0
1.506757728E0,2.904287815E0,1.815321445E0,4.126679897E-1,3.449720936E0
1.511555436E0,2.549045563E0,2.140548229E0,-1.774721146E-1,3.333328120E0
1.516353196E0,2.197032928E0,2.529165983E0,-7.311139107E-1,3.429017616E0
1.521150957E0,1.871361732E0,2.972047329E0,-1.142976284E0,3.693434018E0
1.525948717E0,1.597760677E0,3.410090446E0,-1.349610567E0,4.000375572E0
1.530746478E0,1.442049026E0,3.748654604E0,-1.410994053E0,4.257090668E0
1.535544186E0,1.519814968E0,3.907560587E0,-1.422099352E0,4.427328071E0
1.540341946E0,1.643697262E0,3.730957508E0,-1.293408871E0,4.277229375E0
1.545139707E0,1.747678280E0,3.287103176E0,-9.189717770E-1,3.834571135E0
1.549937467E0,1.821299553E0,2.886505604E0,-4.381601810E-1,3.441079919E0
1.554735176E0,1.890483856E0,2.408783913E0,1.817307472E-1,3.067441151E0
1.559532936E0,1.937684536E0,1.941558838E0,7.475643158E-1,2.843083623E0
1.564330696E0,1.956766129E0,1.471942425E0,1.232812881E0,2.741418572E0
1.569128457E0,1.993432999E0,1.046914101E0,1.602594972E0,2.763713968E0
1.573926217E0,2.002344608E0,7.060904503E-1,1.796609521E0,2.781322244E0
1.578723926E0,2.002343178E0,4.465312958E-1,1.840369225E0,2.756034703E0
1.583521686E0,2.008021832E0,2.433347702E-1,1.785358667E0,2.697937927E0
1.588319446E0,2.029288292E0,6.932973862E-2,1.632477999E0,2.605341053E0
1.593117207E0,2.091838837E0,-2.534866333E-2,1.406555891E0,2.520879162E0
1.597914967E0,2.181542397E0,-9.902238846E-2,1.130409598E0,2.459015763E0
1.602712676E0,2.298761845E0,-1.644439697E-1,8.359628916E-1,2.451567212E0
1.607510436E0,2.422020912E0,-1.792473793E-1,5.150364637E-1,2.482655329E0
1.612308196E0,2.543661118E0,-9.838724136E-2,1.671707630E-1,2.551046451E0
1.617105957E0,2.682414770E0,5.870199203E-2,-1.846127510E-1,2.689400824E0
1.621903717E0,2.808117151E0,2.191677094E-1,-5.392892361E-1,2.867819607E0
1.626701426E0,2.914480686E0,3.700284958E-1,-9.265191555E-1,3.080512377E0
1.631499186E0,2.996665716E0,4.922018051E-1,-1.304574966E0,3.305175317E0
1.636296946E0,3.045413017E0,5.427098274E-1,-1.661242485E0,3.511239239E0
1.641094707E0,3.036816359E0,5.195527077E-1,-1.979511023E0,3.662055775E0
1.645892467E0,3.004582882E0,4.634895325E-1,-2.242758274E0,3.777870500E0
1.650690176E0,2.946378231E0,3.676991463E-1,-2.442079782E0,3.844489694E0
1.655487936E0,2.826120615E0,2.473869324E-1,-2.547988176E0,3.813187875E0
1.660285696E0,2.610467196E0,1.154828072E-1,-2.499139071E0,3.615739392E0
1.665083457E0,2.347379208E0,-5.798339844E-3,-2.324643612E0,3.303663222E0
1.669881165E0,2.114719868E0,-1.244273186E-1,-2.031377077E0,2.934964243E0
1.674678926E0,1.898121357E0,-2.595233917E-1,-1.722436070E0,2.576238167E0
1.679476686E0,1.676873207E0,-4.386253357E-1,-1.484858274E0,2.282345292E0
1.684274446E0,1.449890137E0,-6.323018074E-1,-1.319710135E0,2.060005298E0
1.689072207E0,1.216962337E0,-7.975602150E-1,-1.173587322E0,1.869333258E0
1.693869915E0,9.721593857E-1,-9.522647858E-1,-1.018001556E0,1.699479115E0
1.698667676E0,7.543540001E-1,-1.127970219E0,-8.743466139E-1,1.614264158E0
1.703465436E0,5.575647354E-1,-1.350119114E0,-8.508927822E-1,1.690478803E0
1.708263196E0,3.737106323E-1,-1.611317158E0,-1.023795128E0,1.945291516E0
1.713060957E0,1.865811348E-1,-1.865268707E0,-1.391864777E0,2.334807792E0
1.717858665E0,-3.506088257E-2,-2.110553741E0,-1.924666882E0,2.856572941E0
1.722656426E0,-2.991204262E-1,-2.368773460E0,-2.542568207E0,3.487866658E0
1.727454186E0,-6.111431122E-1,-2.667849064E0,-3.078129292E0,4.118955507E0
1.732251946E0,-9.274864197E-1,-2.952946186E0,-3.459562063E0,4.642056862E0
1.737049707E0,-1.229576588E0,-3.160400867E0,-3.627066851E0,4.965441186E0
1.741847415E0,-1.486711979E0,-3.455656052E0,-3.538724899E0,5.164730890E0
1.746645176E0,-1.616892815E0,-3.875981808E0,-3.183879375E0,5.270167476E0
1.751442936E0,-1.628032684E0,-4.112588406E0,-2.561517000E0,5.111285861E0
1.756240696E0,-1.594870090E0,-4.266724586E0,-1.871724606E0,4.924622047E0
1.761038457E0,-1.530162811E0,-4.354872704E0,-1.230273247E0,4.777016512E0
1.765836165E0,-1.421232224E0,-4.372182846E0,-6.566939354E-1,4.644042506E0
1.770633926E0,-1.236319065E0,-4.375716686E0,-1.186926365E-1,4.548567829E0
1.775431686E0,-9.500508308E-1,-4.300959587E0,3.783359528E-1,4.420858293E0
1.780229446E0,-6.842908859E-1,-4.403621197E0,8.297622204E-1,4.533060666E0
1.785027207E0,-4.372177124E-1,-4.492070198E0,1.243883729E0,4.681570327E0
1.789824915E0,-2.387909889E-1,-4.443649769E0,1.617138982E0,4.734784355E0
1.794622676E0,-4.512548447E-2,-4.196968079E0,2.000412703E0,4.649540659E0
1.799420436E0,1.835446358E-1,-3.853518963E0,2.417145967E0,4.552569786E0
1.804218196E0,4.683599472E-1,-3.489113808E0,2.793417215E0,4.494046722E0
1.809015957E0,7.796239853E-1,-3.126943111E0,3.148377419E0,4.505315433E0
1.813813665E0,1.097513199E0,-2.755430698E0,3.394188166E0,4.507487866E0
1.818611426E0,1.452514648E0,-2.437567711E0,3.418763161E0,4.442913087E0
1.823409186E0,1.846144676E0,-2.193323612E0,3.097233295E0,4.220399592E0
1.828206946E0,2.287154675E0,-2.004115582E0,2.575867653E0,3.985304246E0
1.833004707E0,2.747025728E0,-1.996936798E0,1.964055777E0,3.923190286E0
1.837802415E0,3.168405533E0,-2.145086765E0,1.385823011E0,4.069483538E0
1.842600176E0,3.515213490E0,-2.366543293E0,8.897015452E-1,4.329990979E0
1.847397936E0,3.749343395E0,-2.617520809E0,6.126255989E-1,4.613491217E0
1.852195696E0,3.907404184E0,-2.828666210E0,5.739876032E-1,4.857841265E0
1.856993457E0,3.979413271E0,-2.929343700E0,7.186756134E-1,4.993323456E0
1.861791165E0,3.979497910E0,-2.887731552E0,9.693402052E-1,5.011488558E0
1.866588926E0,3.903979063E0,-2.781415939E0,1.196129560E0,4.940450696E0
1.871386686E0,3.717651129E0,-2.601515770E0,1.338890672E0,4.730902921E0
1.876184446E0,3.410834551E0,-2.371622086E0,1.457002640E0,4.402413014E0
1.880982207E0,3.085066557E0,-2.191226006E0,1.592177510E0,4.105378946E0
1.885779915E0,2.785458088E0,-2.156691551E0,1.642795324E0,3.887013209E0
1.890577676E0,2.493950129E0,-2.158599854E0,1.502797484E0,3.624602164E0
1.895375436E0,2.174561977E0,-2.156266212E0,1.215185046E0,3.294674258E0
1.900173196E0,1.903287888E0,-2.067259789E0,8.837499022E-1,2.945688664E0
1.904970957E0,1.776427269E0,-1.943394661E0,6.228160858E-1,2.705619435E0
1.909768665E0,1.963373899E0,-1.778978348E0,4.515264630E-1,2.687652726E0
1.914566426E0,2.161937475E0,-1.531939507E0,7.201470733E-1,2.745801177E0
1.919364186E0,2.263642311E0,-1.145862579E0,1.311107635E0,2.855885291E0
1.924161946E0,2.274107933E0,-7.415018082E-1,1.962898254E0,3.094246496E0
1.928959707E0,2.250543833E0,-5.879592896E-1,2.344991922E0,3.302973022E0
1.933757415E0,2.129674911E0,-5.609445572E-1,2.435056686E0,3.283241552E0
1.938555176E0,1.852939844E0,-4.876699448E-1,2.414606094E0,3.082455293E0
1.943352936E0,1.399089813E0,-3.497724533E-1,2.249085426E0,2.671736950E0
1.948150696E0,8.558561802E-1,-1.620149612E-1,1.988660336E0,2.171061625E0
1.952948405E0,3.197057247E-1,5.790805817E-2,1.723541975E0,1.753899094E0
1.957746165E0,-2.126731396E0,1.061770439E0,8.879268765E-1,2.537470597E0
1.962543926E0,-2.991381168E0,9.938344955E-1,9.579719305E-1,3.294507326E0
1.967341686E0,-3.397212267E0,1.521956921E0,1.859906435E0,4.161328634E0
1.972139446E0,-3.142904043E0,1.611373901E0,2.120877266E0,4.119768446E0
1.976937207E0,-2.438592672E0,1.876778603E0,2.037071228E0,3.690351112E0
1.981734915E0,-1.411307096E0,2.358734608E0,1.639746189E0,3.200653720E0
1.986532676E0,-8.216831684E-1,2.153745651E0,1.269059420E0,2.631405588E0
1.991330436E0,-1.339874268E-1,2.288158417E0,5.606078506E-1,2.359640382E0
1.996128196E0,1.576260209E0,2.071769714E0,9.050156176E-2,2.604806428E0
2.000925905E0,2.981612444E0,2.136574268E0,-1.801677793E-1,3.672522675E0
2.005723665E0,3.678237438E0,2.740248203E0,-4.271706045E-1,4.606611075E0
2.010521426E0,3.907388210E0,2.865326881E0,-3.492316306E-1,4.857956720E0
2.015319186E0,3.923558950E0,3.210885525E0,3.405205309E-1,5.081343811E0
2.020116946E0,3.809511900E0,3.196039200E0,7.391914129E-1,5.027270773E0
2.024914707E0,3.978557587E0,3.133618355E0,6.667181253E-1,5.108130531E0
2.029712415E0,3.369464159E0,3.557224751E0,1.197715998E0,5.043972666E0
2.034510176E0,3.164468050E0,3.028320789E0,9.507170320E-1,4.482013802E0
2.039307936E0,1.984444857E0,2.696949959E0,1.212268233E0,3.561060901E0
2.044105696E0,1.377159357E0,2.545556068E0,5.218731165E-1,2.940879994E0
2.048903457E0,1.147423983E0,2.221341610E0,4.277167320E-1,2.536509796E0
2.053701165E0,7.392845154E-1,2.272585392E0,-1.219966263E-1,2.392920629E0
2.058498926E0,-2.777907848E-1,1.345310688E0,-5.842270255E-1,1.492765817E0
2.063296686E0,-1.051460981E0,9.000806808E-1,-8.109773993E-1,1.604181963E0
2.068094446E0,-1.568049431E0,9.899377823E-1,-9.179361463E-1,2.069145379E0
2.072892207E0,-1.777614355E0,5.009775162E-1,-5.688897967E-1,1.932492398E0
2.077689915E0,-1.927140713E0,-4.156894684E-1,-7.583720684E-1,2.112296678E0
2.082487676E0,-2.489650011E0,-1.593559265E0,-6.818535328E-1,3.033597295E0
2.087285436E0,-2.704271317E0,-2.616147041E0,-1.016165972E0,3.897422479E0
2.092083196E0,-2.681044579E0,-3.303284645E0,-1.277809501E0,4.442126360E0
2.096880957E0,-2.497487783E0,-3.589475632E0,-9.544025660E-1,4.475786500E0
2.101678665E0,-2.206511497E0,-3.554394722E0,-1.520404339E0,4.451296910E0
2.106476426E0,-1.978757381E0,-3.379847527E0,-2.084058523E0,4.436456920E0
2.111274186E0,-1.569538593E0,-2.877722740E0,-2.167393684E0,3.929673644E0
2.116071946E0,-8.504350185E-1,-3.052072525E0,-1.532779217E0,3.519630456E0
2.120869707E0,-1.657071829E0,-2.452338219E0,-2.351036549E0,3.779844261E0
2.125667415E0,-1.195768833E0,-9.249792099E-1,-2.007218361E0,2.512842054E0
2.130465176E0,2.470138073E-1,1.502857208E-1,-1.206870079E-1,3.133160908E-1
2.135262936E0,9.339005947E-1,-9.755973816E-1,-8.563497663E-2,1.353253088E0
2.140060696E0,9.190385342E-1,-8.708686829E-1,-6.979713440E-1,1.445755196E0
2.144858457E0,9.574444294E-1,-5.054769516E-1,-1.217253566E0,1.629083493E0
2.149656165E0,6.908333302E-1,3.110103607E-1,-9.490872025E-1,1.214390651E0
2.154453926E0,3.786456585E-1,7.010860443E-1,-7.955667973E-1,1.125975446E0
2.159251686E0,1.622502804E-1,1.092957497E0,-7.966048717E-1,1.362152915E0
2.164049446E0,-2.082786560E-1,1.686864376E0,-5.436495543E-1,1.784501684E0
2.168847207E0,-5.000040531E-1,1.290657043E0,-4.410861135E-1,1.452706652E0
2.173644915E0,-8.339920044E-1,1.011668205E0,-5.459625125E-1,1.420243038E0
2.178442676E0,-1.190422297E0,7.944974899E-1,-5.693513155E-1,1.540289721E0
2.183240436E0,-1.471092701E0,4.311418533E-1,-5.508891940E-1,1.628949335E0
2.188038196E0,-1.581839085E0,3.848266602E-2,-8.259496093E-1,1.784905757E0
2.192835957E0,-1.758445740E0,-3.121604919E-1,-9.893977046E-1,2.041686413E0
2.197633665E0,-1.547397137E0,-1.318069458E0,-1.107946634E0,2.315014198E0
2.202431426E0,-1.321964025E0,-1.614581108E0,-9.588121176E-1,2.296471580E0
2.207229186E0,-6.989150047E-1,-2.060798645E0,-4.959805310E-1,2.231898279E0
2.212026946E0,-2.398927212E-1,-2.880268097E0,-1.204282045E-1,2.892748828E0
2.216824707E0,-3.312964439E-1,-2.989097595E0,-4.347483516E-1,3.038662189E0
2.221622415E0,-8.995294571E-2,-2.135247231E0,-4.486564100E-1,2.183727282E0
2.226420176E0,5.550997257E-1,-1.827355385E0,-2.252942920E-1,1.923049902E0
2.231217936E0,9.096448421E-1,-1.309363365E0,-7.288813591E-3,1.594346038E0
2.236015696E0,1.122607231E0,-8.133401871E-1,-1.773026586E-1,1.397571282E0
2.240813457E0,1.310011983E0,-5.393009186E-1,-2.250561565E-1,1.434443150E0
2.245611165E0,1.425060272E0,-3.930320740E-1,-2.274775505E-2,1.478441223E0
2.250408926E0,1.743451118E0,-2.208414078E-1,-7.573837042E-2,1.759013653E0
2.255206686E0,1.954579949E0,5.186815262E-1,-5.080889463E-1,2.085082176E0
2.260004446E0,2.159817219E0,-8.139276505E-1,-9.408384562E-1,2.492481823E0
2.264802207E0,2.302400112E0,-1.401232719E0,-5.981571674E-1,2.760849762E0
2.269599967E0,2.457320213E0,-7.912845612E-1,1.462897956E-1,2.585721290E0
2.274397676E0,2.436292887E0,-2.755088806E-1,-8.699268103E-3,2.451836832E0
2.279195436E0,2.753295898E0,-4.236068726E-1,-1.128113031E0,3.005448402E0
2.283993196E0,3.123051167E0,-9.633522034E-1,-1.615491509E0,3.645724739E0
2.288790957E0,3.643441916E0,-2.048301697E0,-2.244718313E0,4.744361826E0
2.293588717E0,4.008108616E0,-2.925035477E0,-2.828454018E0,5.711472608E0
2.298386426E0,3.994550467E0,-3.334371567E0,-3.172153473E0,6.094015493E0
2.303184186E0,3.844366312E0,-2.892907143E0,-2.871309757E0,5.602899589E0
2.307981946E0,3.970863104E0,-2.949298859E0,-1.977407694E0,5.326937088E0
2.312779707E0,4.171678543E0,-2.437259674E0,-8.691369295E-1,4.909025931E0
2.317577467E0,4.895223618E0,-3.576223373E0,4.648859799E-1,6.080189706E0
2.322375176E0,5.232042789E0,-3.614028931E0,1.088527918E0,6.451385114E0
2.327172936E0,5.561312675E0,-3.939886093E0,1.543632507E0,6.988111506E0
2.331970696E0,5.599881172E0,-3.922362328E0,1.660181999E0,7.035609401E0
2.336768457E0,5.431385994E0,-3.643914223E0,1.725478292E0,6.764269363E0
2.341566217E0,5.162019730E0,-4.084328651E0,1.653692484E0,6.786964495E0
2.346363926E0,4.320952892E0,-3.766252518E0,1.498072267E0,5.924484150E0
2.351161686E0,3.640817642E0,-4.159482002E0,1.432160378E0,5.710335102E0
2.355959446E0,3.206436634E0,-4.465594292E0,1.106507540E0,5.607773819E0
2.360757207E0,2.359469175E0,-4.104990005E0,6.138179302E-1,4.774391080E0
2.365554967E0,1.480864644E0,-3.991432190E0,2.890454829E-1,4.267087802E0
2.370352728E0,6.726139784E-1,-3.718941689E0,5.523484945E-1,3.819427406E0
2.375150436E0,-7.358312607E-2,-3.390896797E0,6.935091615E-1,3.461870957E0
2.379948196E0,-6.539444923E-1,-3.165256500E0,9.175857306E-1,3.359829711E0
2.384745957E0,-1.010373831E0,-3.211522102E0,1.168802023E0,3.563822058E0
2.389543717E0,-1.290526867E0,-3.073108673E0,1.348540068E0,3.595555148E0
2.394341478E0,-1.515708447E0,-2.848220825E0,1.258009672E0,3.462993257E0
2.399139186E0,-1.595607996E0,-2.513045311E0,9.648897648E-1,3.129276893E0
2.403936946E0,-1.458571553E0,-2.557374954E0,5.843573213E-1,3.001511471E0
2.408734707E0,-1.386939406E0,-2.242395401E0,2.758836746E-1,2.651046935E0
2.413532467E0,-1.052811265E0,-1.848105431E0,4.200810194E-1,2.168034434E0
2.418330228E0,-8.238480091E-1,-7.679309845E-1,2.290047407E-1,1.149298356E0
2.423127988E0,-5.177971125E-1,-7.296323776E-1,4.280607700E-1,9.918232095E-1
2.427925696E0,-4.837864637E-1,1.198358536E-1,4.335039854E-1,6.605570980E-1
2.432723457E0,3.051924706E-2,1.265735626E-1,3.455227613E-1,3.692401249E-1
2.437521217E0,1.946933270E-1,9.328832626E-1,3.659595251E-1,1.020834486E0
2.442318978E0,3.065050840E-1,1.147697449E0,6.931591034E-2,1.189940963E0
2.447116738E0,4.298421144E-1,1.395684242E0,-7.816648483E-2,1.462466665E0
2.451914446E0,7.628443241E-1,1.657726288E0,-2.773350477E-1,1.845779683E0
2.456712207E0,1.116520405E0,1.976781845E0,-2.318636179E-1,2.282114155E0
2.461509967E0,1.299892187E0,1.830059052E0,-3.809700012E-1,2.276834199E0
2.466307728E0,1.443922520E0,2.008972645E0,-4.465826750E-1,2.514024546E0
2.471105488E0,1.587978601E0,2.111731529E0,-5.710201263E-1,2.703174074E0
2.475903196E0,1.779210091E0,2.253065586E0,-5.979644060E-1,2.932482653E0
2.480700957E0,1.835266590E0,2.518858433E0,-6.388884783E-1,3.181356589E0
2.485498717E0,1.896338940E0,2.617536068E0,-7.668223381E-1,3.321989305E0
2.490296478E0,1.895020008E0,2.766696453E0,-8.254195452E-1,3.453552884E0
2.495094238E0,1.890710592E0,2.808505058E0,-9.353915453E-1,3.512469865E0
2.499891999E0,1.823099971E0,2.974785805E0,-1.112367749E0,3.662022132E0
2.504689707E0,1.827919722E0,2.990574837E0,-1.073314071E0,3.665628385E0
2.509487467E0,1.823309779E0,2.920675278E0,-9.782553911E-1,3.579355562E0
2.514285228E0,1.737152934E0,3.001782417E0,-1.080513835E0,3.632617258E0
2.519082988E0,1.617501140E0,3.006746769E0,-1.045787573E0,3.570785308E0
2.523880749E0,1.522531152E0,3.069306374E0,-7.885588408E-1,3.515759913E0
2.528678457E0,1.419018984E0,2.957736492E0,-5.870376825E-1,3.332631584E0
2.533476217E0,1.400493741E0,2.791848660E0,-3.919473886E-1,3.147923826E0
2.538273978E0,1.505220413E0,2.404749393E0,-2.357729673E-1,2.846769578E0
2.543071738E0,1.535614133E0,2.475157261E0,-2.461833954E-1,2.923203807E0
2.547869499E0,1.891337276E0,2.746716976E0,9.671270847E-2,3.336309965E0
2.552667207E0,2.188103199E0,2.951464176E0,1.805238724E-1,3.678522157E0
2.557464967E0,2.412728786E0,2.936107635E0,7.722994089E-1,3.877942060E0
2.562262728E0,2.409584522E0,3.286440372E0,4.039824009E-1,4.095117785E0
2.567060488E0,2.750566006E0,3.247399807E0,-8.108377457E-3,4.255735495E0
2.571858249E0,3.066492319E0,3.271123886E0,-1.432180405E-2,4.483729668E0
2.576656009E0,3.258964539E0,3.493623257E0,1.986900568E-1,4.781812529E0
2.581453717E0,3.081912518E0,4.804033279E0,1.149754524E-1,5.708777441E0
2.586251478E0,4.460424423E0,6.987037659E0,-7.266871929E-1,8.321187148E0
2.591049238E0,5.331140518E0,5.728595734E0,-2.330207825E-1,7.828931408E0
2.595846999E0,4.600129604E0,3.849360943E0,2.956253290E-1,6.005511334E0
2.600644759E0,3.489506721E0,3.076260567E0,-8.685770035E-1,4.732278758E0
2.605442467E0,3.189422131E0,3.572216034E0,-1.698061228E0,5.080999198E0
2.610240228E0,2.782073021E0,3.574808121E0,-2.283664227E0,5.072899141E0
2.615037988E0,1.745388269E0,3.333801270E0,-1.247238994E0,3.964368326E0
2.619835749E0,9.050210714E-1,2.894698143E0,-1.732994437E0,3.493080331E0
2.624633509E0,1.151492000E-1,3.326022148E0,-3.185054302E0,4.606544646E0
2.629431269E0,-6.139913797E-1,3.186465263E0,-3.991143227E0,5.143906156E0
2.634228978E0,-1.231384635E0,2.704388618E0,-4.091890812E0,5.057034342E0
2.639026738E0,-2.004871368E0,2.214987278E0,-3.907700539E0,4.918922783E0
2.643824499E0,-2.666397572E0,1.567845345E0,-3.678547859E0,4.806196977E0
2.648622259E0,-3.026548862E0,1.212125778E0,-3.356658697E0,4.679359414E0
2.653420019E0,-3.261429071E0,9.082202911E-1,-3.219043016E0,4.671618737E0
2.658217780E0,-3.320597172E0,8.302345276E-1,-3.274859905E0,4.737125959E0
2.663015488E0,-3.132791996E0,9.824810028E-1,-3.495378494E0,4.795552672E0
2.667813249E0,-2.811674118E0,1.185459137E0,-3.832871437E0,4.899155862E0
2.672611009E0,-2.211244583E0,1.369936943E0,-4.041045666E0,4.805869319E0
2.677408769E0,-1.406348109E0,1.536105156E0,-4.147952080E0,4.641437332E0
2.682206530E0,-5.770570040E-1,1.691507816E0,-3.957549095E0,4.342394307E0
2.687004238E0,1.106331348E-1,1.865348816E0,-3.701656818E0,4.146568352E0
2.691801999E0,8.818972707E-1,2.505527020E0,-5.953404427E0,6.519082198E0
2.696599759E0,1.660985708E0,2.001711369E0,-5.441711903E0,6.031413628E0
2.701397519E0,2.058290720E0,1.091286659E0,-3.902824879E0,4.545273291E0
2.706195280E0,2.101051807E0,1.902942657E-1,-2.507137299E0,3.276639748E0
2.710993040E0,2.029224157E0,-6.727867126E-1,-1.454271197E0,2.585594198E0
2.715790749E0,1.962871313E0,-1.693984985E0,-9.367449284E-1,2.756798865E0
2.720588509E0,1.955032349E0,-2.978139877E0,-4.140677452E-1,3.586491421E0
2.725386269E0,1.953435183E0,-4.610700607E0,3.279937506E-1,5.018171879E0
2.730184030E0,2.010617256E0,-6.222965240E0,1.254376650E0,6.658929262E0
2.734981790E0,2.112008810E0,-7.429970741E0,2.606255531E0,8.152153968E0
2.739779499E0,2.319504261E0,-9.371326447E0,4.175094128E0,1.051823514E1
2.744577259E0,2.331907749E0,-1.097774982E1,5.077569962E0,1.231789356E1
2.749375019E0,2.364726782E0,-1.234525776E1,6.023264408E0,1.393832974E1
2.754172780E0,1.831025362E0,-1.266968536E1,6.721467972E0,1.445862071E1
2.758970540E0,7.333790064E-1,-1.175768280E1,6.677108288E0,1.354122316E1
2.763768301E0,-6.195591688E-1,-9.750770569E0,5.910056114E0,1.141885036E1
2.768566009E0,-1.726376653E0,-7.134372711E0,5.182133198E0,8.985218685E0
2.773363769E0,-2.282703400E0,-4.586437225E0,4.864373207E0,7.064578397E0
2.778161530E0,-2.261481524E0,-2.690032005E0,4.777141094E0,5.930568936E0
2.782959290E0,-1.737847090E0,-1.154868126E0,4.735990524E0,5.175271891E0
2.787757051E0,-9.596736431E-1,6.793022156E-2,4.518051147E0,4.619347810E0
2.792554811E0,1.715054512E-1,8.840694427E-1,4.263535976E0,4.357606215E0
2.797352519E0,1.280658484E0,1.319155693E0,4.175871849E0,4.562692582E0
2.802150280E0,2.291110754E0,1.747315407E0,4.287608624E0,5.165838492E0
2.806948040E0,3.056006908E0,2.159657478E0,4.415121078E0,5.787624105E0
2.811745801E0,3.622957468E0,2.647410393E0,4.286735535E0,6.205699328E0
2.816543561E0,4.014438152E0,3.086375713E0,3.991510868E0,6.447758349E0
2.821341321E0,4.333008766E0,3.192164421E0,3.553906441E0,6.449428630E0
2.826139030E0,4.614708900E0,2.807188034E0,2.958808899E0,6.158765541E0
2.830936790E0,4.928046227E0,2.094351768E0,2.492750645E0,5.906416402E0
2.835734551E0,5.247563839E0,1.128043175E0,2.205340624E0,5.802838522E0
2.840532311E0,5.413963318E0,1.664533615E-1,1.981561899E0,5.767607224E0
2.845330071E0,5.450118065E0,-6.449842453E-1,1.794684649E0,5.774139294E0
2.850127832E0,5.178632259E0,-1.514705658E0,1.875983000E0,5.712431840E0
2.854925540E0,4.423095703E0,-1.793409348E0,1.527722478E0,5.011389893E0
2.859723301E0,3.672685146E0,-1.876442909E0,1.504838705E0,4.390238456E0
2.864521061E0,3.019985676E0,-2.067417145E0,1.858920813E0,4.104889002E0
2.869318821E0,2.278019428E0,-2.241777420E0,2.257722139E0,3.913086732E0
2.874116582E0,1.668570638E0,-2.351729393E0,3.096491575E0,4.231195952E0
2.878914342E0,1.135788202E0,-2.316228867E0,3.865861177E0,4.647559967E0
2.883712051E0,6.550196409E-1,-2.267049789E0,4.385787487E0,4.980331049E0
2.888509811E0,1.091964245E-1,-1.984744072E0,4.585445404E0,4.997743735E0
2.893307571E0,-4.959218502E-1,-1.520252228E0,4.476814270E0,4.753837537E0
2.898105332E0,-1.097935319E0,-9.790792465E-1,3.991344452E0,4.253808725E0
2.902903092E0,-1.818912745E0,-4.065570831E-1,3.450834513E0,3.921988152E0
2.907700801E0,-2.657946825E0,3.597793579E-1,3.140962601E0,4.130347270E0
2.912498561E0,-3.251145840E0,7.368144989E-1,3.196886301E0,4.618758155E0
2.917296321E0,-3.714807749E0,8.760738373E-1,3.222387552E0,4.995105956E0
2.922094082E0,-4.273716927E0,1.425436020E0,2.982152224E0,5.402754492E0
2.926891842E0,-4.793024063E0,2.233579636E0,2.647029161E0,5.913435638E0
2.931689603E0,-5.371889114E0,2.664368153E0,2.263234138E0,6.409233891E0
2.936487363E0,-5.802159309E0,3.007380962E0,1.671558142E0,6.745628179E0
2.941285071E0,-6.044743538E0,3.126807213E0,8.996900320E-1,6.864786227E0
2.946082832E0,-6.079769135E0,3.157032490E0,6.661513448E-2,6.850903915E0
2.950880592E0,-5.851613522E0,3.057865620E0,-5.987446308E-1,6.629511150E0
2.955678353E0,-5.384276390E0,2.679505348E0,-1.134562016E0,6.120246084E0
2.960476113E0,-4.633770943E0,2.292658806E0,-1.616561413E0,5.416769180E0
2.965273821E0,-3.857879400E0,2.071662903E0,-2.010253191E0,4.818312831E0
2.970071582E0,-3.043579817E0,1.865560055E0,-2.262291670E0,4.226305244E0
2.974869342E0,-2.138059855E0,1.444981575E0,-2.243140697E0,3.419203399E0
2.979667103E0,-1.268618345E0,8.534584045E-1,-2.038922787E0,2.548527003E0
2.984464863E0,-5.486893654E-1,2.946376801E-1,-1.724452257E0,1.833468562E0
2.989262624E0,-7.516860962E-2,-2.383337021E-1,-1.267570257E0,1.291970445E0
2.994060384E0,1.218826771E-1,-8.215541840E-1,-8.013757467E-1,1.154127268E0
2.998858092E0,-1.137208939E-1,-1.237247467E0,-7.138789296E-1,1.432946915E0
3.003655853E0,-6.719436646E-1,-1.478387833E0,-1.028488636E0,1.922219484E0
3.008453613E0,-1.427808523E0,-1.411511421E0,-1.464568377E0,2.485148326E0
3.013251374E0,-2.207851887E0,-1.307339668E0,-1.920874834E0,3.205231207E0
3.018049134E0,-2.941330433E0,-1.199698448E0,-2.458603382E0,4.016893286E0
3.022846894E0,-3.578929186E0,-1.098487854E0,-3.076400995E0,4.845580746E0
3.027644603E0,-4.004471779E0,-1.085286140E0,-3.481900930E0,5.416389418E0
3.032442363E0,-4.262458801E0,-1.110068321E0,-3.670441628E0,5.733493564E0
3.037240124E0,-4.347208023E0,-9.509086609E-1,-3.700202227E0,5.787395044E0
3.042037884E0,-4.312741280E0,-6.944284439E-1,-3.744114399E0,5.753291305E0
3.046835644E0,-4.151334763E0,-4.246292114E-1,-3.793671608E0,5.639666173E0
3.051633353E0,-3.946156025E0,-1.417388916E-1,-3.830789566E0,5.501562141E0
3.056431113E0,-3.799291611E0,1.850757599E-1,-3.851624250E0,5.413305750E0
3.061228874E0,-3.638601303E0,6.321048737E-1,-3.987964630E0,5.435332364E0
3.066026634E0,-3.466225863E0,1.120288849E0,-4.201208115E0,5.560568178E0
3.070824394E0,-3.196629286E0,1.518290520E0,-4.326153755E0,5.589208460E0
3.075622155E0,-2.953162670E0,1.824187279E0,-4.312661171E0,5.536052326E0
3.080419863E0,-2.717580795E0,2.131497860E0,-4.328279018E0,5.537375531E0
3.085217624E0,-2.473832607E0,2.392588615E0,-4.401779175E0,5.587484940E0
3.090015384E0,-2.332274437E0,2.526381493E0,-4.335143089E0,5.533134112E0
3.094813144E0,-2.230917931E0,2.592837811E0,-4.231794834E0,5.441313283E0
3.099610905E0,-2.244452715E0,2.532457352E0,-4.190335274E0,5.386076302E0
3.104408665E0,-2.277901173E0,2.326501369E0,-4.041100025E0,5.189598423E0
3.109206374E0,-2.277034521E0,2.044668674E0,-3.848511696E0,4.916970457E0
3.114004134E0,-2.202033758E0,1.730282307E0,-3.559662342E0,4.529241164E0
3.118801894E0,-2.098508835E0,1.538779259E0,-3.505687714E0,4.365939450E0
3.123599655E0,-1.968522549E0,1.192768097E0,-3.184065342E0,3.928873739E0
3.128397415E0,-1.797756672E0,9.027481079E-1,-2.993807316E0,3.606905244E0
3.133195176E0,-1.626694918E0,7.235469818E-1,-2.855661154E0,3.365183088E0
3.137992936E0,-1.395508051E0,5.044631958E-1,-2.752685785E0,3.127172024E0
3.142790644E0,-1.140220642E0,3.626604080E-1,-2.670208931E0,2.926028267E0
3.147588405E0,-8.632459641E-1,2.310905457E-1,-2.599027157E0,2.748370171E0
3.152386165E0,-5.977597237E-1,1.191940308E-1,-2.486876726E0,2.560484281E0
3.157183926E0,-4.270057678E-1,1.969623566E-2,-2.503275871E0,2.539510180E0
3.161981686E0,-2.026491165E-1,8.546924591E-2,-2.356526852E0,2.366767935E0
3.166779394E0,-3.928017616E-2,1.226673126E-1,-2.018519402E0,2.022624725E0
3.171577155E0,8.276081085E-2,3.319244385E-1,-1.857456803E0,1.888695042E0
3.176374915E0,1.641838551E-1,4.739208221E-1,-1.820375919E0,1.888207026E0
3.181172676E0,2.988184690E-1,6.179113388E-1,-1.911988020E0,2.031453935E0
3.185970436E0,3.964065313E-1,7.350521088E-1,-2.015645742E0,2.181803726E0
3.190768196E0,4.767124653E-1,8.873538971E-1,-2.287056923E0,2.499056038E0
3.195565957E0,5.068376064E-1,1.043599129E0,-2.592162132E0,2.839945074E0
3.200363665E0,5.469686985E-1,1.251496315E0,-2.792345285E0,3.108473898E0
3.205161426E0,5.496249199E-1,1.377110481E0,-2.875845432E0,3.235584612E0
3.209959186E0,5.100473166E-1,1.389516830E0,-2.921704054E0,3.275249588E0
3.214756946E0,4.926619530E-1,1.422684669E0,-2.827679157E0,3.203516331E0
3.219554707E0,4.567192793E-1,1.309332848E0,-2.689888239E0,3.026292078E0
3.224352415E0,3.969814777E-1,1.205060959E0,-2.728431702E0,3.009004114E0
3.229150176E0,3.342689276E-1,1.033577919E0,-2.689323902E0,2.900427913E0
3.233947936E0,2.774565220E-1,7.617044449E-1,-2.624773264E0,2.747109475E0
3.238745696E0,1.756829023E-1,3.133258820E-1,-2.627317429E0,2.651760634E0
3.243543457E0,8.578538895E-2,-2.155685425E-1,-2.553020954E0,2.563541480E0
3.248341217E0,-9.379863739E-3,-7.506742477E-1,-2.368122816E0,2.484271620E0
3.253138978E0,2.075672150E-3,-1.110239983E0,-2.076764822E0,2.354907483E0
3.257936686E0,-6.345033646E-3,-1.497610092E0,-1.659121275E0,2.235074865E0
3.262734446E0,-7.948374748E-2,-1.865077019E0,-1.361612320E0,2.310588250E0
3.267532207E0,-2.555308342E-1,-2.274847984E0,-1.158658147E0,2.565680818E0
3.272329967E0,-3.978569508E-1,-2.586016655E0,-8.860461712E-1,2.762399339E0
3.277127728E0,-5.061204433E-1,-2.782102585E0,-5.990214348E-1,2.890515417E0
3.281925488E0,-5.919871330E-1,-2.825088501E0,-2.422026992E-1,2.896590401E0
3.286723196E0,-6.865830421E-1,-2.927790642E0,1.060775518E-1,3.009087364E0
3.291520957E0,-8.328838348E-1,-2.884566307E0,3.178663254E-1,3.019181555E0
3.296318717E0,-9.109182358E-1,-2.710007668E0,5.230846405E-1,2.906463681E0
3.301116478E0,-1.037612200E0,-2.507063866E0,5.670511723E-1,2.771922679E0
3.305914238E0,-1.073662519E0,-2.254363060E0,3.768936992E-1,2.525262931E0
3.310711999E0,-1.128034115E0,-1.875706673E0,1.739410162E-1,2.195675742E0
3.315509759E0,-1.058467150E0,-1.543592453E0,1.887160540E-2,1.871733556E0
3.320307467E0,-1.030018091E0,-1.387056351E0,-6.444936991E-2,1.728877182E0
3.325105228E0,-8.342630863E-1,-1.386406898E0,-2.746807039E-1,1.641209455E0
3.329902988E0,-5.967609882E-1,-1.400279999E0,-5.086892843E-1,1.604890196E0
3.334700749E0,-3.576600552E-1,-1.428805351E0,-8.314489126E-1,1.691364166E0
3.339498509E0,-2.225849628E-1,-1.615319252E0,-1.124369502E0,1.980658256E0
3.344296269E0,-8.971595764E-2,-2.004967690E0,-1.127299070E0,2.301900863E0
3.349093978E0,1.848745346E-2,-2.511472702E0,-9.467043877E-1,2.684042868E0
3.353891738E0,2.288124561E-1,-2.970079422E0,-5.525363684E-1,3.029690306E0
3.358689499E0,4.641973972E-1,-3.347527504E0,-2.181577086E-1,3.386593037E0
3.363487259E0,6.693296432E-1,-3.878242493E0,-4.229016602E-3,3.935579359E0
3.368285019E0,7.985813618E-1,-4.392468452E0,3.601123095E-1,4.478972223E0
3.373082780E0,9.184565544E-1,-4.816102982E0,8.623663187E-1,4.978160909E0
3.377880488E0,1.153358698E0,-4.867309570E0,1.444630504E0,5.206524372E0
3.382678249E0,1.391258836E0,-5.034041405E0,1.789496899E0,5.520821783E0
3.387476009E0,1.656714439E0,-5.086797714E0,1.609974861E0,5.586790919E0
3.392273769E0,1.952121019E0,-5.166604996E0,1.324659109E0,5.679727583E0
3.397071530E0,2.321854830E0,-5.258674622E0,1.124480128E0,5.857399097E0
3.401869290E0,2.685534000E0,-5.422155380E0,9.730032086E-1,6.128506921E0
3.406666999E0,2.936851501E0,-5.560908318E0,9.061246514E-1,6.353728035E0
3.411464759E0,3.180208683E0,-5.545628548E0,8.072956204E-1,6.443558759E0
3.416262519E0,3.315159559E0,-5.273855209E0,5.157296062E-1,6.250584669E0
3.421060280E0,3.289288044E0,-5.061423302E0,4.793309569E-1,6.055343082E0
3.425858040E0,3.029100180E0,-4.784112930E0,6.191015840E-1,5.696180404E0
3.430655801E0,2.715262175E0,-4.346933365E0,4.438219070E-1,5.144458790E0
3.435453509E0,2.370368719E0,-3.920259476E0,1.700990200E-1,4.584322840E0
3.440251269E0,1.804622650E0,-3.466406822E0,-6.252169609E-2,3.908522499E0
3.445049030E0,1.094221830E0,-3.057756424E0,-1.628834009E-1,3.251726736E0
3.449846790E0,1.486699581E-1,-2.257927895E0,-6.199772358E-1,2.346212460E0
3.454644551E0,-8.526279926E-1,-1.627509117E0,-1.157711506E0,2.171648303E0
3.459442311E0,-1.492537975E0,-1.219156265E0,-1.107810497E0,2.222893543E0
3.464240071E0,-2.079735279E0,-1.094394684E0,-7.168755531E-1,2.457012233E0
3.469037780E0,-2.488089085E0,-1.037277222E0,-3.887972832E-1,2.723544502E0
3.473835540E0,-2.754552364E0,-9.493770599E-1,-4.658308029E-1,2.950571786E0
3.478633301E0,-3.120286942E0,-2.810783386E-1,-5.491175652E-1,3.180680074E0
3.483431061E0,-3.069287300E0,3.530235291E-1,-4.101660252E-1,3.116630602E0
3.488228821E0,-2.880513906E0,7.194576263E-1,-3.131592274E-1,2.985472884E0
3.493026582E0,-2.641508341E0,1.108330727E0,-3.254659176E-1,2.883035098E0
3.497824290E0,-2.439826488E0,1.446046829E0,-3.202359676E-1,2.854182160E0
3.502622051E0,-2.210298061E0,1.967463493E0,-6.916654110E-1,3.038870046E0
3.507419811E0,-1.716627836E0,2.354704857E0,-2.253305912E-1,2.922707643E0
3.512217571E0,-1.221172571E0,2.111582756E0,3.391335011E-1,2.462733383E0
3.517015332E0,-7.442522049E-1,2.290751934E0,4.882657528E-1,2.457612503E0
3.521813092E0,-2.847015858E-1,2.622093201E0,5.932068825E-1,2.703390862E0
3.526610801E0,9.197211266E-2,3.000623703E0,7.044904232E-1,3.083586910E0
3.531408561E0,4.328091145E-1,3.405208588E0,8.411707878E-1,3.534167165E0
3.536206321E0,6.825540066E-1,3.829020977E0,1.105598688E0,4.043467580E0
3.541004082E0,9.370913506E-1,4.079026699E0,1.613448143E0,4.485511556E0
3.545801842E0,1.092177868E0,4.260838032E0,2.222369909E0,4.928135676E0
3.550599603E0,1.055898786E0,4.412810326E0,2.726009607E0,5.293292510E0
3.555397363E0,1.004110813E0,4.611204147E0,3.004964590E0,5.594752399E0
3.560195071E0,9.792540073E-1,4.946231365E0,3.250772476E0,5.999305362E0
3.564992832E0,9.450280666E-1,5.256766319E0,3.373325586E0,6.317119256E0
3.569790592E0,9.748657942E-1,5.537364006E0,3.394776344E0,6.567896915E0
3.574588353E0,9.361009598E-1,5.816117287E0,3.275306225E0,6.740262322E0
3.579386113E0,8.967919350E-1,6.149815559E0,3.085034847E0,6.938436942E0
3.584183874E0,1.099027395E0,6.199056149E0,3.303921700E0,7.109996972E0
3.588981634E0,1.339432478E0,5.981319904E0,3.345107079E0,6.982836711E0
3.593779342E0,1.600487113E0,5.619360924E0,3.387400150E0,6.753758655E0
3.598577103E0,1.754128695E0,5.214047432E0,2.965103388E0,6.249407668E0
3.603374863E0,1.885099888E0,4.954206467E0,2.412032366E0,5.823715604E0
3.608172624E0,2.078093052E0,4.834635735E0,1.808726072E0,5.564500285E0
3.612970384E0,2.167113304E0,4.771305561E0,1.338081360E0,5.408530166E0
3.617768144E0,2.228344202E0,4.797211647E0,9.533376694E-1,5.374719544E0
3.622565905E0,2.177831650E0,4.981427670E0,6.525073051E-1,5.475704348E0
3.627363613E0,2.104094744E0,5.185061455E0,4.309363365E-1,5.612288580E0
3.632161374E0,1.918918371E0,5.412865162E0,2.453718185E-1,5.748179217E0
3.636959134E0,1.754090190E0,5.664818287E0,5.256485939E-2,5.930409908E0
3.641756894E0,1.574498296E0,5.842661858E0,-2.406578064E-1,6.055878024E0
3.646554655E0,1.459930420E0,5.876677036E0,-5.165264606E-1,6.077296225E0
3.651352415E0,1.410901904E0,5.728485107E0,-7.245211601E-1,5.943998378E0
3.656150124E0,1.434640169E0,5.505550385E0,-9.070796967E-1,5.761256029E0
3.660947884E0,1.475746870E0,5.169714928E0,-1.135591984E0,5.494847624E0
3.665745644E0,1.471694827E0,4.775939941E0,-1.349576235E0,5.176566816E0
3.670543405E0,1.433938265E0,4.336337566E0,-1.582272291E0,4.833589561E0
3.675341165E0,1.316573024E0,3.896284103E0,-1.950085640E0,4.551618212E0
3.680138926E0,1.083358288E0,3.383846283E0,-2.368200302E0,4.269947718E0
3.684936634E0,7.921030521E-1,2.717589378E0,-2.482429504E0,3.764993429E0
3.689734394E0,5.989198685E-1,1.883081436E0,-2.598903894E0,3.264812729E0
3.694532155E0,2.974593639E-1,5.462913513E-1,-2.870834351E0,2.937448924E0
3.699329915E0,2.163419724E-1,-1.195860863E0,-3.222277641E0,3.443829300E0
3.704127676E0,1.650729179E-1,-3.279736519E0,-3.704706430E0,4.950633337E0
3.708925436E0,1.040441990E-1,-5.551001549E0,-4.230916500E0,6.980336512E0
3.713723196E0,-1.085016727E-1,-7.643321991E0,-4.918588638E0,9.089810662E0
3.718520905E0,-2.985033989E-1,-9.370209694E0,-5.529013634E0,1.088392970E1
3.723318665E0,-5.375404358E-1,-1.053863525E1,-5.935742855E0,1.210722206E1
3.728116426E0,-5.425813198E-1,-1.087019157E1,-6.055158615E0,1.245473425E1
3.732914186E0,-5.787947178E-1,-1.010160446E1,-5.261453629E0,1.140439873E1
3.737711946E0,-3.198702335E-1,-8.510200500E0,-4.454306602E0,9.610758390E0
3.742509707E0,2.686982155E-1,-6.274874687E0,-3.361408949E0,7.123575029E0
3.747307467E0,1.011955857E0,-4.094516754E0,-2.139184237E0,4.729189286E0
3.752105228E0,1.496315837E0,-2.198025703E0,-1.211638212E0,2.922044701E0
3.756902936E0,1.697528601E0,-4.026174545E-1,-6.752190590E-1,1.870728452E0
3.761700696E0,1.835493088E0,1.192031860E0,-5.136699677E-1,2.248072878E0
3.766498457E0,1.972138047E0,2.686935902E0,-6.339280605E-1,3.392759615E0
3.771296217E0,2.195672274E0,3.852932930E0,-1.004683018E0,4.547027256E0
3.776093978E0,2.519551754E0,4.389782429E0,-1.310715675E0,5.228413373E0
3.780891738E0,2.944101334E0,3.601037502E0,-1.114897251E0,4.783116101E0
3.785689446E0,3.053951979E0,3.403286934E0,-2.592372656E0,5.256365724E0
3.790487207E0,2.908481121E0,3.332768917E0,-3.798346996E0,5.830441749E0
3.795284967E0,3.086761713E0,1.826850414E0,-3.853514671E0,5.264509059E0
3.800082728E0,3.101030111E0,-7.695178986E-1,-3.537800074E0,4.767029988E0
3.804880488E0,2.684401035E0,-3.246836662E0,-3.496273041E0,5.474658200E0
3.809678249E0,1.634001613E0,-5.343851089E0,-3.297955036E0,6.488698880E0
3.814476009E0,2.872078419E-1,-6.644790649E0,-2.474493504E0,7.096396918E0
3.819273769E0,-1.025155306E0,-7.396761894E0,-1.064562082E0,7.542965090E0
3.824071478E0,-2.132615328E0,-7.725325584E0,2.636418343E-1,8.018616498E0
3.828869238E0,-2.914078712E0,-8.030954361E0,1.238493919E0,8.632609680E0
3.833666999E0,-3.315567493E0,-7.973067284E0,1.969353557E0,8.856700466E0
3.838464759E0,-3.313376427E0,-7.724644661E0,2.748864174E0,8.843350764E0
3.843262519E0,-3.015949965E0,-7.722759247E0,3.219025612E0,8.893766944E0
3.848060280E0,-2.486024857E0,-6.762416840E0,3.386129618E0,7.960934297E0
3.852857988E0,-1.752941132E0,-4.549080849E0,3.481635809E0,5.990720081E0
3.857655749E0,-9.460253716E-1,-2.343860626E0,3.876331329E0,4.627590217E0
3.862453509E0,-2.335097790E-1,-7.961406708E-1,4.274937630E0,4.354705331E0
3.867251269E0,2.666983604E-1,4.660453796E-1,4.504242897E0,4.536136064E0
3.872049030E0,5.279936790E-1,1.637098789E0,4.515887737E0,4.832402283E0
3.876846790E0,5.238609314E-1,2.652943134E0,4.352651596E0,5.124267115E0
3.881644499E0,3.122639656E-1,3.525787830E0,4.246123314E0,5.527951864E0
3.886442259E0,-1.556751728E-1,4.250762939E0,4.062200069E0,5.881725064E0
3.891240019E0,-7.017765045E-1,4.705943584E0,3.877144337E0,6.137641525E0
3.896037780E0,-1.155212879E0,4.800514698E0,3.741058111E0,6.194753744E0
3.900835540E0,-1.541961670E0,4.721077442E0,3.551277161E0,6.105553822E0
3.905633301E0,-1.764453888E0,4.472529411E0,3.370343447E0,5.871629400E0
3.910431061E0,-1.795106411E0,4.076746464E0,3.284386396E0,5.534389104E0
3.915228821E0,-1.711409569E0,3.531534672E0,3.233979464E0,5.085202358E0
3.920026530E0,-1.616374254E0,3.231130600E0,3.066855669E0,4.739037284E0
3.924824290E0,-1.464890718E0,2.647267342E0,3.318024635E0,4.490347055E0
3.929622051E0,-1.314554691E0,1.904849052E0,3.706455708E0,4.369704551E0
3.934419811E0,-1.100938082E0,1.171579838E0,4.123548508E0,4.425868985E0
3.939217571E0,-9.225225449E-1,3.543682098E-1,4.463739395E0,4.571826119E0
3.944015332E0,-6.296899319E-1,-4.868593216E-1,4.519531250E0,4.589085326E0
3.948813092E0,-4.648225307E-1,-1.132497787E0,4.249783993E0,4.422586936E0
3.953610801E0,-2.995719910E-1,-1.604731560E0,3.695405006E0,4.039916449E0
3.958408561E0,-1.302061081E-1,-1.983072281E0,2.943240404E0,3.551365002E0
3.963206321E0,1.353046894E-1,-2.418485641E0,2.120608330E0,3.219372586E0
3.968004082E0,5.103087425E-1,-2.696133614E0,1.273515224E0,3.025126857E0
3.972801842E0,8.912463188E-1,-2.969553947E0,3.716840744E-1,3.122614241E0
3.977599603E0,1.083031178E0,-2.837818146E0,-6.182551384E-2,3.038089985E0
3.982397363E0,1.084604025E0,-2.657500267E0,-1.599271297E-1,2.874760903E0
3.987195071E0,1.027141213E0,-2.082061768E0,5.063962936E-2,2.322189624E0
3.991992832E0,9.824593067E-1,-1.238655090E0,4.303238392E-1,1.638496667E0
3.996790592E0,9.502816200E-1,-3.712472916E-1,7.678651810E-1,1.276901188E0
4.001588353E0,1.014921546E0,4.960622787E-1,1.067673683E0,1.554371456E0
4.006386113E0,9.820156097E-1,8.592100143E-1,1.264950395E0,1.817332113E0
4.011183874E0,9.838126898E-1,1.065773010E0,1.261687994E0,1.922398531E0
4.015981634E0,9.672175646E-1,1.431455612E0,1.294716358E0,2.158903758E0
4.020779342E0,8.791209459E-1,1.724168777E0,1.455344915E0,2.421495495E0
4.025577103E0,7.202247381E-1,1.786323071E0,1.656112075E0,2.540153734E0
4.030374863E0,5.237383842E-1,1.761499882E0,1.866161108E0,2.619110729E0
4.035172624E0,3.386011124E-1,1.742821693E0,2.080086470E0,2.734746403E0
4.039970384E0,2.033269405E-1,1.770819187E0,2.302638054E0,2.911921092E0
4.044768144E0,1.944072247E-1,1.735561848E0,2.531174898E0,3.075193565E0
4.049565905E0,1.778230667E-1,1.620567322E0,2.631619453E0,3.095687393E0
4.054363665E0,1.267912388E-1,1.314029694E0,2.555869579E0,2.876668100E0
4.059161374E0,-1.136772633E-1,1.272993088E0,2.245968342E0,2.584145451E0
4.063959134E0,-1.743764877E-1,1.074437141E0,2.477637768E0,2.706198669E0
4.068756894E0,-4.483463764E-1,9.792032242E-1,2.233517647E0,2.479607732E0
4.073554655E0,-7.057821751E-1,1.101829529E0,2.148554802E0,2.515639983E0
4.078352415E0,-1.250702381E0,9.117708206E-1,1.560421824E0,2.197839563E0
4.083150176E0,-1.571369886E0,1.682652473E0,9.359400272E-1,2.485257814E0
4.087947936E0,-2.025637388E0,1.683068275E0,8.756619692E-1,2.775375566E0
4.092745644E0,-2.278598070E0,1.155648232E0,1.894858599E0,3.180883699E0
4.097543405E0,-2.091205120E0,7.536172867E-1,2.078283548E0,3.043080738E0
4.102341165E0,-1.839071989E0,4.027719498E-1,1.873012543E0,2.655670727E0
4.107138926E0,-1.627907515E0,-9.041309357E-2,1.463463545E0,2.190886339E0
4.111936686E0,-1.375705719E0,1.199569702E-1,3.870404363E-1,1.434139533E0
4.116734446E0,-1.115397930E0,4.114208221E-1,-5.851449966E-1,1.325056339E0
4.121532207E0,-7.912840843E-1,5.016851425E-1,-1.058960080E0,1.413935973E0
4.126329967E0,-5.653336048E-1,5.366020203E-1,-8.388028145E-1,1.145047586E0
4.131127676E0,-2.052474022E-1,6.260786057E-1,-9.172757268E-1,1.129378447E0
4.135925436E0,1.597650051E-1,6.361875534E-1,-8.059889078E-1,1.039171583E0
4.140723196E0,4.290008545E-1,7.176532745E-1,-9.062467217E-1,1.233025173E0
4.145520957E0,6.619428396E-1,8.298101425E-1,-1.087761164E0,1.519861028E0
4.150318717E0,8.246504068E-1,8.580350876E-1,-1.232794762E0,1.713492174E0
4.155116478E0,9.546782970E-1,8.575906754E-1,-1.238158941E0,1.783230210E0
4.159914238E0,1.008210421E0,8.335304260E-1,-1.092222810E0,1.704174841E0
4.164711946E0,1.063179493E0,5.949821472E-1,-6.903931499E-1,1.400356059E0
4.169509707E0,9.375218153E-1,3.932619095E-1,-4.300157726E-1,1.103863963E0
4.174307467E0,7.054786682E-1,1.805238724E-1,-1.745728552E-1,7.488422408E-1
4.179105228E0,2.599174976E-1,1.072502136E-1,1.476800740E-1,3.175989895E-1
4.183902988E0,-2.569155693E-1,1.490821838E-1,-4.782771170E-1,5.630098649E-1
4.188700749E0,-7.957732677E-1,2.171201706E-1,-1.001954556E0,1.297809383E0
4.193498509E0,-1.439178228E0,2.776384354E-1,-1.316250086E0,1.969982579E0
4.198296269E0,-2.118881702E0,4.212217331E-1,-1.699148417E0,2.748489177E0
4.203093978E0,-2.821846008E0,6.308784485E-1,-1.697690010E0,3.353054411E0
4.207891738E0,-3.487410069E0,9.589967728E-1,-1.801250815E0,4.040570293E0
4.212689499E0,-4.107850552E0,1.178347588E0,-1.965435743E0,4.703815138E0
4.217487259E0,-4.615794659E0,1.640290260E0,-2.668180227E0,5.578108837E0
4.222285019E0,-5.001787186E0,1.974083900E0,-3.427728653E0,6.376849223E0
4.227082780E0,-5.290451050E0,2.058142185E0,-3.579524040E0,6.711021824E0
4.231880540E0,-5.563563347E0,2.110365391E0,-3.351802349E0,6.829455189E0
4.236678301E0,-5.890350819E0,2.185791016E0,-2.437743187E0,6.739177025E0
4.241476009E0,-6.191981792E0,2.406265259E0,-2.988480330E0,7.284350739E0
4.246273769E0,-6.435757637E0,2.463478088E0,-2.870599031E0,7.465121530E0
4.251071530E0,-6.603221893E0,2.319607735E0,-1.331855059E0,7.124391715E0
4.255869290E0,-7.086149216E0,2.796853542E0,-2.666578054E0,8.071340593E0
4.260667051E0,-7.301395416E0,2.823824883E0,-3.139727831E0,8.434586703E0
4.265464811E0,-7.432036877E0,2.551947594E0,-2.538920641E0,8.257949302E0
4.270262571E0,-7.533367157E0,2.497882843E0,-2.209794521E0,8.238581871E0
4.275060280E0,-7.543025970E0,2.510729313E0,-2.113972187E0,8.226170487E0
4.279858040E0,-7.424947739E0,2.449276924E0,-2.279057503E0,8.143887860E0
4.284655801E0,-7.138709068E0,2.163013935E0,-2.471944809E0,7.858136394E0
4.289453561E0,-6.787701607E0,1.712016106E0,-2.651016474E0,7.485437903E0
4.294251321E0,-6.348180771E0,1.347411156E0,-2.734352589E0,7.042130360E0
4.299049082E0,-5.905955315E0,1.068991661E0,-2.704519987E0,6.583120818E0
4.303846842E0,-5.477341175E0,7.833356857E-1,-2.470251560E0,6.059457394E0
4.308644603E0,-5.014222145E0,3.708772659E-1,-2.098134041E0,5.448131801E0
4.313442311E0,-4.585883617E0,-1.252403259E-1,-1.687655568E0,4.888168881E0
4.318240071E0,-4.156522274E0,-6.355857849E-1,-1.269339681E0,4.392251123E0
4.323037832E0,-3.718862534E0,-1.153002739E0,-8.500159383E-1,3.985207768E0
4.327835592E0,-3.291805744E0,-1.679918289E0,-3.798026741E-1,3.715152835E0
4.332633353E0,-2.853469372E0,-2.142322540E0,4.037195444E-2,3.568397850E0
4.337431113E0,-2.331791162E0,-2.559516907E0,3.933971524E-1,3.484700581E0
4.342228874E0,-1.769921303E0,-3.024768829E0,6.456095576E-1,3.563517867E0
4.347026634E0,-1.203805923E0,-3.349241257E0,7.260237336E-1,3.632310031E0
4.351824342E0,-6.980412006E-1,-3.721923828E0,7.859076858E-1,3.867509456E0
4.356622103E0,-1.619753838E-1,-4.047135353E0,7.801956534E-1,4.124832827E0
4.361419863E0,3.275170326E-1,-4.241235733E0,7.047020197E-1,4.311838690E0
4.366217624E0,8.820837736E-1,-4.249280930E0,5.436960459E-1,4.373793044E0
4.371015384E0,1.462520719E0,-4.212326050E0,3.151879311E-1,4.470123156E0
4.375813144E0,1.953351974E0,-4.015602112E0,-2.205930650E-2,4.465549336E0
4.380610905E0,2.468488693E0,-3.628108978E0,-2.488679886E-1,4.395286846E0
4.385408665E0,2.911275148E0,-3.155076027E0,-3.335750401E-1,4.305960988E0
4.390206374E0,3.218695879E0,-2.739892006E0,-3.140278757E-1,4.238587603E0
4.395004134E0,3.507141352E0,-2.377635956E0,-2.238635421E-1,4.243030531E0
4.399801894E0,3.823522091E0,-2.156550407E0,5.284184217E-2,4.390082357E0
4.404599655E0,4.143257618E0,-2.105067253E0,5.191299915E-1,4.676257882E0
4.409397415E0,4.379890442E0,-2.304180145E0,1.060774565E0,5.061415721E0
4.414195176E0,4.476690292E0,-2.600799561E0,1.697269201E0,5.448452723E0
4.418992936E0,4.461499691E0,-3.009520531E0,2.297728062E0,5.851644860E0
4.423790696E0,4.283812523E0,-3.363394737E0,2.896298409E0,6.168631806E0
4.428588457E0,3.953275919E0,-3.557783127E0,3.583990335E0,6.413360897E0
4.433386165E0,3.701657534E0,-3.578846931E0,4.274816513E0,6.692119999E0
4.438183926E0,3.530403137E0,-3.661127090E0,4.740160942E0,6.952461696E0
4.442981686E0,3.411847115E0,-3.751956940E0,4.976614952E0,7.105250030E0
4.447779446E0,3.496833324E0,-3.946666718E0,5.207928658E0,7.411244321E0
4.452577207E0,3.632189274E0,-4.261466980E0,5.416096210E0,7.790185999E0
4.457374967E0,3.626669884E0,-4.626659393E0,5.311586380E0,7.922856900E0
4.462172728E0,3.697089911E0,-4.893823624E0,4.668958664E0,7.708252621E0
4.466970488E0,3.846416712E0,-5.196722984E0,3.462545395E0,7.334171522E0
4.471768196E0,4.053171635E0,-5.518287659E0,2.271436691E0,7.213814776E0
4.476565957E0,4.328571796E0,-5.924867630E0,1.246088028E0,7.442669253E0
4.481363717E0,4.573614597E0,-6.410903931E0,1.325931549E-1,7.876244069E0
4.486161478E0,4.614031792E0,-6.794241905E0,-6.421499252E-1,8.237922612E0
4.490959238E0,4.341003895E0,-6.649508476E0,-1.552534342E0,8.091393000E0
4.495756999E0,3.409090042E0,-5.770024300E0,-2.501684666E0,7.153565649E0
4.500554759E0,2.204494476E0,-5.117685318E0,-3.119490147E0,6.386056505E0
4.505352519E0,8.240962029E-1,-4.611283302E0,-3.684159756E0,5.959538686E0
4.510150228E0,-1.184191704E-1,-4.016827583E0,-3.695077658E0,5.459168969E0
4.514947988E0,-8.264684677E-1,-3.315932274E0,-3.517489672E0,4.904201318E0
4.519745749E0,-1.854635715E0,-2.091841698E0,-2.985294819E0,4.089921818E0
4.524543509E0,-2.545416594E0,-7.143764496E-1,-2.143024206E0,3.403238472E0
4.529341269E0,-2.863121271E0,3.212614059E-1,-1.214864492E0,3.126750396E0
4.534139030E0,-2.978215456E0,3.829164505E-1,-5.851249695E-1,3.059209627E0
4.538936790E0,-3.108048916E0,7.866001129E-1,2.542746067E-1,3.216109976E0
4.543734551E0,-3.120007038E0,1.710623264E0,8.688318729E-1,3.662723671E0
4.548532311E0,-2.662761211E0,2.527983189E0,1.386047363E0,3.924553932E0
4.553330019E0,-2.135869741E0,2.694709778E0,1.898951054E0,3.928029461E0
4.558127780E0,-1.609738588E0,2.741001129E0,2.187211037E0,3.858527910E0
4.562925540E0,-1.125363588E0,2.978545189E0,2.377953291E0,3.974020194E0
4.567723301E0,-6.037840843E-1,3.288324356E0,2.464467049E0,4.153460018E0
4.572521061E0,-1.453056335E-1,3.539568901E0,2.358693600E0,4.255948452E0
4.577318821E0,1.812348366E-1,3.733174801E0,2.194623470E0,4.334260299E0
4.582116582E0,3.651828766E-1,4.020488739E0,2.057947636E0,4.531317326E0
4.586914342E0,5.189266205E-1,4.349100590E0,1.929199219E0,4.785997326E0
4.591712051E0,5.925078392E-1,4.666427135E0,1.729511380E0,5.011767888E0
4.596509811E0,6.723494530E-1,4.941304207E0,1.461605310E0,5.196617278E0
4.601307571E0,6.921370029E-1,5.130661964E0,1.362055779E0,5.353311290E0
4.606105332E0,7.820942402E-1,5.200973988E0,1.487582684E0,5.465775705E0
4.610903092E0,8.787357807E-1,5.216677666E0,1.653570056E0,5.542580299E0
4.615700853E0,9.973273277E-1,5.182446957E0,1.866804123E0,5.597979626E0
4.620498613E0,1.122036695E0,5.076526642E0,2.062696457E0,5.593282200E0
4.625296374E0,1.234463692E0,4.934630394E0,2.253152847E0,5.563378064E0
4.630094134E0,1.387614846E0,4.763826847E0,2.459671021E0,5.538005302E0
4.634891842E0,1.555700064E0,4.595118046E0,2.713043213E0,5.558409486E0
4.639689603E0,1.765394568E0,4.488099098E0,2.941459656E0,5.649056240E0
4.644487363E0,1.931072831E0,4.475899220E0,3.080568552E0,5.766508363E0
4.649285124E0,2.081750870E0,4.615285873E0,3.004661560E0,5.887490252E0
4.654082884E0,2.162693024E0,4.853062630E0,2.841480255E0,6.025235933E0
4.658880644E0,2.229102135E0,5.128802776E0,2.592365265E0,6.163916929E0
4.663678405E0,2.343098164E0,5.456411362E0,2.330108643E0,6.379023455E0
4.668476165E0,2.416063309E0,5.725636482E0,2.127193451E0,6.568502646E0
4.673273926E0,2.486444235E0,5.821690559E0,2.014830589E0,6.643344655E0
4.678071634E0,2.549818516E0,5.787700653E0,2.033463478E0,6.643344567E0
4.682869394E0,2.611438751E0,5.681159496E0,2.079745293E0,6.589425321E0
4.687667155E0,2.673975468E0,5.525929451E0,2.124972820E0,6.496272053E0
4.692464915E0,2.670417070E0,5.331510544E0,2.119308710E0,6.328317424E0
4.697262676E0,2.571569204E0,5.164970398E0,2.086953640E0,6.135573558E0
4.702060436E0,2.465016842E0,4.992897987E0,2.028638363E0,5.926273024E0
4.706858196E0,2.302140236E0,4.984896660E0,1.544019938E0,5.703774359E0
4.711655957E0,2.214623690E0,4.655560970E0,1.838152528E0,5.473354616E0
4.716453665E0,2.136720657E0,3.821992874E0,2.266283989E0,4.930440935E0
4.721251426E0,2.045614243E0,2.829714298E0,2.540619135E0,4.318166999E0
4.726049186E0,1.993256688E0,2.028316021E0,2.476602316E0,3.771033961E0
4.730846946E0,1.750125766E0,1.135625362E0,2.244185925E0,3.064140275E0
4.735644707E0,1.370998383E0,-2.640476227E-1,1.910928011E0,2.366643948E0
4.740442467E0,1.177274227E0,-2.308419228E0,1.449165702E0,2.968982177E0
4.745240228E0,1.185698509E0,-4.585289955E0,7.483952045E-1,4.794878550E0
4.750037988E0,1.322163820E0,-6.635271072E0,-2.822287083E-1,6.771601909E0
4.754835749E0,1.558310151E0,-8.601937294E0,-1.410583496E0,8.855021261E0
4.759633457E0,1.828590512E0,-1.024431801E1,-2.794409752E0,1.077490235E1
4.764431217E0,1.938511014E0,-1.133677006E1,-4.267133236E0,1.226737977E1
4.769228978E0,1.918745279E0,-1.163293171E1,-5.601971626E0,1.305330493E1
4.774026738E0,2.064203501E0,-1.080286407E1,-6.252302647E0,1.265124882E1
4.778824499E0,2.560941696E0,-9.340742111E0,-6.294796944E0,1.155129231E1
4.783622259E0,3.345900297E0,-7.574333191E0,-6.056490898E0,1.025897919E1
4.788420019E0,4.190443993E0,-5.531805038E0,-5.945329666E0,9.138251073E0
4.793217780E0,4.792284966E0,-3.396649361E0,-5.833199501E0,8.278250932E0
4.798015540E0,4.813110352E0,-1.596085548E0,-5.617223740E0,7.567477973E0
4.802813301E0,4.570759773E0,-2.200584412E-1,-5.283571243E0,6.989735024E0
4.807611009E0,4.037583828E0,6.151456833E-1,-4.549615860E0,6.113876990E0
4.812408769E0,3.331389904E0,1.588638783E0,-3.919873953E0,5.383989569E0
4.817206530E0,2.645073414E0,2.329364777E0,-3.332507610E0,4.850562916E0
4.822004290E0,1.937571049E0,2.509939194E0,-2.473528385E0,4.021482189E0
4.826802051E0,1.283338189E0,2.290853024E0,-1.517258883E0,3.032662032E0
4.831599811E0,6.904356480E-1,1.920620918E0,-5.706372261E-1,2.119224608E0
4.836397571E0,-4.008817673E-2,1.449147224E0,8.370400667E-1,1.673998451E0
4.841195332E0,-1.022165775E0,9.190158844E-1,2.494162560E0,2.847851812E0
4.845993040E0,-2.029399157E0,5.443344116E-1,3.406232834E0,4.002147299E0
4.850790801E0,-1.751727343E0,8.648872375E-3,2.075538635E0,2.715968356E0
4.855588561E0,-1.642508984E0,-1.678883553E0,1.913688183E0,3.029634995E0
4.860386321E0,-1.865287542E0,-2.855432510E0,2.330787897E0,4.131024650E0
4.865184082E0,-1.995224714E0,-3.939487457E0,2.682672977E0,5.166935009E0
4.869981842E0,-2.152627468E0,-4.964311600E0,3.037997961E0,6.205451336E0
4.874779603E0,-2.290089369E0,-5.769429207E0,3.512409687E0,7.132169691E0
4.879577363E0,-2.379137278E0,-6.500239372E0,4.320681095E0,8.159760487E0
4.884375124E0,-2.531841516E0,-7.132284164E0,5.332465172E0,9.258233291E0
4.889172884E0,-2.819153547E0,-7.359593391E0,6.064604282E0,9.944378649E0
4.893970592E0,-3.206706762E0,-7.510388374E0,6.360637665E0,1.035116483E1
4.898768353E0,-3.626749992E0,-7.234406471E0,6.116218090E0,1.014386890E1
4.903566113E0,-3.690358639E0,-6.616681099E0,5.555692196E0,9.394941800E0
4.908363874E0,-3.073738813E0,-5.906376839E0,4.670332909E0,8.132967917E0
4.913161634E0,-2.009307623E0,-5.115358353E0,3.383889198E0,6.454061846E0
4.917959394E0,-8.340559006E-1,-4.109654427E0,1.967928886E0,4.632240587E0
4.922757155E0,2.379002571E-1,-3.070659637E0,6.983630657E-1,3.158046566E0
4.927554915E0,1.072572708E0,-2.043399811E0,-4.216029644E-1,2.345984668E0
4.932352624E0,1.980906963E0,-1.125105858E0,-1.396712303E0,2.672201498E0
4.937150384E0,2.878807545E0,-3.380422592E-1,-1.538535714E0,3.281599853E0
4.941948144E0,3.906564713E0,1.721286774E-1,-6.958446503E-1,3.971784978E0
4.946745905E0,5.221740723E0,6.973161697E-1,7.636355162E-1,5.323153691E0
4.951543665E0,6.316071510E0,1.122286797E0,2.313659191E0,6.819479880E0
4.956341426E0,7.079851627E0,1.677762508E0,3.884659052E0,8.248015643E0
4.961139186E0,7.509429932E0,2.139348030E0,4.951600075E0,9.245901319E0
4.965936946E0,7.547266006E0,2.456460953E0,5.713008404E0,9.779258132E0
4.970734707E0,7.305280209E0,2.196093082E0,6.253177643E0,9.863679556E0
4.975532467E0,6.890643120E0,1.974461079E0,6.313587189E0,9.552007242E0
4.980330228E0,6.257793427E0,1.656298637E0,6.136095524E0,8.919359395E0
4.985127936E0,5.590836525E0,1.225979328E0,5.945367336E0,8.252749307E0
4.989925696E0,4.851565361E0,6.369352341E-1,5.778810978E0,7.572187878E0
4.994723457E0,3.927191973E0,2.099018097E-1,5.641008377E0,6.876617706E0
4.999521217E0,2.657046318E0,-4.046220779E-1,5.845186234E0,6.433491763E0
5.004318978E0,1.217574596E0,-8.455686569E-1,6.020860195E0,6.200663815E0
5.009116738E0,8.696293831E-2,-1.234292030E0,5.710216522E0,5.842740119E0
5.013914499E0,-7.031250000E-1,-1.774940491E0,5.101120949E0,5.446671777E0
5.018712259E0,-1.477144957E0,-2.463393211E0,4.268480778E0,5.144918997E0
5.023510019E0,-2.066974163E0,-2.972881317E0,3.188951015E0,4.824915968E0
5.028307728E0,-2.479665041E0,-3.290015221E0,2.001397848E0,4.580232769E0
5.033105488E0,-2.760205507E0,-3.410331726E0,1.063521504E0,4.514440709E0
5.037903249E0,-2.689236403E0,-3.094122887E0,3.255604506E-1,4.112368961E0
5.042701009E0,-1.889442205E0,-2.659874916E0,-1.541886330E-1,3.266297683E0
5.047498769E0,-9.101440907E-1,-2.286675453E0,-5.410771370E-1,2.519922888E0
5.052296530E0,9.512662888E-2,-2.065198898E0,-6.572402716E-1,2.169345602E0
5.057094290E0,1.020242453E0,-2.007575989E0,-2.533655167E-1,2.266153150E0
5.061892051E0,1.596462011E0,-1.768168449E0,4.564029574E-1,2.425575041E0
5.066689811E0,2.035228729E0,-1.349021912E0,1.081996918E0,2.670717774E0
5.071487571E0,2.264099598E0,-9.938821793E-1,1.540498257E0,2.913259970E0
5.076285280E0,2.338276148E0,-6.309957504E-1,2.205020666E0,3.275333131E0
5.081083040E0,2.210991859E0,-1.316108704E-1,2.840289354E0,3.601812050E0
5.085880801E0,1.830487967E0,1.837549210E-1,3.480336666E0,3.936647733E0
5.090678561E0,1.249930859E0,3.464431763E-1,4.086653233E0,4.287549961E0
5.095476321E0,5.067353249E-1,9.083290100E-1,4.306711197E0,4.430530850E0
5.100274082E0,-2.693424225E-1,1.760365009E0,4.160530567E0,4.525643038E0
5.105071842E0,-1.116290808E0,2.420972347E0,3.758264780E0,4.607794096E0
5.109869603E0,-2.129931688E0,3.066572666E0,3.233985901E0,4.939548737E0
5.114667363E0,-2.919121742E0,3.443464756E0,2.735934258E0,5.278641637E0
5.119465124E0,-3.529414177E0,3.255696297E0,2.118835926E0,5.248408186E0
5.124262884E0,-4.142918110E0,2.896039486E0,1.627895832E0,5.310448193E0
5.129060592E0,-4.349226952E0,2.613426208E0,1.048314929E0,5.181190579E0
5.133858353E0,-4.090442657E0,2.092660427E0,3.249224424E-1,4.606139749E0
5.138656113E0,-3.931274414E0,1.685274601E0,4.160791636E-3,4.277275571E0
5.143453874E0,-3.538820505E0,1.455335617E0,-1.954559684E-1,3.831377737E0
5.148251634E0,-3.012705326E0,1.294594765E0,-4.689082503E-1,3.312437763E0
5.153049394E0,-2.469736814E0,9.112186432E-1,-4.955768585E-1,2.678715321E0
5.157847155E0,-2.022231817E0,4.154176712E-1,-4.025981426E-1,2.103349383E0
5.162644915E0,-1.686893702E0,1.658372879E-1,-7.058856487E-1,1.836133687E0
5.167442676E0,-1.459063292E0,-6.714725494E-2,-1.112838745E0,1.836241954E0
5.172240436E0,-1.315624475E0,-2.903470993E-1,-1.544342995E0,2.049430283E0
5.177038196E0,-1.329078197E0,-3.456726074E-1,-1.935678482E0,2.373349867E0
5.181835905E0,-1.387733459E0,-3.811683655E-1,-2.360754728E0,2.764824834E0
5.186633665E0,-1.496787548E0,-3.823289871E-1,-2.675586462E0,3.089548727E0
5.191431426E0,-1.568140984E0,-3.729372025E-1,-2.858191967E0,3.281373131E0
5.196229186E0,-1.637647867E0,-2.765359879E-1,-2.891448259E0,3.334491824E0
5.201027237E0,-1.659435272E0,-1.794443130E-1,-2.823264122E0,3.279747854E0
5.205824998E0,-1.671344519E0,-7.465457916E-2,-2.636893988E0,3.122847372E0
5.210622758E0,-1.651272297E0,-3.027915955E-3,-2.387508392E0,2.902913311E0
5.215420519E0,-1.636582613E0,1.522541046E-1,-2.301789045E0,2.828394734E0
5.220218279E0,-1.686393738E0,3.000688553E-1,-2.185440540E0,2.776709476E0
5.225015987E0,-1.678291082E0,4.785156250E-1,-1.895328999E0,2.576414208E0
5.229813748E0,-1.497104406E0,5.989522934E-1,-1.671011567E0,2.322142354E0
5.234611508E0,-1.317503929E0,5.706396103E-1,-1.431909800E0,2.027760302E0
5.239409269E0,-1.165852070E0,6.399478912E-1,-1.321930408E0,1.875165155E0
5.244207029E0,-1.068399429E0,7.613496780E-1,-1.343673468E0,1.877921473E0
5.249004790E0,-9.320983887E-1,8.846702576E-1,-1.399315000E0,1.899876664E0
5.253802550E0,-8.336999416E-1,1.031494141E0,-1.486699820E0,1.992313256E0
5.258600310E0,-7.898986340E-1,1.275882721E0,-1.565245271E0,2.168365589E0
5.263398071E0,-7.529213428E-1,1.522147655E0,-1.670957327E0,2.382419447E0
5.268195831E0,-8.492684364E-1,1.791742802E0,-1.667805552E0,2.590979449E0
5.272993592E0,-9.853956699E-1,2.108479500E0,-1.654193759E0,2.855354167E0
5.277791300E0,-1.185114861E0,2.352795124E0,-1.675861835E0,3.122283623E0
5.282589060E0,-1.457683086E0,2.551001072E0,-1.692216516E0,3.390581541E0
5.287386821E0,-1.726235151E0,2.712623596E0,-1.727695346E0,3.650088462E0
5.292184581E0,-2.019080639E0,2.794582367E0,-1.713735580E0,3.850099592E0
5.296982342E0,-2.235447168E0,2.875736713E0,-1.698948741E0,4.019143256E0
5.301780102E0,-2.434945822E0,2.798306465E0,-1.633721948E0,4.053212014E0
5.306577862E0,-2.581577063E0,2.698672295E0,-1.597177744E0,4.061815977E0
5.311375623E0,-2.680091858E0,2.593576431E0,-1.572356343E0,4.047448028E0
5.316173383E0,-2.701802492E0,2.406538486E0,-1.551606894E0,3.936832248E0
5.320971144E0,-2.611408234E0,2.116299629E0,-1.510858178E0,3.685223130E0
5.325768904E0,-2.464463949E0,1.792435169E0,-1.549934626E0,3.418874630E0
5.330566612E0,-2.247036219E0,1.432703972E0,-1.565582156E0,3.090770119E0
5.335364373E0,-2.006847858E0,1.106401443E0,-1.550021291E0,2.766609565E0
5.340162133E0,-1.757935524E0,7.584142685E-1,-1.459775448E0,2.407586731E0
5.344959894E0,-1.509538889E0,4.316778183E-1,-1.303918719E0,2.040896230E0
5.349757654E0,-1.304450035E0,4.722690582E-2,-1.110448718E0,1.713743455E0
5.354555415E0,-1.169092417E0,-3.398513794E-1,-8.839812875E-1,1.504559389E0
5.359353175E0,-1.060437918E0,-6.650133133E-1,-6.366670728E-1,1.404320564E0
5.364150935E0,-9.710841179E-1,-9.881515503E-1,-4.049220681E-1,1.443402138E0
5.368948696E0,-9.629454613E-1,-1.450345993E0,-3.658741713E-1,1.778941081E0
5.373746456E0,-9.545242786E-1,-1.946331024E0,-4.666466415E-1,2.217449017E0
5.378544165E0,-9.481015205E-1,-2.464172363E0,-6.472846270E-1,2.718458997E0
5.383341925E0,-9.412088394E-1,-3.015848160E0,-8.332052231E-1,3.267329972E0
5.388139685E0,-8.719165325E-1,-3.558267593E0,-9.354175329E-1,3.781072952E0
5.392937446E0,-7.357792854E-1,-4.034047127E0,-8.864758015E-1,4.195324388E0
5.397735206E0,-5.500507355E-1,-4.397771835E0,-7.932598591E-1,4.502467560E0
5.402532967E0,-3.392791748E-1,-4.639890671E0,-7.193483710E-1,4.707563900E0
5.407330727E0,-2.311706543E-2,-4.714929581E0,-6.374295950E-1,4.757878922E0
5.412128487E0,3.378157616E-1,-4.665966988E0,-6.081438065E-1,4.717542401E0
5.416926248E0,6.829526424E-1,-4.488250732E0,-5.130010843E-1,4.568806087E0
5.421724008E0,1.016683817E0,-4.208238602E0,-2.844731212E-1,4.338645303E0
5.426521769E0,1.291098356E0,-3.897879601E0,-1.375312209E-1,4.108444375E0
5.431319529E0,1.568475366E0,-3.645834923E0,1.841109991E-2,3.968950267E0
5.436117237E0,1.850997329E0,-3.528594017E0,1.753353477E-1,3.988472055E0
5.440914998E0,2.157458305E0,-3.469537735E0,3.920283318E-1,4.104388462E0
5.445712758E0,2.470833778E0,-3.411221504E0,5.785393715E-1,4.251606698E0
5.450510519E0,2.774208546E0,-3.258057594E0,5.905010700E-1,4.319706455E0
5.455308279E0,3.081519365E0,-3.086520195E0,6.014795303E-1,4.402743024E0
5.460106040E0,3.384591341E0,-2.927369118E0,5.582421422E-1,4.509610048E0
5.464903800E0,3.677182198E0,-2.847077370E0,1.957225800E-1,4.654656356E0
5.469701560E0,3.971878529E0,-2.790015221E0,-1.584479809E-1,4.856450323E0
5.474499321E0,4.343867779E0,-2.698126793E0,-2.577809095E-1,5.120110005E0
5.479297081E0,4.869198799E0,-2.661288261E0,1.869404316E-2,5.549045109E0
5.484094842E0,5.390345573E0,-2.666476250E0,2.442169189E-1,6.018767556E0
5.488892550E0,5.745580196E0,-2.583936691E0,2.051060200E-1,6.303212601E0
5.493690310E0,5.883436203E0,-2.521074295E0,-2.078628540E-2,6.400864725E0
5.498488071E0,5.769440651E0,-2.428154945E0,-4.004966021E-1,6.272382274E0
5.503285831E0,5.404531479E0,-2.435361862E0,-1.019770980E0,6.014971385E0
5.508083592E0,4.782456398E0,-2.520177841E0,-1.688158274E0,5.663308565E0
5.512881352E0,3.692158937E0,-2.602815628E0,-2.006487131E0,4.942942183E0
5.517679112E0,2.274127007E0,-2.643788338E0,-1.982085705E0,4.011226017E0
5.522476873E0,8.299281597E-1,-2.553436279E0,-1.714883566E0,3.185850472E0
5.527274633E0,-5.273168087E-1,-2.223060608E0,-1.575629711E0,2.775368529E0
5.532072394E0,-1.806873798E0,-2.105160713E0,-1.386444807E0,3.101406738E0
5.536870154E0,-2.879573584E0,-1.843379021E0,-5.099086761E-1,3.456876783E0
5.541667862E0,-3.651224136E0,-1.552249908E0,1.784641743E-1,3.971494295E0
5.546465623E0,-3.975842476E0,-1.420125008E0,6.506831646E-1,4.271705398E0
5.551263383E0,-4.127061367E0,-1.369677544E0,7.480579615E-1,4.412283175E0
5.556061144E0,-3.882306576E0,-1.624650002E0,7.812110186E-1,4.280430192E0
5.560858904E0,-3.803884029E0,-7.581968307E-1,4.719200134E-1,3.907314249E0
5.565656665E0,-3.494470835E0,-1.653575897E-2,-4.691767693E-2,3.494824905E0
5.570454425E0,-3.082866907E0,7.377910614E-2,-4.290249348E-1,3.113450516E0
5.575252185E0,-2.459207773E0,7.094316483E-1,-2.832655907E-1,2.575118547E0
5.580049946E0,-2.069944143E0,1.448085308E0,-5.825905800E-1,2.592495246E0
5.584847706E0,-1.764765263E0,2.416224480E0,-8.070232868E-1,3.099003671E0
5.589645467E0,-1.488867044E0,3.288547993E0,-9.825637341E-1,3.741216977E0
5.594443227E0,-1.354793787E0,3.950885296E0,-1.059929132E0,4.309107865E0
5.599240935E0,-1.247412920E0,4.435138226E0,-6.417875290E-1,4.651707354E0
5.604038696E0,-9.798212051E-1,4.772775650E0,-2.336759567E-1,4.877913637E0
5.608836456E0,-6.066489220E-1,5.047204018E0,-2.266247272E-1,5.088580360E0
5.613634217E0,-3.872756958E-1,5.208045959E0,2.208836079E-1,5.227094293E0
5.618431977E0,-1.669659615E-1,5.305418015E0,8.304214478E-1,5.372609954E0
5.623229737E0,1.150147915E-1,5.396422386E0,1.054667473E0,5.499720579E0
5.628027498E0,4.349317551E-1,5.361207962E0,9.977099895E-1,5.470570507E0
5.632825258E0,7.783436775E-1,5.261894226E0,8.994255066E-1,5.394656242E0
5.637623019E0,1.097342253E0,5.091496468E0,9.006972313E-1,5.285712043E0
5.642420779E0,1.408528209E0,4.833609104E0,9.627177715E-1,5.125871067E0
5.647218540E0,1.725946903E0,4.565192699E0,1.020188808E0,4.986046761E0
5.652016300E0,2.010982037E0,4.319964409E0,9.987223148E-1,4.868633022E0
5.656814008E0,2.289454699E0,4.114889622E0,9.626846313E-1,4.806316793E0
5.661611769E0,2.522530317E0,3.962098122E0,8.689837456E-1,4.776663425E0
5.666409529E0,2.678715706E0,3.835290909E0,7.346544266E-1,4.735471604E0
5.671207290E0,2.815020800E0,3.796533585E0,5.530033112E-1,4.758552513E0
5.676005050E0,2.888130903E0,3.833544731E0,3.416221142E-1,4.811867724E0
5.680802810E0,2.924486637E0,3.907706738E0,2.063171864E-1,4.885218605E0
5.685600571E0,2.979357958E0,3.992420197E0,1.402242184E-1,4.983538472E0
5.690398331E0,2.983837843E0,4.120753765E0,2.191519737E-2,5.087669421E0
5.695196092E0,3.007736206E0,4.268460274E0,-1.362760067E-1,5.223485555E0
5.699993852E0,3.029725313E0,4.406536579E0,-3.504574299E-1,5.359068996E0
5.704791612E0,3.045469999E0,4.496382236E0,-5.722002983E-1,5.460746644E0
5.709589373E0,3.071673155E0,4.511615753E0,-7.460930347E-1,5.508766422E0
5.714387081E0,3.084402084E0,4.435426712E0,-9.577350616E-1,5.486693247E0
5.719184842E0,3.076179504E0,4.306197643E0,-1.127964735E0,5.410963216E0
5.723982602E0,3.085035801E0,4.119229794E0,-1.297253847E0,5.307388014E0
5.728780362E0,3.045948505E0,3.927410603E0,-1.410805464E0,5.166500595E0
5.733578123E0,3.063426971E0,3.731063366E0,-1.440180540E0,5.037810897E0
5.738375883E0,3.033839464E0,3.563966274E0,-1.469157219E0,4.905554039E0
5.743173644E0,3.051908493E0,3.333176613E0,-1.476067781E0,4.754259972E0
5.747971404E0,3.068793297E0,3.010344028E0,-1.575260639E0,4.578330433E0
5.752769165E0,3.145483494E0,2.500309944E0,-1.613291979E0,4.329933860E0
5.757566925E0,3.218747139E0,1.734254837E0,-1.697345972E0,4.030999421E0
5.762364685E0,3.149460793E0,7.577924728E-1,-1.964995384E0,3.788741160E0
5.767162446E0,2.847229481E0,-3.863115311E-1,-2.574772120E0,3.858160673E0
5.771960154E0,2.511594534E0,-1.722391129E0,-3.166754484E0,4.393526177E0
5.776757915E0,2.165444851E0,-3.179013252E0,-3.626200676E0,5.286265979E0
5.781555675E0,1.694243670E0,-4.450678825E0,-3.736973524E0,6.053426694E0
5.786353435E0,9.848091602E-1,-5.203690529E0,-3.585321426E0,6.395527651E0
5.791151196E0,2.207648754E-1,-5.365498543E0,-3.326178074E0,6.316705813E0
5.795948956E0,-3.810536861E-1,-5.104375839E0,-3.104038000E0,5.986226401E0
5.800746717E0,-7.455062866E-1,-4.609267235E0,-2.983290195E0,5.540861346E0
5.805544477E0,-8.433887959E-1,-3.880169868E0,-3.084879160E0,5.028270309E0
5.810342237E0,-7.500474453E-1,-3.029853821E0,-3.356837273E0,4.583769390E0
5.815139998E0,-5.451676846E-1,-2.049041748E0,-3.546981573E0,4.132415537E0
5.819937758E0,-2.656984329E-1,-1.081122398E0,-3.659713268E0,3.825300315E0
5.824735519E0,-4.644918442E-2,5.097675323E-2,-3.649468184E0,3.650119749E0
5.829533279E0,1.200110912E-1,8.650236130E-1,-3.771958351E0,3.871735827E0
5.834330987E0,2.625608444E-1,1.407586575E0,-3.866780043E0,4.123375566E0
5.839128748E0,4.290328026E-1,1.853515148E0,-3.606734276E0,4.077759150E0
5.843926508E0,7.862527370E-1,2.035110474E0,-3.033524513E0,3.736594570E0
5.848724269E0,1.165376663E0,1.811805248E0,-2.254308939E0,3.118116389E0
5.853522029E0,1.458325028E0,1.301785946E0,-1.406803608E0,2.408413363E0
5.858319790E0,1.661854506E0,4.394340515E-1,-4.020435810E-1,1.765361641E0
5.863117550E0,1.720616221E0,-8.312644958E-1,6.525270939E-1,2.019235611E0
5.867915310E0,1.560565114E0,-2.506451607E0,1.825887680E0,3.471531211E0
5.872713071E0,1.263436317E0,-4.355280876E0,3.110161543E0,5.498895131E0
5.877510831E0,7.826657295E-1,-5.989797592E0,4.497355461E0,7.531032265E0
5.882308592E0,1.035261154E-1,-7.185392380E0,5.914895058E0,9.307339300E0
5.887106352E0,-5.115604401E-1,-8.288925171E0,7.280395031E0,1.104409917E1
5.891904060E0,-1.087197304E0,-9.147727966E0,8.325522423E0,1.241681314E1
5.896701821E0,-1.622207642E0,-9.738955498E0,8.812617302E0,1.323408612E1
5.901499581E0,-2.039216995E0,-9.947362900E0,8.719169617E0,1.338403353E1
5.906297342E0,-2.299930334E0,-9.608335495E0,7.839488983E0,1.261219164E1
5.911095102E0,-2.257489204E0,-8.388521194E0,5.830629349E0,1.046230299E1
5.915892862E0,-1.673420429E0,-6.728247643E0,3.493454456E0,7.763625204E0
5.920690623E0,-4.899919033E-1,-4.989452362E0,1.622738719E0,5.269535832E0
5.925488383E0,1.126958370E0,-3.811597824E0,7.328743339E-1,4.041709778E0
5.930286144E0,2.730639458E0,-2.463482857E0,8.571897745E-1,3.776230123E0
5.935083904E0,4.198484421E0,-1.481215477E0,1.516548634E0,4.703316966E0
5.939881665E0,5.311576843E0,-6.189393997E-1,2.661156893E0,5.973080491E0
5.944679425E0,6.003303528E0,3.588447571E-1,3.856122971E0,7.144095966E0
5.949477185E0,6.499642372E0,1.046549320E0,5.238492966E0,8.413229166E0
5.954274894E0,6.722292900E0,1.399778843E0,5.622444153E0,8.874710187E0
5.959072654E0,6.496056557E0,1.889644146E0,4.831233025E0,8.313261594E0
5.963870415E0,6.613710403E0,1.261334419E0,5.137355804E0,8.469035038E0
5.968668175E0,6.764621258E0,6.634368896E-1,4.804149628E0,8.323467001E0
5.973465935E0,6.665611267E0,2.245864868E-1,4.200967789E0,7.882191511E0
5.978263696E0,6.401703835E0,-5.025548935E-1,3.842298746E0,7.483156624E0
5.983061456E0,6.060868263E0,-1.150051117E0,3.479642868E0,7.082701191E0
5.987859217E0,5.571494102E0,-1.620736122E0,2.958472013E0,6.513132024E0
5.992656977E0,4.929807663E0,-1.855911255E0,2.315098763E0,5.753876299E0
5.997454737E0,3.999223471E0,-1.969025612E0,1.981199384E0,4.878114516E0
6.002252498E0,2.766247988E0,-1.989816666E0,1.892247915E0,3.897704512E0
6.007050258E0,1.289502382E0,-1.929047585E0,1.864785671E0,2.976821556E0
6.011848019E0,-1.749272346E-1,-1.692560196E0,1.928217888E0,2.571650011E0
6.016645727E0,-1.593344927E0,-1.327367783E0,2.057993889E0,2.921642027E0
6.021443487E0,-2.791559458E0,-1.052133560E0,2.263081074E0,3.744506000E0
6.026241248E0,-3.466486692E0,-5.733127594E-1,2.374474049E0,4.240677365E0
6.031039008E0,-3.370215893E0,-2.612390518E-1,2.347644329E0,4.115584394E0
6.035836769E0,-2.813845396E0,-4.273853302E-1,2.385586262E0,3.713678223E0
6.040634529E0,-2.103112698E0,-7.373027802E-1,2.413925171E0,3.285381734E0
6.045432290E0,-1.447479010E0,-1.289305687E0,2.595635414E0,3.239572169E0
6.050230050E0,-1.160036802E0,-1.488625526E0,2.407301426E0,3.058887297E0
6.055027810E0,-1.002146721E0,-1.348566055E0,2.156474352E0,2.733735555E0
6.059825571E0,-1.056688786E0,-1.205289841E0,2.442867994E0,2.921800614E0
6.064623331E0,-1.345518589E0,-9.480333328E-1,2.710593700E0,3.171199408E0
6.069421092E0,-1.865176201E0,-4.405031204E-1,2.718476772E0,3.326115034E0
6.074218852E0,-2.589217663E0,2.640018463E-1,2.589925766E0,3.671710848E0
6.079016612E0,-3.403812647E0,1.192938805E0,2.363858223E0,4.312408750E0
6.083814373E0,-4.230560303E0,2.007762909E0,1.913083553E0,5.058521627E0
6.088612081E0,-4.872638702E0,2.578463554E0,1.261096835E0,5.655214183E0
6.093409842E0,-5.194381714E0,2.990505695E0,6.184565425E-1,6.025546797E0
6.098207602E0,-5.216887474E0,3.279399395E0,1.403663754E-1,6.163609172E0
6.103005362E0,-4.899325371E0,3.492613792E0,-2.032257020E-1,6.020219338E0
6.107803123E0,-4.370594978E0,3.637015820E0,-3.756749928E-1,5.698343289E0
6.112600883E0,-3.699743271E0,3.664614677E0,-3.530404270E-1,5.219400210E0
6.117398644E0,-3.090041876E0,3.467991352E0,-2.989627421E-1,4.654535587E0
6.122196404E0,-2.510739088E0,3.128864765E0,-2.033184916E-1,4.016832570E0
6.126994165E0,-2.027206898E0,2.595218658E0,-2.172227949E-1,3.300289902E0
6.131791925E0,-1.550019264E0,1.903747082E0,-2.938029766E-1,2.472475047E0
6.136589685E0,-1.078470945E0,1.143726349E0,-4.818130732E-1,1.644187756E0
6.141387446E0,-6.379327774E-1,4.066085815E-1,-8.530514240E-1,1.140169066E0
6.146185206E0,-2.917151451E-1,-1.590089798E-1,-1.289720535E0,1.331826055E0
6.150982915E0,-8.787536621E-2,-5.029964447E-1,-1.898238540E0,1.965715406E0
6.155780675E0,2.403306961E-2,-6.375761032E-1,-2.469148636E0,2.550250157E0
6.160578435E0,-3.159475327E-2,-5.178365707E-1,-2.817409039E0,2.864776891E0
6.165376196E0,-1.723458767E-1,-3.475379944E-1,-2.845006704E0,2.871332253E0
6.170173956E0,-4.234001637E-1,-1.294670105E-1,-2.779468775E0,2.814511694E0
6.174971717E0,-6.789832115E-1,6.447029114E-2,-2.585471153E0,2.673917670E0
6.179769477E0,-9.866087437E-1,2.581062317E-1,-2.338070869E0,2.550802037E0
6.184567237E0,-1.288782597E0,4.251232147E-1,-2.102782488E0,2.502675472E0
6.189364998E0,-1.594879627E0,5.750331879E-1,-1.873508334E0,2.526724692E0
6.194162758E0,-1.885654688E0,6.695613861E-1,-1.703785419E0,2.628096423E0
6.198960519E0,-2.122583389E0,7.277727127E-1,-1.601606846E0,2.756838380E0
6.203758279E0,-2.271993399E0,7.615575790E-1,-1.557672143E0,2.858017924E0
6.208556040E0,-2.314742804E0,7.613382339E-1,-1.586351275E0,2.907607354E0
6.213353800E0,-2.255611897E0,7.151679993E-1,-1.692199469E0,2.909087372E0
6.218151508E0,-2.054215431E0,6.566028595E-1,-1.815350652E0,2.818940642E0
6.222949269E0,-1.742012024E0,5.929050446E-1,-2.003501892E0,2.720323899E0
6.227747029E0,-1.398450613E0,4.764423370E-1,-2.196633816E0,2.647236585E0
6.232544790E0,-1.000170231E0,2.979078293E-1,-2.327343702E0,2.550611353E0
6.237342550E0,-6.648864746E-1,1.985826492E-1,-2.455041170E0,2.551222499E0
6.242140310E0,-3.452854156E-1,1.236009598E-1,-2.350194931E0,2.378637305E0
6.246938071E0,-1.158428192E-1,9.936904907E-2,-2.306857824E0,2.311901120E0
6.251735831E0,-6.258559227E-2,1.187028885E-1,-2.365090847E0,2.368894689E0
6.256533592E0,-9.698271751E-2,1.839933395E-1,-2.462194204E0,2.470963273E0
6.261331352E0,-2.978646755E-1,2.784862518E-1,-2.588301420E0,2.620225601E0
6.266129112E0,-6.097490788E-1,4.163770676E-1,-2.755393267E0,2.852605100E0
6.270926873E0,-9.819176197E-1,5.974540710E-1,-2.827646494E0,3.052326698E0
6.275724633E0,-1.373315573E0,7.522087097E-1,-2.724815845E0,3.142679589E0
6.280522394E0,-1.786025763E0,8.494911194E-1,-2.543156385E0,3.221671552E0
6.285320154E0,-2.198354483E0,8.964767456E-1,-2.424118996E0,3.393049645E0
6.290117915E0,-2.593339205E0,8.620891571E-1,-2.365101576E0,3.614181984E0
6.294915623E0,-2.884746552E0,8.873615265E-1,-2.222531319E0,3.748175370E0
6.299713383E0,-2.962284565E0,9.959659576E-1,-2.175596237E0,3.807925553E0
6.304511144E0,-2.938323021E0,9.965457916E-1,-2.154689074E0,3.777503235E0
6.309308904E0,-2.817652941E0,8.868103027E-1,-2.033269405E0,3.586054250E0
6.314106665E0,-2.619269133E0,7.480649948E-1,-1.926452279E0,3.336373841E0
6.318904425E0,-2.343372583E0,5.636453629E-1,-1.961074948E0,3.107234480E0
6.323702185E0,-2.004997730E0,2.907819748E-1,-1.991464734E0,2.840862869E0
6.328499946E0,-1.614736319E0,1.592159271E-2,-1.960403204E0,2.539844011E0
6.333297706E0,-1.302340984E0,-1.507863998E-1,-1.999199271E0,2.390737607E0
6.338095467E0,-1.075204849E0,-2.906150818E-1,-2.078503847E0,2.358113830E0
6.342893227E0,-8.783724308E-1,-4.919624329E-1,-2.195285082E0,2.415127689E0
6.347690987E0,-7.044944763E-1,-6.544179916E-1,-2.272635698E0,2.467680772E0
6.352488748E0,-5.555989742E-1,-8.163642883E-1,-2.322297335E0,2.523530420E0
6.357286508E0,-4.098949432E-1,-9.468011856E-1,-2.312731028E0,2.532423968E0
6.362084269E0,-3.386795521E-1,-1.031538010E0,-2.238661766E0,2.488047630E0
6.366881977E0,-3.462998867E-1,-1.022937775E0,-2.076108456E0,2.340203329E0
6.371679737E0,-4.131150246E-1,-1.121976852E0,-2.008610249E0,2.337522452E0
6.376477498E0,-5.503871441E-1,-1.216378212E0,-1.918416023E0,2.337268064E0
6.381275258E0,-7.098188400E-1,-1.313447952E0,-1.738490701E0,2.291579854E0
6.386073019E0,-8.788735867E-1,-1.439644814E0,-1.466248512E0,2.234922967E0
6.390870779E0,-1.037901878E0,-1.609459877E0,-1.176208735E0,2.247458207E0
6.395668540E0,-1.155399084E0,-1.818221092E0,-8.064441085E-1,2.300266742E0
6.400466300E0,-1.235733509E0,-1.958510399E0,-3.788617849E-1,2.346558446E0
6.405264060E0,-1.261825800E0,-2.040129662E0,3.193107247E-2,2.399031675E0
6.410061821E0,-1.262034416E0,-2.034636497E0,3.705004752E-1,2.422756105E0
6.414859581E0,-1.214780092E0,-2.004345894E0,5.838333964E-1,2.415358062E0
6.419657342E0,-1.131968498E0,-1.877668381E0,6.768000126E-1,2.294569564E0
6.424455102E0,-9.970395565E-1,-1.721647263E0,6.953139305E-1,2.107514801E0
6.429252862E0,-7.030689716E-1,-1.579224586E0,6.044656038E-1,1.831293242E0
6.434050623E0,-2.558465004E-1,-1.333110809E0,4.298784733E-1,1.423881092E0
6.438848383E0,1.999514103E-1,-1.074032784E0,-3.376568854E-2,1.093008284E0
6.443646092E0,8.802862167E-1,-9.092645645E-1,-5.921419859E-1,1.397246579E0
6.448443852E0,1.653695941E0,-8.310880661E-1,-1.085407972E0,2.145583395E0
6.453241612E0,2.450965881E0,-8.485431671E-1,-1.252369523E0,2.880223721E0
6.458039373E0,3.270361185E0,-8.011322021E-1,-1.110700130E0,3.545522510E0
6.462837133E0,3.883820295E0,-8.729162216E-1,-9.031684995E-1,4.081881448E0
6.467634894E0,4.363015175E0,-8.678846359E-1,-2.593891621E-1,4.456052950E0
6.472432654E0,4.728005886E0,-9.370365143E-1,5.497404337E-1,4.851215480E0
6.477230415E0,4.868162155E0,-1.016289711E0,1.208792090E0,5.117912256E0
6.482028175E0,4.604879856E0,-8.794641495E-1,1.754356623E0,5.005611135E0
6.486825935E0,4.261419296E0,-7.521591187E-1,2.196682453E0,4.852921961E0
6.491623696E0,3.881138802E0,-4.963321686E-1,2.512305737E0,4.649867109E0
6.496421456E0,3.569512606E0,-6.940841675E-2,2.812761784E0,4.545092587E0
6.501219217E0,3.312161207E0,3.586750031E-1,2.913068771E0,4.425497632E0
6.506016977E0,3.107905149E0,3.246545792E-1,2.519071102E0,4.013750644E0
6.510814737E0,3.235946894E0,-2.272243500E-1,2.082309961E0,3.854737083E0
6.515612498E0,3.567570686E0,-8.362283707E-1,1.448169470E0,3.940054987E0
6.520410258E0,3.951267958E0,-1.438790321E0,7.723506689E-1,4.275413620E0
6.525207967E0,3.999903679E0,-2.320489883E0,-3.718637228E-1,4.639200941E0
6.530005727E0,3.596906185E0,-3.282045364E0,-1.710199118E0,5.160846529E0
6.534803487E0,2.737474442E0,-4.187204361E0,-2.703621149E0,5.686476413E0
6.539601248E0,1.796289563E0,-4.869314194E0,-3.135244846E0,6.063549881E0
6.544399008E0,9.964559078E-1,-5.442218781E0,-3.340997696E0,6.463198530E0
6.549196769E0,1.670336723E-2,-5.709163666E0,-3.623796940E0,6.762154466E0
6.553994529E0,-7.501301765E-1,-5.991584778E0,-3.695436239E0,7.079409045E0
6.558792290E0,-1.597117424E0,-6.000946999E0,-3.604325771E0,7.180063594E0
6.563590050E0,-2.343395233E0,-5.675925255E0,-3.268747091E0,6.956460038E0
6.568387810E0,-2.913241625E0,-5.012362480E0,-2.620139599E0,6.362066167E0
6.573185571E0,-3.360369444E0,-4.254303932E0,-1.805521250E0,5.714113381E0
6.577983331E0,-3.473591328E0,-3.520864487E0,-8.714773655E-1,5.022130648E0
6.582781092E0,-3.606396675E0,-2.450672150E0,-3.793787956E-2,4.360427760E0
6.587578852E0,-3.564744949E0,-1.430977821E0,5.146708488E-1,3.875563206E0
6.592376612E0,-3.446434498E0,-5.233926773E-1,9.931075573E-1,3.624653537E0
6.597174373E0,-3.253939152E0,3.300113678E-1,1.301033497E0,3.519902792E0
6.601972081E0,-2.868800879E0,1.153959751E0,1.428451896E0,3.406187958E0
6.606769842E0,-2.467325211E0,1.827622890E0,1.377414703E0,3.365289050E0
6.611567602E0,-2.025002241E0,2.395195007E0,1.279300451E0,3.387359273E0
6.616365362E0,-1.579077721E0,2.943528175E0,1.153393984E0,3.533859399E0
6.621163123E0,-1.204668045E0,3.415598869E0,8.833167553E-1,3.727973877E0
6.625960883E0,-8.859357834E-1,3.942696095E0,5.882074833E-1,4.083591893E0
6.630758644E0,-5.777406693E-1,4.354666233E0,3.675351143E-1,4.408172449E0
6.635556404E0,-3.128769398E-1,4.644125938E0,3.171324730E-1,4.665444321E0
6.640354165E0,-8.075571060E-2,4.872967720E0,3.556327820E-1,4.886594986E0
6.645151925E0,1.681296825E-1,4.973917961E0,6.330525875E-1,5.016859880E0
6.649949685E0,4.934477806E-1,4.963399887E0,1.133889198E0,5.115127942E0
6.654747446E0,8.447604179E-1,4.864914894E0,1.560972929E0,5.178576404E0
6.659545206E0,1.178253412E0,4.678166389E0,1.904555082E0,5.186603121E0
6.664342967E0,1.597646356E0,4.393590927E0,2.240882874E0,5.184367962E0
6.669140727E0,1.914067388E0,4.123978615E0,2.519206285E0,5.197812414E0
6.673938487E0,2.148538828E0,3.869922161E0,2.693571568E0,5.181490559E0
6.678736248E0,2.340883017E0,3.651136875E0,2.739794731E0,5.130010619E0
6.683533956E0,2.590532780E0,3.463466167E0,2.796174526E0,5.150247563E0
6.688331717E0,2.772085428E0,3.312410831E0,2.795143127E0,5.144837047E0
6.693129477E0,2.872911215E0,3.227174759E0,2.784054041E0,5.139964268E0
6.697927237E0,3.026062727E0,3.191257954E0,2.619589567E0,5.118928839E0
6.702724998E0,3.123224974E0,3.226093292E0,2.388505459E0,5.085977831E0
6.707522758E0,3.183400631E0,3.364960194E0,2.193887234E0,5.125440262E0
6.712320519E0,3.216187477E0,3.547698498E0,2.012249947E0,5.194148281E0
6.717118279E0,3.214492559E0,3.726079464E0,1.782029629E0,5.233761571E0
6.721916040E0,3.152079344E0,3.937734604E0,1.487662077E0,5.258754268E0
6.726713800E0,3.122800827E0,4.169977188E0,1.211333990E0,5.348637657E0
6.731511560E0,3.093337774E0,4.266564369E0,8.805480003E-1,5.343002422E0
6.736309321E0,2.866586208E0,4.676350117E0,9.369254112E-2,5.485831313E0
6.741107081E0,2.953917742E0,4.423639774E0,-6.388051510E-1,5.357451904E0
6.745904842E0,3.154739618E0,4.012199402E0,1.173703671E-1,5.105281765E0
6.750702602E0,3.073346138E0,3.892705917E0,-3.885405064E-1,4.974894930E0
6.755500362E0,2.738711357E0,3.674674034E0,-1.297873020E0,4.763217771E0
6.760298123E0,2.244020700E0,3.215069771E0,-2.110738277E0,4.452810193E0
6.765095883E0,1.752212524E0,2.509655952E0,-2.476592541E0,3.937274736E0
6.769893592E0,1.241823912E0,1.855259418E0,-2.886295080E0,3.648946893E0
6.774691352E0,8.366792202E-1,1.125309944E0,-3.210629940E0,3.503498138E0
6.779489112E0,5.529193878E-1,4.205360413E-1,-3.375788927E0,3.446523073E0
6.784286873E0,3.228991032E-1,-3.306312561E-1,-3.575363398E0,3.605108082E0
6.789084633E0,2.244422436E-1,-1.214047432E0,-3.925792456E0,4.115353192E0
6.793882394E0,2.892811298E-1,-2.738067627E0,-4.266524315E0,5.077787671E0
6.798680154E0,4.437386990E-1,-4.590379715E0,-4.648077965E0,6.547756771E0
6.803477915E0,4.567639828E-1,-6.224931717E0,-5.166392326E0,8.102469863E0
6.808275675E0,3.519377708E-1,-7.321166039E0,-5.674081802E0,9.269225246E0
6.813073435E0,3.543767929E-1,-7.886394501E0,-5.756919861E0,9.770513160E0
6.817871196E0,5.560996532E-1,-7.796741486E0,-5.245254040E0,9.413347681E0
6.822668956E0,1.059139490E0,-6.979528427E0,-4.410264015E0,8.323822572E0
6.827466717E0,1.680612326E0,-5.410301208E0,-3.588516474E0,6.706211109E0
6.832264477E0,2.298509598E0,-3.735816002E0,-2.778703690E0,5.192365720E0
6.837062237E0,2.555176735E0,-2.560853004E0,-2.368930340E0,4.324202494E0
6.841859998E0,2.648275375E0,-1.598712921E0,-2.540130854E0,4.002687875E0
6.846657706E0,2.704356909E0,-8.956232071E-1,-2.999749660E0,4.136929446E0
6.851455467E0,2.573137522E0,-5.452442169E-1,-3.638515711E0,4.489668645E0
6.856253279E0,2.246883631E0,-5.138912201E-1,-4.256613255E0,4.840591558E0
6.861050987E0,9.339351654E-1,-3.451309204E-1,-3.855250835E0,3.981747010E0
6.865848748E0,6.208088398E-1,-4.041309357E-1,-4.357686520E0,4.420198777E0
6.870646508E0,-3.320822716E-1,-2.471399307E-1,-3.373840570E0,3.399140623E0
6.875444269E0,-6.218061447E-1,5.494785309E-2,-3.249461174E0,3.308875953E0
6.880242029E0,-9.062530994E-1,1.330270767E-1,-2.878259659E0,3.020491607E0
6.885039790E0,-1.424469709E0,1.037321091E-1,-1.214619160E0,1.874879731E0
6.889837550E0,-1.668513060E0,8.055591583E-2,7.811832428E-1,1.844091197E0
6.894635310E0,-1.897614002E0,8.740043640E-2,2.567463398E0,3.193813714E0
6.899433071E0,-2.174732447E0,-4.099178314E-2,4.263292789E0,4.786105614E0
6.904230831E0,-2.393759012E0,-1.542558670E-1,5.660531998E0,6.147804452E0
6.909028592E0,-2.511462212E0,-1.479673386E-1,6.635863304E0,7.096761132E0
6.913826352E0,-2.659344435E0,4.145812988E-2,7.216840744E0,7.691334210E0
6.918624112E0,-2.846664667E0,2.982978821E-1,7.595488071E0,8.116891055E0
6.923421873E0,-2.927854300E0,4.045391083E-1,7.767154694E0,8.310515912E0
6.928219633E0,-2.861155987E0,4.368133545E-1,7.831970215E0,8.349657294E0
6.933017394E0,-2.486757994E0,-5.339527130E-2,7.946836472E0,8.327005841E0
6.937815154E0,-1.961924791E0,-5.464248657E-1,7.584733009E0,7.853400782E0
6.942612862E0,-1.229819775E0,-9.488687515E-1,6.575495243E0,6.756474397E0
6.947410623E0,-5.396580696E-1,-1.208573341E0,4.869026184E0,5.045720596E0
6.952208383E0,-4.805183411E-2,-1.453087807E0,2.901451111E0,3.245333835E0
6.957006144E0,4.956703186E-1,-2.045692444E0,1.417438865E0,2.537652375E0
6.961803904E0,1.072673321E0,-2.796554565E0,5.275907516E-1,3.041331533E0
6.966601665E0,1.557848215E0,-3.482207298E0,3.535599709E-1,3.831143874E0
6.971399425E0,1.931108236E0,-3.655426025E0,1.105760217E0,4.279488767E0
6.976197185E0,2.356934071E0,-3.770666122E0,1.929686308E0,4.847344682E0
6.980994946E0,2.702392817E0,-3.772706032E0,2.577019930E0,5.308226583E0
6.985792706E0,2.987550735E0,-3.745301247E0,2.953465223E0,5.628116705E0
6.990590467E0,3.306039333E0,-3.781598091E0,3.256653309E0,5.986332013E0
6.995388227E0,3.574226379E0,-3.833689690E0,3.373752832E0,6.233336107E0
7.000185987E0,3.654232264E0,-3.768030167E0,3.471630573E0,6.293145764E0
7.004983748E0,3.571406841E0,-3.637938499E0,3.454151154E0,6.157978852E0
7.009781508E0,3.394279480E0,-3.401192665E0,3.421394348E0,5.898744275E0
7.014579269E0,3.177445889E0,-3.034954071E0,3.334925175E0,5.516233725E0
7.019377029E0,2.944449425E0,-2.507018089E0,3.085516930E0,4.947255485E0
7.024174790E0,2.724183559E0,-1.940655708E0,3.068208456E0,4.538857100E0
7.028972498E0,2.486339092E0,-1.305999756E0,3.093839645E0,4.178440043E0
7.033770310E0,2.334333181E0,-8.190793991E-1,3.188089848E0,4.035333857E0
7.038568019E0,2.121273518E0,-4.750728607E-1,2.991691828E0,3.698069165E0
7.043365779E0,2.051320076E0,-1.684427261E-1,2.556067944E0,3.281732826E0
7.048163540E0,1.930005074E0,1.559581757E-1,2.170794964E0,2.908881797E0
7.052961300E0,1.690649152E0,4.814424515E-1,1.854085922E0,2.554939529E0
7.057759060E0,1.283423901E0,7.316112518E-1,1.638395786E0,2.206076310E0
7.062556821E0,8.416123390E-1,8.900804520E-1,1.379710555E0,1.845035435E0
7.067354581E0,3.105058670E-1,9.813518524E-1,1.020709276E0,1.449590555E0
7.072152342E0,-1.699016094E-1,9.413080215E-1,5.970764160E-1,1.127575982E0
7.076950102E0,-6.688418388E-1,8.945455551E-1,1.656659842E-1,1.129161801E0
7.081747862E0,-1.086110592E0,9.701251984E-1,-1.031647921E-1,1.459939072E0
7.086545623E0,-1.328980684E0,9.934415817E-1,-1.270622015E-1,1.664109563E0
7.091343383E0,-1.453476429E0,8.787755966E-1,1.935720444E-3,1.698482860E0
7.096141144E0,-1.376709223E0,7.485828400E-1,1.890629530E-1,1.578432562E0
7.100938904E0,-1.242192268E0,6.487207413E-1,4.821903706E-1,1.482021520E0
7.105736665E0,-1.200060844E0,5.773906708E-1,9.466855526E-1,1.633933766E0
7.110534425E0,-1.261044502E0,5.614500046E-1,1.419734716E0,1.980178277E0
7.115332185E0,-1.423490047E0,6.085319519E-1,1.819384098E0,2.388889606E0
7.120129946E0,-1.573039770E0,6.067552567E-1,2.170240641E0,2.748190404E0
7.124927706E0,-1.757251263E0,6.974678040E-1,2.434185982E0,3.082150991E0
7.129725467E0,-2.004115105E0,8.017311096E-1,2.415914059E0,3.239736234E0
7.134523175E0,-2.248466969E0,9.601430893E-1,2.188346386E0,3.281209894E0
7.139320987E0,-2.439192295E0,1.050533295E0,1.879741192E0,3.253721900E0
7.144118696E0,-2.634904623E0,1.137139320E0,1.503807425E0,3.239945212E0
7.148916456E0,-2.679041862E0,1.209976196E0,1.232353449E0,3.187475917E0
7.153714217E0,-2.563662767E0,1.294902802E0,8.723046780E-1,3.001675449E0
7.158511977E0,-2.311983109E0,1.386661053E0,4.418165684E-1,2.731903485E0
7.163309737E0,-1.981160641E0,1.427615166E0,3.086793423E-2,2.442137460E0
7.168107498E0,-1.561594725E0,1.362724304E0,-2.709642649E-1,2.090219425E0
7.172905258E0,-1.101570845E0,1.225668907E0,-5.036701560E-1,1.723196513E0
7.177703019E0,-5.680789948E-1,1.105112076E0,-7.101826668E-1,1.431204341E0
7.182500779E0,-3.100061417E-2,9.653606415E-1,-9.428848624E-1,1.349782971E0
7.187298540E0,4.470510483E-1,8.066205978E-1,-1.201703072E0,1.514787675E0
7.192096300E0,8.942792416E-1,6.147880554E-1,-1.395969510E0,1.768171538E0
7.196894060E0,1.250292897E0,4.236259460E-1,-1.509438992E0,2.005267399E0
7.201691821E0,1.433394432E0,3.026371002E-1,-1.705098748E0,2.248014803E0
7.206489581E0,1.529631376E0,3.426046371E-1,-1.918360949E0,2.477349151E0
7.211287342E0,1.500616312E0,3.259201050E-1,-2.144240379E0,2.637392659E0
7.216085102E0,1.329676986E0,3.410758972E-1,-2.415827990E0,2.778596504E0
7.220882862E0,1.046146274E0,5.384235382E-1,-2.407775164E0,2.679869991E0
7.225680623E0,7.422356606E-1,9.053869247E-1,-2.299490452E0,2.580367338E0
7.230478383E0,2.252714634E-1,9.922189713E-1,-1.912148237E0,2.166000139E0
7.235276144E0,-3.008763790E-1,1.042907715E0,-1.423180699E0,1.789867705E0
7.240073904E0,-8.162672520E-1,1.310594559E0,-1.190925121E0,1.949936658E0
7.244871612E0,-1.339450359E0,1.472230911E0,-1.023540735E0,2.238130192E0
7.249669373E0,-1.863146305E0,1.425188065E0,-8.039504886E-1,2.479679730E0
7.254467133E0,-2.320528984E0,1.387262344E0,-6.114138961E-1,2.771854709E0
7.259264894E0,-2.752161026E0,1.358429909E0,-6.421589851E-1,3.135616413E0
7.264062654E0,-3.174465895E0,1.486787796E0,-7.528795004E-1,3.585331116E0
7.268860415E0,-3.613520384E0,1.619153976E0,-9.820426702E-1,4.079656477E0
7.273658175E0,-3.906350613E0,1.698075294E0,-1.260313272E0,4.442006794E0
7.278455935E0,-4.150760651E0,1.816742420E0,-1.534959555E0,4.783875817E0
7.283253696E0,-4.296651840E0,1.755270958E0,-1.784444332E0,4.972568224E0
7.288051456E0,-4.389839172E0,1.530697823E0,-2.024825335E0,5.070862000E0
7.292849217E0,-4.380478859E0,1.329712868E0,-2.198254824E0,5.078292588E0
7.297646977E0,-4.266343594E0,1.118853569E0,-2.082724333E0,4.877628688E0
7.302444737E0,-4.114546776E0,9.268360138E-1,-1.987109423E0,4.662308873E0
7.307242498E0,-3.975195646E0,7.440538406E-1,-1.990518808E0,4.507544972E0
7.312040258E0,-3.857818127E0,6.254692078E-1,-1.988333702E0,4.384910870E0
7.316838019E0,-3.736673117E0,4.325504303E-1,-2.043427706E0,4.280820324E0
7.321635779E0,-3.676672935E0,2.849912643E-1,-2.034447908E0,4.211665014E0
7.326433540E0,-3.622890472E0,2.472915649E-1,-2.195738316E0,4.243554553E0
7.331231300E0,-3.608668089E0,1.735029221E-1,-2.417049646E0,4.346805451E0
7.336029060E0,-3.616697073E0,2.164897919E-1,-2.452334166E0,4.375078103E0
7.340826821E0,-3.694811106E0,1.251640320E-1,-3.002697945E0,4.762718771E0
7.345624581E0,-3.716472626E0,7.896709442E-2,-3.323328733E0,4.986273002E0
7.350422342E0,-3.657919645E0,4.201412201E-2,-3.302340031E0,4.928244210E0
7.355220050E0,-3.547799587E0,-2.875804901E-2,-3.158115864E0,4.749884709E0
7.360017862E0,-3.426743746E0,-5.446720123E-2,-3.046012163E0,4.585164062E0
7.364815571E0,-3.320814610E0,-8.065605164E-2,-3.011035204E0,4.483374630E0
7.369613331E0,-3.172836304E0,-2.387323380E-1,-2.921124458E0,4.319357758E0
7.374411092E0,-3.004434109E0,-4.114303589E-1,-2.673378229E0,4.042629146E0
7.379208852E0,-2.839454174E0,-5.055761337E-1,-2.317878485E0,3.700090256E0
7.384006612E0,-2.694769382E0,-5.833864212E-1,-1.907292843E0,3.352594179E0
7.388804373E0,-2.551412106E0,-6.352930069E-1,-1.484943628E0,3.019661987E0
7.393602133E0,-2.459874392E0,-7.377395630E-1,-1.192027807E0,2.831284510E0
7.398399894E0,-2.408238649E0,-8.070039749E-1,-9.761317968E-1,2.720974475E0
7.403197654E0,-2.360321999E0,-7.691469193E-1,-7.822473049E-1,2.602809591E0
7.407995415E0,-2.332514763E0,-7.128515244E-1,-6.459999084E-1,2.523112819E0
7.412793175E0,-2.188607693E0,-6.286373138E-1,-5.618455410E-1,2.345390994E0
7.417590935E0,-2.007810831E0,-5.452842712E-1,-6.474409103E-1,2.178949059E0
7.422388696E0,-1.788087130E0,-5.059280396E-1,-8.640278578E-1,2.049332307E0
7.427186456E0,-1.677946091E0,-7.401723862E-1,-1.255782485E0,2.222689338E0
7.431984217E0,-1.298045874E0,-1.063813210E0,-1.547255278E0,2.282678367E0
7.436781977E0,-7.597875595E-1,-1.213847160E0,-1.253301382E0,1.903015086E0
7.441579737E0,-1.977894306E-1,-1.329146385E0,-6.511103511E-1,1.493216482E0
7.446377498E0,4.162311554E-1,-1.591405869E0,1.155750155E-1,1.648993207E0
7.451175258E0,1.086596489E0,-1.790126801E0,7.244549990E-1,2.215870244E0
7.455973019E0,1.676927090E0,-1.892048836E0,1.016929150E0,2.725083147E0
7.460770779E0,2.196848631E0,-2.083793640E0,1.221660376E0,3.265087122E0
7.465568540E0,2.610550880E0,-2.241029739E0,1.469110370E0,3.741052722E0
7.470366300E0,2.854163647E0,-2.215709686E0,1.800516486E0,4.037013643E0
7.475164060E0,2.817339182E0,-1.958114624E0,2.296921730E0,4.128857273E0
7.479961769E0,2.707941294E0,-1.772137642E0,2.814215899E0,4.288732796E0
7.484759529E0,2.542658806E0,-1.712698936E0,3.275479317E0,4.486336613E0
7.489557290E0,2.416666031E0,-1.937056541E0,3.708546638E0,4.831747191E0
7.494355050E0,2.436638594E0,-2.374840736E0,4.183533669E0,5.392497577E0
7.499152810E0,2.581891298E0,-2.728628159E0,4.326780319E0,5.729974017E0
7.503950571E0,2.815550089E0,-3.047800064E0,3.798350811E0,5.625289007E0
7.508748331E0,3.163469791E0,-3.460553169E0,2.753304482E0,5.437246999E0
7.513546092E0,3.566946507E0,-3.982772827E0,1.477102041E0,5.546838488E0
7.518343852E0,3.936268330E0,-4.692786217E0,4.614552259E-1,6.142425560E0
7.523141612E0,4.181565285E0,-5.527857780E0,-2.992508411E-1,6.937741054E0
7.527939373E0,3.909358740E0,-6.640360832E0,-9.301571846E-1,7.761615175E0
7.532737133E0,3.001682997E0,-7.177532196E0,-1.813629150E0,7.988511747E0
7.537534894E0,1.499003887E0,-7.103879929E0,-3.094671011E0,7.892345112E0
7.542332654E0,-8.045792580E-2,-6.690267563E0,-3.933027267E0,7.761111842E0
7.547130415E0,-1.510940313E0,-5.953102112E0,-4.343174458E0,7.522335392E0
7.551928175E0,-2.575315952E0,-5.144228935E0,-4.100742340E0,7.064802285E0
7.556725935E0,-3.379638195E0,-4.309185982E0,-3.594455719E0,6.550660277E0
7.561523696E0,-4.078006744E0,-3.313907623E0,-3.007204771E0,6.054370593E0
7.566321456E0,-4.449934006E0,-2.437492371E0,-2.301849127E0,5.571516052E0
7.571119217E0,-4.654767036E0,-1.340044022E0,-1.340006351E0,5.025752796E0
7.575916977E0,-4.615753174E0,-1.649169922E-1,-3.813984394E-1,4.634419030E0
7.580714737E0,-4.379145622E0,6.510934830E-1,5.299077034E-1,4.458883412E0
7.585512498E0,-4.049855232E0,1.106886864E0,8.274061680E-1,4.279150254E0
7.590310258E0,-4.092617035E0,1.875053406E0,1.271472931E0,4.677818175E0
7.595108019E0,-4.024847984E0,2.635496616E0,1.847132087E0,5.153362073E0
7.599905779E0,-3.415910006E0,3.054624081E0,2.398483753E0,5.172223289E0
7.604703487E0,-2.805638552E0,3.401346684E0,2.631340027E0,5.134658439E0
7.609501248E0,-2.292456865E0,3.850525856E0,2.835315704E0,5.302916461E0
7.614299008E0,-1.903201103E0,4.146537781E0,2.841189146E0,5.374784253E0
7.619096769E0,-1.640730143E0,4.387785435E0,2.783352375E0,5.449009714E0
7.623894529E0,-1.387759686E0,4.514686584E0,2.915224314E0,5.550387797E0
7.628692290E0,-1.113058805E0,4.560909271E0,3.035771370E0,5.590769276E0
7.633490050E0,-7.561616898E-1,4.550247669E0,3.254949093E0,5.645460827E0
7.638287810E0,-2.893979549E-1,4.484713078E0,3.641837120E0,5.784408368E0
7.643085571E0,2.580163479E-1,4.449875832E0,4.064461708E0,6.032231455E0
7.647883331E0,8.088512421E-1,4.289847374E0,4.465265751E0,6.244648032E0
7.652681092E0,1.368780494E0,3.906648636E0,4.779517651E0,6.322914880E0
7.657478852E0,1.803642154E0,3.432377815E0,4.963961601E0,6.298829833E0
7.662276612E0,2.211003065E0,3.039643764E0,5.066279888E0,6.308340564E0
7.667074373E0,2.499257565E0,2.735877991E0,5.050733089E0,6.264281403E0
7.671872133E0,2.724636793E0,2.475937366E0,4.903409958E0,6.131667042E0
7.676669894E0,2.876591444E0,2.243212700E0,4.665571690E0,5.922359390E0
7.681467654E0,3.007395506E0,2.090290546E0,4.500046253E0,5.802082262E0
7.686265415E0,3.176727057E0,2.059964657E0,4.332932472E0,5.754072730E0
7.691063175E0,3.332360029E0,2.089693069E0,4.188287258E0,5.745710630E0
7.695860935E0,3.431941509E0,2.243608952E0,4.056615829E0,5.767853642E0
7.700658696E0,3.512443066E0,2.473387718E0,3.978437185E0,5.855157174E0
7.705456456E0,3.586834669E0,2.723635674E0,3.910546780E0,5.964557850E0
7.710254217E0,3.679990768E0,2.951005936E0,3.807375669E0,6.061920288E0
7.715051977E0,3.797468662E0,3.195805550E0,3.669024229E0,6.172169809E0
7.719849737E0,3.973235130E0,3.436133385E0,3.469524145E0,6.295332226E0
7.724647498E0,4.092522144E0,3.614257336E0,3.207248688E0,6.332301141E0
7.729445258E0,4.222074986E0,3.703468800E0,2.871437073E0,6.307673834E0
7.734243019E0,4.311469078E0,3.763079643E0,2.578136444E0,6.276648910E0
7.739040779E0,4.391654015E0,3.828442097E0,2.247249365E0,6.244495462E0
7.743838487E0,4.450358868E0,3.743791580E0,1.865626574E0,6.107555318E0
7.748636248E0,4.453859329E0,3.580394745E0,1.434905291E0,5.891947271E0
7.753434008E0,4.341695309E0,3.304747105E0,9.155094624E-1,5.532615038E0
7.758231769E0,4.183212757E0,3.091227055E0,5.662877560E-1,5.232173114E0
7.763029529E0,3.954911947E0,2.712680817E0,4.323461056E-1,4.815276615E0
7.767827290E0,3.677938223E0,2.224531651E0,1.834771633E-1,4.302259233E0
7.772625050E0,3.418786049E0,1.710885048E0,-7.054138184E-2,3.823637245E0
7.777422810E0,3.146210909E0,1.124166489E0,-4.351248741E-1,3.369232410E0
7.782220571E0,2.735958338E0,4.692711830E-1,-9.986071587E-1,2.950067749E0
7.787018331E0,2.374898672E0,-5.592956543E-1,-1.403208733E0,2.814595900E0
7.791816092E0,2.124929905E0,-2.067588806E0,-1.653603792E0,3.394798385E0
7.796613852E0,1.920593023E0,-3.960542679E0,-2.103389502E0,4.878403762E0
7.801411612E0,1.615188718E0,-5.902242661E0,-3.009175062E0,6.819122933E0
7.806209373E0,1.134382486E0,-7.650673866E0,-3.924422264E0,8.672988201E0
7.811007133E0,6.433837414E-1,-9.076665878E0,-4.472376823E0,1.013913017E1
7.815804894E0,9.674191475E-2,-1.009454155E1,-4.787403107E0,1.117266112E1
7.820602654E0,-3.886215687E-1,-1.049738216E1,-4.959374428E0,1.161643034E1
7.825400415E0,-8.829166889E-1,-9.689322472E0,-4.935795784E0,1.090983922E1
7.830198175E0,-1.205048084E0,-7.880685806E0,-4.798134804E0,9.304807750E0
7.834995935E0,-1.248185873E0,-6.014986038E0,-4.532632828E0,7.634316300E0
7.839793696E0,-1.093785763E0,-4.164690018E0,-4.486885071E0,6.218773824E0
7.844591456E0,-8.186619282E-1,-2.394611359E0,-4.566622734E0,5.220959118E0
7.849389217E0,-7.399489880E-1,-5.829448700E-1,-4.590402126E0,4.686058142E0
7.854186977E0,-6.775157452E-1,1.198951721E0,-4.703129768E0,4.900606333E0
7.858984737E0,-6.770465374E-1,2.388283253E0,-4.708703995E0,5.322986213E0
7.863782498E0,-7.483248711E-1,3.469697952E0,-4.824666023E0,5.989674134E0
7.868580258E0,-1.094005346E0,4.403327465E0,-4.823142052E0,6.621845643E0
7.873378019E0,-1.437936783E0,5.475966930E0,-4.788353920E0,7.414998940E0
7.878175779E0,-1.643772602E0,5.960718155E0,-4.492935181E0,7.643207169E0
7.882973540E0,-1.993370056E0,6.199247360E0,-4.071918964E0,7.680150784E0
7.887771248E0,-2.263489723E0,6.178439617E0,-3.972223282E0,7.686030161E0
7.892569060E0,-2.294012070E0,5.932955742E0,-3.589962244E0,7.304127883E0
7.897366769E0,-2.113188267E0,5.345022202E0,-2.686961412E0,6.344650394E0
7.902164581E0,-1.810599804E0,4.519902229E0,-1.780605793E0,5.184432930E0
7.906962342E0,-1.739847898E0,3.329501152E0,-8.056371212E-1,3.842095757E0
7.911760050E0,-1.966866732E0,1.799408436E0,5.070743561E-1,2.713588005E0
7.916557810E0,-2.482961416E0,-1.327180862E-1,2.059170723E0,3.228450952E0
7.921355571E0,-3.326706648E0,-2.576824188E0,3.770749569E0,5.650270111E0
7.926153331E0,-4.383614540E0,-5.724346161E0,5.344936371E0,8.975107811E0
7.930951092E0,-5.837018013E0,-8.749949455E0,6.453513145E0,1.234018747E1
