"Time (s)","Linear Acceleration x (m/s^2)","Linear Acceleration y (m/s^2)","Linear Acceleration z (m/s^2)","Absolute acceleration (m/s^2)"
6.128333334E-3,-1.714127348E0,1.120543451E0,-4.872549123E-1,2.105057610E0
1.613833336E-2,-1.165999120E0,7.554146540E-1,6.666176677E-1,1.540968644E0
2.614933334E-2,-7.473738554E-1,9.018704492E-1,2.421105130E0,2.689551642E0
3.615933337E-2,-4.407569763E-1,5.921264791E-1,3.407504098E0,3.486540500E0
4.616933333E-2,-4.043785241E-1,9.274151802E-2,2.773761815E0,2.804617191E0
5.618033337E-2,8.507844955E-2,-7.130878294E-1,1.662595544E0,1.811065029E0
6.619033334E-2,4.261860073E-1,-1.533204263E0,1.348472595E0,2.085839918E0
7.620033337E-2,4.887205169E-1,-1.478464969E0,1.194490263E0,1.962527299E0
8.621033333E-2,7.802483636E-1,-1.109109221E0,1.833762258E0,2.280700504E0
9.622133337E-2,3.956082854E-1,-8.126460314E-1,2.151287118E0,2.333438611E0
1.062313333E-1,1.432371661E0,-2.238296610E0,1.375930535E0,2.992464724E0
1.162413334E-1,2.027991413E0,-4.053451273E0,3.280592036E-1,4.544319447E0
1.262523333E-1,1.894962287E0,-4.763069950E0,-1.015387709E0,5.225775504E0
1.362623334E-1,1.028308594E0,-4.697716205E0,-8.203047144E-1,4.878407110E0
1.462723333E-1,6.590136561E-1,-4.737761446E0,1.937165004E-1,4.787296586E0
1.562823334E-1,9.932583368E-1,-5.084803051E0,3.852104741E-1,5.195206569E0
1.662933333E-1,1.481290929E0,-4.707921935E0,-6.513026404E-1,4.978247372E0
1.763033334E-1,2.361019726E0,-3.871570122E0,-1.669797560E0,4.832358974E0
1.863133333E-1,1.088878439E0,-4.298339097E0,-2.257160897E0,4.975555302E0
1.963243334E-1,-2.712720685E-1,-4.100641812E0,-2.035774203E0,4.586199779E0
2.063343333E-1,2.075507203E-1,-4.354106331E0,-1.715412274E0,4.684437908E0
2.163443334E-1,1.184618555E0,-5.244020394E0,-1.113813013E0,5.490323346E0
2.263543333E-1,1.600421808E0,-4.938479987E0,-9.479400766E-1,5.277170164E0
2.363653334E-1,1.049927943E0,-4.331716173E0,-1.305635600E0,4.644437319E0
2.463753333E-1,6.282173945E-1,-4.037620522E0,-2.031335874E0,4.563262211E0
2.563853334E-1,-5.230030346E-1,-3.792276031E0,-3.189093052E0,4.982489755E0
2.663963333E-1,-2.456331680E0,-2.522940238E0,-5.451180228E0,6.489542252E0
2.764063334E-1,-2.608909803E0,-4.024983519E-1,-7.216680336E0,7.684327580E0
2.864163333E-1,-2.484544788E0,4.709347486E-3,-4.614794209E0,5.241117302E0
2.964263334E-1,-1.387636076E0,6.368839914E-1,-3.425231686E-1,1.564761074E0
3.064373333E-1,-1.371227034E0,3.408234415E0,5.983607805E-1,3.722144682E0
3.164473334E-1,-2.385705501E0,5.918050577E0,2.197848788E0,6.748737117E0
3.264573333E-1,-1.878080644E0,9.938168628E0,4.283176974E0,1.098362361E1
3.364683334E-1,-2.048726078E0,1.229077246E1,5.672035995E0,1.369059380E1
3.464783333E-1,-4.922639295E-1,1.431548899E1,5.998051012E0,1.552907482E1
3.564883334E-1,9.697007820E-1,1.624076310E1,5.924205356E0,1.731470227E1
3.664983333E-1,4.232263221E0,1.812476054E1,7.297319287E0,1.999174493E1
3.765093334E-1,2.156340866E0,1.668518423E1,2.286439075E0,1.697860366E1
3.865193333E-1,2.264415538E0,1.293974791E1,2.984023013E0,1.347104476E1
3.965293334E-1,1.670997116E0,1.183338922E1,4.714773703E-1,1.196008456E1
4.065403334E-1,1.717458799E-1,1.107830551E1,-1.828292187E0,1.122947025E1
4.165503334E-1,-3.111516872E-1,1.055769048E1,-1.187630164E0,1.062883385E1
4.265603333E-1,-6.329523236E-2,9.247447568E0,-1.884200340E0,9.437664104E0
4.365703334E-1,2.758596185E0,7.961322080E0,-1.690097777E0,8.593540171E0
4.465813334E-1,-5.172145835E-1,4.732538128E0,-5.273581870E-1,4.789836607E0
4.565914167E-1,-1.820797811E0,4.944327788E0,1.155550073E0,5.394161465E0
4.666014167E-1,-1.436027048E0,3.886416203E0,2.273550643E0,4.726038204E0
4.766124167E-1,-1.088312721E0,-8.749118614E-1,1.594409409E0,2.119442546E0
4.866224167E-1,-1.300233943E0,-4.883965226E0,-3.963978788E-1,5.069601160E0
4.966324167E-1,-7.599728510E-1,-7.241021710E0,-2.192935081E0,7.603875223E0
5.066424167E-1,-1.294056067E-1,-8.806183346E0,-3.510938419E0,9.481154967E0
5.166534167E-1,8.096840512E-2,-9.472788734E0,-4.672179660E0,1.056264858E1
5.266634167E-1,9.579142570E-2,-9.528356579E0,-4.789361370E0,1.066474273E1
5.366734167E-1,5.094430491E-1,-9.718394011E0,-3.802721497E0,1.044832069E1
5.466844167E-1,5.863830150E-1,-9.691415543E0,-1.813018091E0,9.876963848E0
5.566944167E-1,-8.879435509E-2,-1.012537425E1,-7.809272254E-1,1.015583259E1
5.667044167E-1,-1.241748630E0,-1.151219464E1,6.773820262E-2,1.157916895E1
5.767144167E-1,-2.193922968E0,-1.250369648E1,1.212109678E0,1.275244813E1
5.867254167E-1,-3.718336235E0,-1.250751471E1,-2.501518378E0,1.328614100E1
5.967354167E-1,-1.980454865E0,-1.226868402E1,-4.334364377E0,1.316166872E1
6.067454167E-1,-3.961782135E0,-1.337556895E1,-2.175774672E0,1.411862451E1
6.167564167E-1,-2.397362218E0,-1.291541179E1,-1.467780352E0,1.321777540E1
6.267664167E-1,-1.764846682E0,-1.185625066E1,-1.399022359E0,1.206824872E1
6.367764167E-1,-1.566185191E0,-1.176874708E1,-2.075972056E0,1.205263472E1
6.467864167E-1,-1.425840613E0,-1.157932770E1,-2.265145855E0,1.188464291E1
6.567974167E-1,-2.195033939E0,-1.214845591E1,-5.607175756E-1,1.235789461E1
6.668074167E-1,-3.756530247E0,-1.269785561E1,5.733440530E-1,1.325427403E1
6.768174167E-1,-1.580153020E0,-1.240817168E1,3.417639077E-1,1.251304961E1
6.868284167E-1,2.848659970E0,-1.028855133E1,-1.116604182E0,1.073386962E1
6.968384167E-1,4.428044373E0,-7.221224792E0,-2.759663594E0,8.908950983E0
7.068484167E-1,2.485743468E0,-7.872829149E0,-4.175157193E-1,8.266479224E0
7.168584167E-1,3.704459623E-1,-9.162944192E0,2.009996753E0,9.388123531E0
7.268694167E-1,5.604105967E-1,-8.317342084E0,3.193149850E0,8.926838485E0
7.368794167E-1,1.317361607E0,-7.151390326E0,4.115591973E0,8.355592288E0
7.468894167E-1,8.734660643E-1,-5.700195016E0,3.731437506E0,6.868681973E0
7.568994167E-1,3.644402140E-1,-4.026730083E0,3.609522475E0,5.419965344E0
7.669104167E-1,-7.233510084E-2,-1.675745348E0,4.036383251E0,4.371011849E0
7.769204167E-1,-6.541318157E-1,1.754859345E0,3.149683403E0,3.664413362E0
7.869304167E-1,-1.156538399E0,5.777517427E0,1.901373028E0,6.191325227E0
7.969414167E-1,-1.399259463E0,1.028065876E1,7.243538059E-2,1.037569846E1
8.069514167E-1,-1.441842981E0,1.472983556E1,-3.628542298E-1,1.480468270E1
8.169614167E-1,-5.046505981E-1,1.874195286E1,-3.530460372E-1,1.875206951E1
8.269714167E-1,1.694895271E0,2.186887890E1,-2.369326866E-1,2.193573959E1
8.369824167E-1,4.158356169E0,2.357794285E1,1.062978124E0,2.396541754E1
8.469924167E-1,5.717056047E0,2.390681365E1,2.752320660E0,2.473450500E1
8.570024167E-1,6.551870043E0,2.381449781E1,4.094208705E0,2.503637058E1
8.670134167E-1,6.378405958E0,2.393448735E1,5.451402422E0,2.536260112E1
8.770234167E-1,5.382189515E0,2.368737466E1,6.332056834E0,2.510288083E1
8.870334167E-1,3.620278428E0,2.245133409E1,5.374006922E0,2.336768642E1
8.970444167E-1,2.198972623E0,2.059110090E1,2.266746238E0,2.083187594E1
9.070544167E-1,1.617780437E0,1.877741856E1,-7.554040559E-1,1.886211273E1
9.170644167E-1,1.811868236E0,1.603967735E1,-1.624291019E0,1.622320675E1
9.270744167E-1,1.805685975E0,1.284273207E1,-7.220937109E-1,1.298913732E1
9.370854167E-1,1.723594283E0,9.677354743E0,5.560573447E-1,9.845362962E0
9.470954167E-1,1.494086683E0,6.494282570E0,1.710401795E0,6.879932806E0
9.571054167E-1,1.196353990E0,3.997679946E0,2.666954820E0,4.952308132E0
9.671164167E-1,1.161932017E0,1.871991354E0,3.054904715E0,3.766547551E0
9.771264167E-1,7.707138207E-1,-7.996780765E-1,3.293197464E0,3.475432974E0
9.871364167E-1,4.772292763E-2,-3.774816245E0,3.110815791E0,4.891696029E0
9.971464167E-1,-6.339750016E-1,-6.520681579E0,2.627416533E0,7.058649318E0
1.007157417E0,-9.148452014E-1,-9.185813822E0,1.216396272E0,9.311054570E0
1.017167417E0,-4.820740599E-1,-1.132443587E1,-1.522499181E0,1.143648753E1
1.027177417E0,-4.661868095E-1,-1.337384520E1,-4.443699124E0,1.410047969E1
1.037187417E0,-1.197381712E0,-1.537569561E1,-5.431111414E0,1.635061802E1
1.047198417E0,-2.213917522E0,-1.600082962E1,-3.710685153E0,1.657399058E1
1.057208417E0,-4.168013431E0,-1.505650897E1,-3.199360178E0,1.594699670E1
1.067218417E0,-5.196242795E0,-1.458140866E1,-1.984965992E0,1.560636113E1
1.077229417E0,-5.286912645E0,-1.347343029E1,6.244966650E-1,1.448705509E1
1.087239417E0,-4.371015017E0,-1.249567760E1,2.032543616E0,1.339324325E1
1.097249417E0,8.045063417E-1,-9.285769635E0,-5.994646982E-1,9.339812958E0
1.107259417E0,1.550254890E0,-7.009474894E0,-2.786391217E0,7.700649617E0
1.117270417E0,-1.599533616E-1,-9.627718899E0,-7.119921342E-1,9.655334747E0
1.127280417E0,-1.388952869E0,-9.368316532E0,7.946892321E-1,9.504003141E0
1.137290417E0,-9.287259798E-1,-9.213650662E0,1.627175597E-1,9.261769133E0
1.147301417E0,-1.395100339E-1,-9.642602402E0,-5.167688064E-1,9.657447599E0
1.157311417E0,9.747600853E-2,-9.525931739E0,4.948206246E-1,9.539272745E0
1.167321417E0,-4.736689067E-1,-1.020108049E1,1.094536790E0,1.027056066E1
1.177331417E0,-1.245145862E0,-1.104080264E1,1.054716155E0,1.116074090E1
1.187342417E0,-1.424169625E0,-1.128755865E1,1.224417410E0,1.144274606E1
1.197352417E0,-1.021771699E0,-1.086241579E1,1.720264878E0,1.104515303E1
1.207362417E0,-7.087402052E-1,-1.036527499E1,2.039593019E0,1.058778437E1
1.217373417E0,-8.826211960E-1,-1.011045567E1,1.801441773E0,1.030754706E1
1.227383417E0,-8.007107679E-1,-9.547459432E0,1.638376962E0,9.720051359E0
1.237393417E0,-3.226739180E-1,-8.531896892E0,1.646505761E0,8.695307024E0
1.247403417E0,-2.220909914E-1,-7.529325110E0,1.072334912E0,7.608545405E0
1.257414417E0,-3.950919031E-1,-6.753698970E0,8.582893237E-1,6.819472703E0
1.267424417E0,-5.806111919E-1,-5.573489946E0,1.005663716E0,5.693176534E0
1.277434417E0,-8.316668046E-1,-3.782773136E0,-1.097369985E-1,3.874672177E0
1.287445417E0,-1.325546539E0,-1.418183100E0,-2.156055522E0,2.901188092E0
1.297455417E0,-1.376119984E0,1.486418937E0,-3.964524479E0,4.452033447E0
1.307465417E0,-3.601561783E-1,4.980067139E0,-4.878503927E0,6.980729314E0
1.317475417E0,1.328144165E0,9.406986508E0,-4.573451178E0,1.054380471E1
1.327486417E0,2.463873419E0,1.483643030E1,-3.374215314E0,1.541348971E1
1.337496417E0,3.227991069E0,2.075832425E1,-2.656590046E0,2.117511328E1
1.347506417E0,5.277945939E0,2.594028347E1,-6.652927617E-1,2.648013659E1
1.357517417E0,6.925701250E0,2.990828353E1,3.306142030E0,3.087719768E1
1.367527417E0,6.684216506E0,3.104777956E1,6.984752866E0,3.251815091E1
1.377537417E0,5.035863025E0,2.991835711E1,6.844713221E0,3.110173802E1
1.387547417E0,3.138699116E0,2.681757164E1,1.746212482E0,2.705702937E1
1.397558417E0,1.700558592E0,2.288301297E1,-4.887631431E0,2.346088496E1
1.407568417E0,1.055884721E0,1.919042378E1,-8.501624687E0,2.101582450E1
1.417578417E0,7.781085750E-1,1.637771424E1,-8.110568751E0,1.829252039E1
1.427589417E0,3.140709096E-1,1.418751800E1,-5.269810123E0,1.513787324E1
1.437599417E0,1.265282650E-1,1.215169994E1,-2.356583444E0,1.237874414E1
1.447609417E0,2.990672466E-1,9.984769768E0,-2.107956326E-1,9.991471530E0
1.457618792E0,8.325399401E-1,7.744688002E0,1.732387326E0,7.979629118E0
1.467629792E0,8.011783259E-1,4.725240219E0,3.508422947E0,5.939597075E0
1.477639792E0,1.449346420E0,2.067117618E0,3.980962172E0,4.713983464E0
1.487649792E0,1.740725601E0,-1.157494930E0,3.902515926E0,4.427137979E0
1.497660792E0,1.131075675E0,-4.798171370E0,3.067842264E0,5.806327310E0
1.507670792E0,-2.115595713E-2,-8.574865156E0,1.364274841E0,8.682741840E0
1.517680792E0,-1.359529387E0,-1.224120327E1,-6.042616443E-1,1.233128176E1
1.527690792E0,-1.907381334E0,-1.485773521E1,-1.820432360E0,1.508987651E1
1.537701792E0,-2.360716694E0,-1.629020247E1,-2.068772818E0,1.658986139E1
1.547711792E0,-2.647948153E0,-1.639061554E1,-1.654983054E0,1.668540908E1
1.557721792E0,-2.366911966E0,-1.534444575E1,-1.396236745E0,1.558857802E1
1.567732792E0,-1.653015759E0,-1.398260583E1,-8.184254193E-1,1.410374231E1
1.577742792E0,-9.892539442E-1,-1.241227994E1,5.674794419E-1,1.246456375E1
1.587752792E0,-5.171287025E-1,-1.079952314E1,1.544067367E0,1.092159632E1
1.597762792E0,-1.182944351E-1,-9.172944100E0,2.344565077E0,9.468573411E0
1.607773792E0,-1.818993507E-1,-8.101580411E0,3.058940463E0,8.661744010E0
1.617783792E0,-6.056713349E-1,-7.671511268E0,3.319506426E0,8.380814150E0
1.627793792E0,-7.299585814E-1,-7.692028563E0,3.095430597E0,8.323570960E0
1.637804792E0,-6.962100606E-1,-8.167739317E0,2.327851396E0,8.521476757E0
1.647814792E0,-5.829683507E-1,-8.969645183E0,1.362591866E0,9.091261926E0
1.657824792E0,-4.921218422E-1,-9.948411781E0,3.076360488E-1,9.965325926E0
1.667834792E0,-7.249998502E-1,-1.055920491E1,-3.034984859E-1,1.058841558E1
1.677845792E0,-9.894496067E-1,-1.079921791E1,-1.139995091E-1,1.084505020E1
1.687855792E0,-1.113963579E0,-1.072668203E1,3.721074486E-1,1.079078710E1
1.697865792E0,-9.853602102E-1,-1.054187727E1,7.408983564E-1,1.061371950E1
1.707876792E0,-9.997177559E-1,-1.031954625E1,8.237113023E-1,1.040052743E1
1.717886792E0,-9.817171025E-1,-1.002151718E1,6.933581543E-1,1.009333050E1
1.727896792E0,-8.939536846E-1,-9.562665702E0,6.633069742E-1,9.627237644E0
1.737906792E0,-7.311938788E-1,-9.067541022E0,9.464409967E-1,9.146075400E0
1.747917792E0,-5.556352488E-1,-8.814293434E0,1.040299187E0,8.892846657E0
1.757927792E0,-3.306870154E-1,-8.433425687E0,1.083828199E0,8.509213024E0
1.767937792E0,-3.204383082E-1,-8.176969732E0,1.114817272E0,8.258833589E0
1.777947792E0,-4.327324768E-1,-7.873530815E0,7.189934441E-1,7.918124554E0
1.787958792E0,-5.589466732E-1,-7.226214806E0,8.708601795E-2,7.248322963E0
1.797968792E0,-7.604614589E-1,-5.717962950E0,-8.392063507E-1,5.829036733E0
1.807978792E0,-7.295695223E-1,-3.181889867E0,-2.102398986E0,3.882882474E0
1.817989792E0,-4.287209214E-1,6.370991689E-1,-3.768301277E0,3.845749796E0
1.827999792E0,3.971083885E-1,5.754853034E0,-4.958282168E0,7.606614922E0
1.838009792E0,1.588199373E0,1.148262644E1,-4.293987014E0,1.236169130E1
1.848020792E0,3.145903763E0,1.747419699E1,-1.946589546E0,1.786150838E1
1.858030792E0,4.268905090E0,2.295903613E1,1.595166038E0,2.340695292E1
1.868040792E0,4.434870998E0,2.704083704E1,5.670901051E0,2.798274589E1
1.878050792E0,3.172565897E0,2.858046739E1,7.829424098E0,2.980282155E1
1.888061792E0,2.248658753E0,2.789941880E1,6.322883137E0,2.869517183E1
1.898071792E0,2.510988529E0,2.587856493E1,7.600994432E-1,2.601120792E1
1.908081792E0,3.496567717E0,2.429352043E1,-6.235918669E0,2.532366092E1
1.918091792E0,3.646032197E0,2.349498256E1,-8.959059384E0,2.540811880E1
1.928102792E0,2.530344274E0,2.242461699E1,-6.068957273E0,2.336874690E1
1.938112792E0,2.069492903E0,2.109835855E1,-1.435685570E0,2.124816998E1
1.948122792E0,2.240659762E0,1.949336100E1,1.685139484E0,1.969394258E1
1.958133792E0,2.231196629E0,1.698972827E1,3.187516057E0,1.742955432E1
1.968143792E0,1.950205172E0,1.359810229E1,3.199979982E0,1.410501889E1
1.978153792E0,1.319116648E0,9.442269192E0,2.711861436E0,9.912149549E0
1.988163792E0,4.957499664E-1,5.470835643E0,1.704894887E0,5.751736889E0
1.998174792E0,2.101892032E-1,1.319720081E0,9.832373786E-1,1.659095035E0
2.008184792E0,-7.257073633E-1,-2.971663168E0,6.506454134E-1,3.127422679E0
2.018194792E0,-1.412923237E0,-6.795914698E0,2.893553138E-1,6.947268179E0
2.028205792E0,-1.602394659E0,-9.978369405E0,-6.093620975E-2,1.010639589E1
2.038215792E0,-1.618708683E0,-1.258729646E1,-7.850916123E-1,1.271521210E1
2.048225792E0,-1.663513557E0,-1.438922121E1,-1.685010846E0,1.458273726E1
2.058235792E0,-1.788225312E0,-1.557563764E1,-2.048319404E0,1.581119382E1
2.068246792E0,-2.030048317E0,-1.613303517E1,-1.784871933E0,1.635792431E1
2.078256792E0,-2.020688094E0,-1.608294324E1,-9.312930536E-1,1.623611870E1
2.088266792E0,-1.486719484E0,-1.500074173E1,-7.437422594E-2,1.507441936E1
2.098277792E0,-1.105460558E0,-1.348945868E1,-4.246446812E-1,1.354133899E1
2.108287792E0,-6.037999336E-1,-1.221386052E1,-8.149895954E-1,1.225590353E1
2.118297792E0,-2.742125601E-1,-1.114178055E1,-2.678901668E-1,1.114837349E1
2.128307792E0,-5.330906510E-3,-9.945237912E0,4.383716047E-1,9.954896042E0
2.138318792E0,1.804544306E-1,-8.996782111E0,7.345283997E-1,9.028520594E0
2.148328792E0,1.797111764E-1,-8.500881506E0,6.889411676E-1,8.530646072E0
2.158338792E0,1.475384071E-1,-8.335784202E0,6.263081324E-1,8.360581781E0
2.168349792E0,-3.245526284E-2,-8.458862829E0,3.781435293E-1,8.467373042E0
2.178359792E0,-2.577642694E-1,-8.814641343E0,-3.404874605E-1,8.824980235E0
2.188369792E0,-1.430840714E-1,-8.458092751E0,-3.252817762E-1,8.465554575E0
2.198379792E0,-1.318093970E-1,-8.914117684E0,-7.515309334E-2,8.915408897E0
2.208390792E0,-1.745248423E-1,-9.029214277E0,-1.824694176E-1,9.032744017E0
2.218400792E0,-8.074192053E-1,-9.175499334E0,-3.135902685E-1,9.216292783E0
2.228410792E0,-1.354679999E0,-9.337067258E0,-1.988439238E-1,9.436923322E0
2.238421792E0,-1.614429106E0,-9.473434267E0,2.999224019E-1,9.614691446E0
2.248431792E0,-1.713577125E0,-9.530576182E0,6.716182065E-1,9.706662657E0
2.258441792E0,-1.643956960E0,-9.560729688E0,8.211338496E-1,9.735728399E0
2.268451792E0,-1.580869888E0,-9.556617342E0,7.286636424E-1,9.713857901E0
2.278462792E0,-1.372516053E0,-9.265864543E0,6.408565897E-1,9.388862722E0
2.288472792E0,-1.257611541E0,-8.854944447E0,7.922673154E-1,8.978825950E0
2.298482792E0,-1.580054494E0,-8.439026150E0,7.804756741E-1,8.621071676E0
2.308493792E0,-2.082793711E0,-7.704343384E0,5.141485594E-1,7.997454930E0
2.318503792E0,-2.355059659E0,-6.117866893E0,3.553115409E-2,6.555597897E0
2.328513792E0,-2.216634430E0,-3.953490783E0,-7.671079159E-1,4.596956833E0
2.338523792E0,-1.941933701E0,-9.427231908E-1,-2.112751043E0,3.020521558E0
2.348534792E0,-1.247660750E0,2.976996413E0,-3.740665582E0,4.940824221E0
2.358544792E0,-7.217609312E-1,7.604472356E0,-5.101549476E0,9.185572694E0
2.368554792E0,-1.348818165E-1,1.236404859E1,-4.451042642E0,1.314152470E1
2.378565792E0,1.066836702E0,1.697602474E1,-5.896783230E-1,1.701973199E1
2.388575792E0,1.599701139E0,2.109610386E1,5.172964445E0,2.177990365E1
2.398585792E0,1.726874863E0,2.438553923E1,9.149631252E0,2.610272730E1
2.408595792E0,1.794487680E0,2.583773266E1,9.795015925E0,2.769026818E1
2.418606792E0,2.730650587E0,2.542040986E1,7.590537271E0,2.666964466E1
2.428616792E0,4.850970558E0,2.420065261E1,3.269533197E0,2.489765751E1
2.438626792E0,6.412202865E0,2.426349614E1,-1.002709776E-1,2.509668594E1
2.448637792E0,5.581136935E0,2.502677063E1,1.244790351E-1,2.564183754E1
2.458648417E0,3.317413707E0,2.513131416E1,2.045067183E0,2.543168270E1
2.468658417E0,1.650184245E0,2.421267916E1,3.138011776E0,2.447088184E1
2.478668417E0,6.514414387E-1,2.187663465E1,3.550757958E0,2.217249200E1
2.488679417E0,1.114735850E-1,1.932382332E1,4.172794699E0,1.976954197E1
2.498689417E0,-1.016995986E-1,1.586986017E1,4.515507317E0,1.650007912E1
2.508699417E0,-2.792011122E-1,1.127519296E1,3.441633711E0,1.179206395E1
2.518710417E0,-4.805237438E-1,6.420152155E0,2.101311989E0,6.772353271E0
2.528720417E0,-7.948108542E-1,1.597120762E0,7.333648038E-1,1.928819058E0
2.538730417E0,-1.135137005E0,-3.001329601E0,-7.549703387E-1,3.296436805E0
2.548740417E0,-1.089454171E0,-6.896915408E0,-1.433229740E0,7.128008138E0
2.558751417E0,-9.900227800E-1,-1.000765226E1,-1.717340101E0,1.020208341E1
2.568761417E0,-5.944259698E-1,-1.262757910E1,-1.832829627E0,1.277373714E1
2.578771417E0,-2.370607406E-1,-1.465352004E1,-1.704742860E0,1.475425347E1
2.588782417E0,-6.260485160E-1,-1.602702631E1,-1.720691140E0,1.613128288E1
2.598792417E0,-1.209029146E0,-1.675601740E1,-2.019000295E0,1.692046787E1
2.608802417E0,-1.675455033E0,-1.679221868E1,-2.033091500E0,1.699762392E1
2.618812417E0,-1.799313971E0,-1.607920219E1,-1.679334369E0,1.626648203E1
2.628823417E0,-1.711794894E0,-1.462269235E1,-1.205362576E0,1.477180666E1
2.638833417E0,-1.219190730E0,-1.288697562E1,-4.946557331E-1,1.295396661E1
2.648843417E0,-8.802065152E-1,-1.137272101E1,3.481490672E-1,1.141204427E1
2.658854417E0,-8.794400183E-1,-1.037910482E1,9.135011458E-1,1.045627639E1
2.668864417E0,-8.029089555E-1,-9.682285116E0,1.041048800E0,9.771135577E0
2.678874417E0,-6.868034986E-1,-9.171617952E0,8.922301447E-1,9.240473448E0
2.688884417E0,-7.387857574E-1,-9.244744400E0,4.323244143E-1,9.284288224E0
2.698895417E0,-8.858491514E-1,-9.592176599E0,-1.093218736E-1,9.633614685E0
2.708905417E0,-1.034198348E0,-9.841624081E0,-5.364130390E-1,9.910341554E0
2.718915417E0,-9.302306145E-1,-1.018773130E1,-7.407767344E-1,1.025689759E1
2.728926417E0,-5.853396159E-1,-1.021549856E1,-8.385796022E-1,1.026655975E1
2.738936417E0,-6.310519785E-2,-9.434269617E0,-1.172642142E0,9.507077104E0
2.748946417E0,-9.264302167E-1,-1.106865410E1,-8.169033891E-1,1.113735640E1
2.758956417E0,-1.505972026E0,-1.173290365E1,-1.425979777E0,1.191479744E1
2.768967417E0,-1.416247379E0,-1.156582414E1,-1.035117384E0,1.169809867E1
2.778977417E0,-1.747129326E0,-1.127534499E1,3.772448123E-2,1.140996444E1
2.788987417E0,-1.532816885E0,-1.065764279E1,3.894742638E-1,1.077434766E1
2.798998417E0,-1.298146487E0,-1.015414372E1,9.214358175E-1,1.027817411E1
2.809008417E0,-1.137393153E0,-9.463632579E0,1.170600879E0,9.603348958E0
2.819018417E0,-8.479333931E-1,-8.669216412E0,1.253712033E0,8.800346476E0
2.829028417E0,-7.961818801E-1,-7.584675438E0,8.969265553E-1,7.678911663E0
2.839039417E0,-1.074663639E0,-6.174200138E0,-3.827711619E-2,6.267145635E0
2.849049417E0,-1.382490233E0,-4.206252467E0,-1.395243303E0,4.642256233E0
2.859059417E0,-1.452029415E0,-1.635397806E0,-2.708944845E0,3.481565392E0
2.869069417E0,-1.163762560E0,2.209122512E0,-3.463484756E0,4.269694629E0
2.879080417E0,1.533362138E-1,7.321951268E0,-3.559242268E0,8.142646246E0
2.889090417E0,1.940756364E0,1.283725323E1,-3.276380287E0,1.339015585E1
2.899100417E0,3.946001669E0,1.807085272E1,-2.086052656E0,1.861392658E1
2.909111417E0,5.847597476E0,2.271825012E1,7.896892049E-1,2.347204495E1
2.919121417E0,7.155365263E0,2.603772614E1,5.439137303E0,2.754535622E1
2.929131417E0,7.470475808E0,2.769545856E1,1.059725742E1,3.058019455E1
2.939142417E0,6.965189837E0,2.730210935E1,1.386863191E1,3.140474479E1
2.949152417E0,5.482970370E0,2.582333915E1,1.346051263E1,2.963263757E1
2.959162417E0,4.871152223E0,2.446999875E1,9.766501393E0,2.679353490E1
2.969172417E0,3.529046077E0,2.324106137E1,3.321695623E0,2.374099327E1
2.979183417E0,2.090362346E0,2.184551343E1,-1.143523666E0,2.197507038E1
2.989193417E0,1.106254756E0,1.994932922E1,-3.491544374E0,2.028276160E1
2.999203417E0,3.507906930E-1,1.829009056E1,-3.125156672E0,1.855847707E1
3.009213417E0,4.883012715E-1,1.623737405E1,-9.420729804E-1,1.627200835E1
3.019224417E0,1.066301755E0,1.379737306E1,1.559335470E0,1.392609169E1
3.029234417E0,1.578660956E0,1.077795977E1,2.945940682E0,1.128428792E1
3.039244417E0,1.710320811E0,7.361443947E0,2.816430702E0,8.065254873E0
3.049255417E0,1.489629935E0,3.686090595E0,2.640179250E0,4.772505389E0
3.059265417E0,8.117400053E-1,-4.458501935E-2,2.422271065E0,2.555055140E0
3.069275417E0,-5.498721600E-3,-3.825033302E0,1.674084738E0,4.175340670E0
3.079286417E0,-4.574010757E-1,-7.268699505E0,6.562622488E-1,7.312584248E0
3.089296417E0,-5.192193013E-1,-1.013924970E1,-3.870657957E-1,1.015991107E1
3.099306417E0,-6.012332983E-1,-1.271511893E1,-1.436086689E0,1.281007712E1
3.109316417E0,-1.043100368E0,-1.480017990E1,-2.198785805E0,1.499893471E1
3.119327417E0,-1.614788125E0,-1.612239908E1,-2.463728993E0,1.638930302E1
3.129337417E0,-2.220526629E0,-1.654954286E1,-2.644882751E0,1.690602000E1
3.139347417E0,-2.758073736E0,-1.623567836E1,-2.765923623E0,1.669893877E1
3.149358417E0,-2.643694304E0,-1.512839347E1,-2.258764789E0,1.552286787E1
3.159368417E0,-1.946558556E0,-1.325917896E1,-1.494826648E0,1.348441410E1
3.169378417E0,-1.036061783E0,-1.131132174E1,-7.136795676E-1,1.138107033E1
3.179388417E0,-4.380752970E-1,-9.451349918E0,1.868027343E-1,9.463340874E0
3.189399417E0,-2.162662145E-1,-8.105571721E0,1.058262418E0,8.177223449E0
3.199409417E0,1.545338698E-2,-7.170931136E0,1.791510862E0,7.391346517E0
3.209419417E0,3.095890188E-1,-6.553117839E0,2.308045707E0,6.954586526E0
3.219429417E0,6.288227275E-1,-6.673491544E0,2.495768811E0,7.152605774E0
3.229440417E0,6.987834933E-1,-7.320809891E0,2.089321834E0,7.645117498E0
3.239450417E0,5.806539497E-1,-8.227997214E0,1.104075937E0,8.322023842E0
3.249460417E0,2.176821908E-1,-9.368563285E0,-2.988628864E-1,9.375856365E0
3.259471417E0,-4.288757265E-1,-1.057330489E1,-1.380237594E0,1.067163373E1
3.269481417E0,-1.101918315E0,-1.160894150E1,-1.691144575E0,1.178311151E1
3.279491417E0,-1.689777496E0,-1.230674237E1,-1.583937045E0,1.252278373E1
3.289502417E0,-2.275148102E0,-1.268768029E1,-1.301585526E0,1.295560322E1
3.299512417E0,-2.515992576E0,-1.284820624E1,-1.022443544E0,1.313209857E1
3.309522417E0,-2.401756985E0,-1.268111971E1,-5.011180758E-1,1.291628248E1
3.319532417E0,-2.329351791E0,-1.222999650E1,-2.154032385E-1,1.245171043E1
3.329543417E0,-2.136110962E0,-1.155273105E1,-2.785438120E-1,1.175185736E1
3.339553417E0,-1.768403543E0,-1.064735169E1,-3.495921600E-1,1.079886863E1
3.349563417E0,-1.417667375E0,-9.671509867E0,-2.856844318E-1,9.779033668E0
3.359574417E0,-1.518288601E0,-8.660588846E0,-5.000127694E-2,8.792809537E0
3.369584417E0,-1.951598563E0,-7.231848013E0,1.039699262E-1,7.491273082E0
3.379594417E0,-2.485911867E0,-5.323929613E0,-1.731723082E-1,5.878262752E0
3.389604417E0,-3.251128794E0,-2.865637361E0,-1.377843744E0,4.547545415E0
3.399615417E0,-3.756310100E0,3.097030395E-1,-2.997566918E0,4.815723099E0
3.409625417E0,-2.966895933E0,4.588571493E0,-4.061950786E0,6.808590457E0
3.419635417E0,-7.145689291E-1,9.713175371E0,-3.690968342E0,1.041535558E1
3.429646417E0,1.816517942E0,1.520011074E1,-1.566566137E0,1.538821735E1
3.439656417E0,3.770355696E0,2.080875999E1,1.155143180E0,2.117910362E1
3.449666417E0,5.370731896E0,2.590173394E1,3.683592664E0,2.670792836E1
3.459675708E0,5.837294682E0,2.958253982E1,6.056466451E0,3.075518586E1
3.469686708E0,4.638585652E0,3.077054669E1,8.906612198E0,3.236774261E1
3.479696708E0,2.979990480E0,2.997427287E1,1.079696205E1,3.199862133E1
3.489706708E0,1.733223478E0,2.840328974E1,8.691389054E0,2.975384304E1
3.499717708E0,1.357423512E0,2.699089714E1,4.056458496E0,2.732775114E1
3.509727708E0,1.449163987E0,2.542250316E1,5.548934564E-3,2.546377376E1
3.519737708E0,1.500846064E0,2.322527389E1,-1.653092065E0,2.333235092E1
3.529747708E0,1.805203287E0,2.086278593E1,-1.182729247E0,2.097411366E1
3.539758708E0,2.247756967E0,1.871179877E1,3.534664520E-1,1.884963562E1
3.549768708E0,2.222857768E0,1.614472375E1,1.456238533E0,1.636196297E1
3.559778708E0,1.809190065E0,1.283892554E1,1.990042398E0,1.311760063E1
3.569789708E0,1.778417777E0,9.642183741E0,2.638292938E0,1.015357409E1
3.579799708E0,1.578681276E0,5.924225821E0,3.228596256E0,6.929106720E0
3.589809708E0,8.536673190E-1,1.731195078E0,2.826497269E0,3.422699388E0
3.599819708E0,1.531500531E-1,-2.395506020E0,1.685651700E0,2.933142629E0
3.609830708E0,-3.935015336E-1,-6.267519361E0,4.769836932E-1,6.297948542E0
3.619840708E0,-8.607206690E-1,-9.829185884E0,-6.189289463E-1,9.886192809E0
3.629850708E0,-1.139433831E0,-1.265835416E1,-1.561732829E0,1.280512589E1
3.639861708E0,-1.620055296E0,-1.480091665E1,-2.201530488E0,1.505119428E1
3.649871708E0,-2.378678025E0,-1.611213605E1,-2.518836662E0,1.648039973E1
3.659881708E0,-2.885376684E0,-1.660903126E1,-2.675247341E0,1.706875117E1
3.669891708E0,-3.169351682E0,-1.622852254E1,-2.537056586E0,1.672860992E1
3.679902708E0,-2.886471283E0,-1.490803296E1,-1.939827826E0,1.530830151E1
3.689912708E0,-2.285060302E0,-1.295623471E1,-9.762230587E-1,1.319236635E1
3.699922708E0,-1.613898763E0,-1.079497985E1,1.020900464E-1,1.091543318E1
3.709933708E0,-8.171625669E-1,-9.146742142E0,9.955843592E-1,9.236981904E0
3.719943708E0,-5.826436110E-1,-8.130377364E0,1.441043959E0,8.277627519E0
3.729953708E0,-4.217702631E-1,-7.735369880E0,1.287982564E0,7.853199120E0
3.739963708E0,-5.557734624E-2,-7.726899018E0,7.887578166E-1,7.767251520E0
3.749974708E0,2.580595538E-3,-8.133229635E0,3.563001223E-1,8.141030693E0
3.759984708E0,-8.172156304E-2,-9.076784885E0,2.182215965E-1,9.079775489E0
3.769994708E0,-1.664382161E-1,-9.997213812E0,5.752019327E-2,9.998764636E0
3.780005708E0,-1.757651098E-1,-1.070977773E1,-3.851432677E-1,1.071814199E1
3.790015708E0,-5.970385057E-1,-1.161023257E1,-9.116873395E-1,1.166126619E1
3.800025708E0,-1.289568036E0,-1.244613532E1,-8.834675074E-1,1.254391426E1
3.810035708E0,-2.048297477E0,-1.295988338E1,-5.492955879E-1,1.313224373E1
3.820046708E0,-2.303332266E0,-1.288888882E1,5.342253763E-2,1.309319093E1
3.830056708E0,-2.241211447E0,-1.259924466E1,7.635446227E-1,1.281978920E1
3.840066708E0,-2.179117233E0,-1.234230046E1,9.777702320E-1,1.257127548E1
3.850077708E0,-2.075995445E0,-1.226551482E1,1.022949328E0,1.248194842E1
3.860087708E0,-1.864912422E0,-1.204935846E1,1.062387629E0,1.223901978E1
3.870097708E0,-1.584627602E0,-1.172224417E1,1.343114791E0,1.190487339E1
3.880107708E0,-1.564581300E0,-1.129758078E1,1.762729697E0,1.154081722E1
3.890118708E0,-1.631948533E0,-1.077958764E1,1.676224819E0,1.103052561E1
3.900128708E0,-1.313227333E0,-9.955306817E0,9.996376491E-1,1.009118305E1
3.910138708E0,-9.823489673E-1,-8.753141499E0,3.185218102E-1,8.813849995E0
3.920149708E0,-1.432242145E0,-7.011055981E0,-3.248900127E-1,7.163223928E0
3.930159708E0,-1.612303350E0,-4.216180454E0,-1.525699947E0,4.764814797E0
3.940169708E0,-1.122486480E0,-1.125325888E-1,-2.738588474E0,2.961841710E0
3.950179708E0,-4.985018123E-1,4.876611183E0,-2.840253428E0,5.665410861E0
3.960190708E0,7.109388314E-1,1.033925488E1,-1.630006088E0,1.049106979E1
3.970200708E0,2.447526943E0,1.575413325E1,2.613576758E-1,1.594526295E1
3.980210708E0,4.468981315E0,2.154958350E1,2.584775712E0,2.215936391E1
3.990221708E0,6.460289782E0,2.711216138E1,4.169983358E0,2.818143715E1
4.000231708E0,8.319467547E0,3.067919915E1,5.048021141E0,3.218554518E1
4.010241708E0,8.612280319E0,3.098625048E1,6.176201055E0,3.274850455E1
4.020251708E0,7.215698004E0,2.927296484E1,5.693255541E0,3.068201308E1
4.030262708E0,4.711356590E0,2.790813349E1,3.035324728E0,2.846531208E1
4.040272708E0,2.240160995E0,2.674232966E1,-2.033813997E-1,2.683676361E1
4.050282708E0,9.132723735E-1,2.533257766E1,-1.827499305E0,2.541482464E1
4.060293708E0,1.043621575E0,2.391685917E1,-8.353671420E-1,2.395418829E1
4.070303708E0,1.728020917E0,2.199542200E1,1.137842438E0,2.209251753E1
4.080313708E0,2.188659889E0,1.953000433E1,2.776856162E0,1.984747419E1
4.090323708E0,2.150827819E0,1.642244778E1,3.503710091E0,1.692923022E1
4.100334708E0,1.921046569E0,1.279083570E1,3.185774757E0,1.332085052E1
4.110344708E0,1.567574343E0,8.716111082E0,2.878246881E0,9.311937866E0
4.120354708E0,1.177104152E0,4.161129504E0,2.451951531E0,4.971180870E0
4.130365708E0,8.583863144E-1,-4.374313724E-1,1.272068782E0,1.595723114E0
4.140375708E0,3.898793297E-1,-4.868926188E0,-2.992370169E-2,4.884602700E0
4.150385708E0,-2.531056465E-1,-8.701316457E0,-7.509742785E-1,8.737329851E0
4.160395708E0,-1.114799731E0,-1.184706234E1,-9.008372462E-1,1.193344763E1
4.170406708E0,-2.121654890E0,-1.423449453E1,-1.023008970E0,1.442805605E1
4.180416708E0,-2.908305078E0,-1.591227120E1,-9.425933826E-1,1.620330508E1
4.190426708E0,-3.450469146E0,-1.681892409E1,-7.123873329E-1,1.718398791E1
4.200437708E0,-3.138122288E0,-1.684864081E1,-6.412723267E-1,1.715038596E1
4.210447708E0,-2.282500683E0,-1.612597758E1,-9.417420280E-1,1.631391554E1
4.220457708E0,-1.376058881E0,-1.479323925E1,-1.398276254E0,1.492275585E1
4.230467708E0,-7.083510000E-1,-1.328118554E1,-1.381327515E0,1.337160111E1
4.240478708E0,-3.450701427E-1,-1.179704058E1,-9.136169207E-1,1.183739565E1
4.250488708E0,-1.679212893E-1,-1.048683626E1,-1.925651471E-1,1.048994822E1
4.260498708E0,-7.222553864E-2,-9.377427079E0,6.577089230E-1,9.400741257E0
4.270509708E0,-1.678501725E-2,-8.688424516E0,1.296330049E0,8.784615751E0
4.280519708E0,-2.012392357E-2,-8.414448549E0,1.512394023E0,8.549309038E0
4.290529708E0,-9.436938286E-2,-8.459022458E0,1.467709601E0,8.585926741E0
4.300539708E0,-1.991416202E-1,-8.997989561E0,1.103964840E0,9.067646436E0
4.310550708E0,-4.156028393E-1,-9.690931978E0,5.561625946E-1,9.715770950E0
4.320560708E0,-8.030150825E-1,-1.035489735E1,-4.015633821E-2,1.038606494E1
4.330570708E0,-1.224932622E0,-1.096398894E1,-5.896525222E-1,1.104795019E1
4.340581708E0,-1.649645131E0,-1.145579708E1,-9.736818588E-1,1.161484706E1
4.350591708E0,-1.946107443E0,-1.180500917E1,-1.040200369E0,1.200947928E1
4.360601708E0,-2.208054811E0,-1.204312065E1,-1.025019243E0,1.228669710E1
4.370611708E0,-2.295147918E0,-1.202514982E1,-1.151012707E0,1.229620927E1
4.380622708E0,-1.843239425E0,-1.194077801E1,-1.020605764E0,1.212523596E1
4.390632708E0,-1.249504961E0,-1.147162315E1,-6.419272149E-1,1.155731244E1
4.400642708E0,-7.831959450E-1,-1.067146911E1,-5.183661926E-1,1.071271919E1
4.410653708E0,-7.142304484E-1,-9.748870284E0,-2.173364011E-1,9.777414385E0
4.420663708E0,-5.501890060E-1,-8.702247334E0,3.418104661E-1,8.726319441E0
4.430673708E0,-1.746580857E-1,-7.286786113E0,9.378021741E-1,7.348961166E0
4.440683708E0,3.726924625E-1,-5.414072628E0,1.231011972E0,5.564752696E0
4.450694708E0,3.847684246E-1,-3.105404193E0,7.610975629E-1,3.220380636E0
4.460704583E0,-4.590588344E-1,-1.758094025E-1,-6.816567794E-1,8.404165184E-1
4.470714583E0,-1.366245207E0,3.694631038E0,-2.703663640E0,4.777731841E0
4.480725583E0,-2.008269193E0,8.203214960E0,-3.885604609E0,9.296440394E0
4.490735583E0,-5.203679869E-1,1.312972511E1,-2.745495790E0,1.342379274E1
4.500745583E0,2.758581274E0,1.798925365E1,7.004068266E-1,1.821300600E1
4.510756583E0,5.414366743E0,2.207683863E1,3.735658611E0,2.303600045E1
4.520766583E0,6.960438974E0,2.477311373E1,5.603766829E0,2.633547185E1
4.530776583E0,7.290460503E0,2.590592990E1,7.408186004E0,2.791324486E1
4.540786583E0,6.677275862E0,2.626345206E1,8.647538445E0,2.844529571E1
4.550797583E0,4.737816118E0,2.661161867E1,7.866798915E0,2.815158388E1
4.560807583E0,2.148007122E0,2.746999928E1,5.392256082E0,2.807652437E1
4.570817583E0,4.952005474E-1,2.815634545E1,2.871210927E0,2.830669294E1
4.580828583E0,4.347479390E-1,2.742978915E1,2.047536023E0,2.750953911E1
4.590838583E0,1.285919812E0,2.558207134E1,2.384573627E0,2.572512692E1
4.600848583E0,2.239130715E0,2.284100189E1,3.308774446E0,2.318777829E1
4.610858583E0,2.401427495E0,1.912277383E1,3.886721427E0,1.966097496E1
4.620869583E0,1.956650412E0,1.465626706E1,3.511913150E0,1.519763728E1
4.630879583E0,1.610654289E0,9.979851090E0,2.676245461E0,1.045724269E1
4.640889583E0,1.239492189E0,5.252564930E0,1.714450407E0,5.662607123E0
4.650900583E0,9.586812656E-1,6.320126760E-1,7.487727287E-1,1.370828359E0
4.660910583E0,8.540868567E-1,-3.521223671E0,-1.580150827E-1,3.626768433E0
4.670920583E0,8.448959108E-1,-7.027415321E0,-6.024268977E-1,7.103614105E0
4.680930583E0,6.089815899E-1,-1.035539085E1,-1.067182345E0,1.042803224E1
4.690941583E0,3.416122455E-1,-1.307638681E1,-1.601269362E0,1.317849212E1
4.700951583E0,8.849954579E-1,-1.421523614E1,-1.873990517E0,1.436551412E1
4.710961583E0,-7.274026904E-1,-1.584704668E1,-1.879216758E0,1.597465050E1
4.720972583E0,-2.697537512E0,-1.743742619E1,-9.698215270E-1,1.767147686E1
4.730982583E0,-4.114664020E0,-1.799861388E1,-1.450449790E0,1.851983710E1
4.740992583E0,-3.942409725E0,-1.735327189E1,-2.036491656E0,1.791161461E1
4.751002583E0,-2.966734258E0,-1.569751700E1,-1.380894821E0,1.603497498E1
4.761013583E0,-1.135835966E0,-1.354988381E1,-1.108547888E0,1.364252004E1
4.771023583E0,-2.555517561E-1,-1.166711545E1,-6.024584727E-1,1.168545446E1
4.781033583E0,-6.467232473E-2,-1.066805551E1,-3.731388609E-1,1.067477510E1
4.791044583E0,1.515603413E-1,-9.932309718E0,6.835866529E-2,9.933701213E0
4.801054583E0,5.709539305E-1,-9.224269790E0,5.467989000E-1,9.258084607E0
4.811064583E0,8.365512762E-1,-8.919221134E0,6.755545521E-1,8.983801959E0
4.821074583E0,6.076803651E-1,-9.066853974E0,4.098512256E-1,9.096433061E0
4.831085583E0,1.523660146E-2,-9.349147605E0,-2.521436151E-1,9.352559516E0
4.841095583E0,-3.928484727E-1,-9.749770170E0,-7.712185085E-1,9.788111477E0
4.851105583E0,-8.067575929E-1,-1.019097417E1,-8.980680048E-1,1.026222873E1
4.861116583E0,-1.162335255E0,-1.051766512E1,-8.768203926E-1,1.061796199E1
4.871126583E0,-1.235563153E0,-1.081985390E1,-6.202749753E-1,1.090782269E1
4.881136583E0,-1.237766968E0,-1.073132706E1,-2.928846931E-1,1.080644386E1
4.891146583E0,-1.140937735E0,-1.058377842E1,1.893532898E-1,1.064678164E1
4.901157583E0,-1.719945328E0,-1.100668648E1,2.538393076E-1,1.114315007E1
4.911167583E0,-2.173732532E0,-1.113137017E1,6.395146537E-1,1.135964321E1
4.921177583E0,-2.004592464E0,-1.092734912E1,1.300365797E0,1.118553981E1
4.931188583E0,-2.063472756E0,-1.037324006E1,1.118110424E0,1.063542196E1
4.941198583E0,-2.052314222E0,-9.645903740E0,1.765461516E-1,9.863398054E0
4.951208583E0,-1.669633838E0,-8.504738914E0,-5.854243275E-1,8.686828120E0
4.961219583E0,-2.130123998E0,-7.037400026E0,-1.570128261E0,7.518492544E0
4.971229583E0,-1.815301867E0,-4.931580858E0,-1.803660353E0,5.555987877E0
4.981239583E0,-3.005844821E0,-3.882636563E0,-5.993197238E-1,4.946630560E0
4.991249583E0,-3.163800628E0,-1.614960033E-1,-8.609359197E-1,3.282822875E0
5.001260583E0,-2.141384566E0,4.877915112E0,-1.369914481E0,5.500568097E0
5.011270583E0,-6.078938251E-1,1.087035981E1,-1.371149851E0,1.097334540E1
5.021280583E0,5.050055606E-1,1.634724323E1,-4.564898602E-1,1.636141115E1
5.031291583E0,1.473650080E0,2.088470597E1,1.486757491E0,2.098935530E1
5.041301583E0,3.308628266E0,2.426447614E1,3.905205061E0,2.479843644E1
5.051311583E0,5.279931654E0,2.648628711E1,5.298537494E0,2.752227430E1
5.061321583E0,6.103769256E0,2.694495440E1,6.412964757E0,2.836216994E1
5.071332583E0,5.450505459E0,2.630066842E1,7.385873614E0,2.785649472E1
5.081342583E0,3.588112603E0,2.553342251E1,6.905880359E0,2.669309649E1
5.091352583E0,9.526105401E-1,2.522440184E1,5.378819180E0,2.580909938E1
5.101363583E0,-6.684425837E-1,2.508988781E1,3.820386520E0,2.538788370E1
5.111373583E0,-8.440274531E-1,2.414091278E1,3.549721831E0,2.441508913E1
5.121383583E0,1.583446464E-1,2.245428576E1,4.192057182E0,2.284279680E1
5.131393583E0,1.488277182E0,2.032267628E1,4.757384702E0,2.092507704E1
5.141404583E0,2.268273531E0,1.731972524E1,4.718463296E0,1.809369623E1
5.151414583E0,2.794717067E0,1.418577904E1,3.931957827E0,1.498355975E1
5.161424583E0,2.326388130E0,1.012379083E1,2.624553151E0,1.071407960E1
5.171435583E0,1.250027118E0,5.744471303E0,8.860840633E-1,5.945305990E0
5.181445583E0,2.841696375E-1,1.447782290E0,-5.552540103E-1,1.576430448E0
5.191455583E0,-4.064613754E-1,-2.557930561E0,-1.546765711E0,3.016737272E0
5.201465583E0,-5.939974420E-1,-6.191208519E0,-1.958599727E0,6.520736828E0
5.211476583E0,-8.762614719E-1,-9.542825514E0,-1.753599855E0,9.742097588E0
5.221486583E0,-1.125648655E0,-1.242560457E1,-1.317106960E0,1.254581622E1
5.231496583E0,-5.218330067E-1,-1.381101578E1,-1.631209445E0,1.391679959E1
5.241507583E0,-1.787253212E0,-1.576332040E1,-8.829283941E-1,1.588886738E1
5.251517583E0,-3.161382219E0,-1.701503970E1,-1.948853405E-1,1.730733642E1
5.261527583E0,-3.526106681E0,-1.722109558E1,-2.002051556E-1,1.757952341E1
5.271537583E0,-2.668407561E0,-1.579092276E1,-6.917221034E-1,1.602972614E1
5.281548583E0,-9.377557618E-1,-1.357496836E1,-1.385486054E0,1.367767245E1
5.291558583E0,-1.620076712E-1,-1.203459191E1,-1.591196948E0,1.214041007E1
5.301568583E0,-2.178061153E-1,-1.128916664E1,-1.454027116E0,1.138450340E1
5.311579583E0,-3.315202437E-1,-1.098984416E1,-7.027545568E-1,1.101727935E1
5.321589583E0,-3.965631357E-1,-1.068924933E1,3.380743146E-1,1.070194411E1
5.331599583E0,-2.891418539E-1,-1.031392123E1,9.423197329E-1,1.036091408E1
5.341610583E0,-2.087394958E-1,-1.003359051E1,1.156982714E0,1.010223340E1
5.351620583E0,-1.948617141E-1,-9.776942766E0,1.008599092E0,9.830760554E0
5.361630583E0,-2.220655926E-1,-9.858365829E0,6.709960628E-1,9.883669646E0
5.371640583E0,-3.107731165E-1,-1.023855179E1,3.740417441E-1,1.025009414E1
5.381651583E0,-2.823074455E-1,-1.058975895E1,3.563621394E-1,1.059951349E1
5.391661583E0,-4.887410187E-1,-1.126343304E1,-4.134564361E-2,1.127410755E1
5.401671583E0,-4.342329820E-1,-1.141389827E1,-4.159089410E-1,1.142972494E1
5.411682583E0,-2.227871025E-1,-1.142345028E1,-2.705670404E-1,1.142882570E1
5.421692583E0,-5.727768366E-1,-1.165014917E1,-2.883297122E-1,1.166778398E1
5.431702583E0,-1.237798836E0,-1.144350857E1,-1.706544971E-1,1.151152281E1
5.441712583E0,-1.236725579E0,-1.095216821E1,4.558723211E-1,1.103119659E1
5.451723583E0,-6.944182545E-1,-1.011479664E1,1.243529692E0,1.021458241E1
5.461734042E0,-3.102720102E-1,-9.230891177E0,1.627908692E0,9.378470416E0
5.471744042E0,-9.345433015E-2,-8.525805262E0,1.460462562E0,8.650493626E0
5.481755042E0,-1.788221072E-2,-8.057989419E0,8.554032111E-1,8.103285006E0
5.491765042E0,-2.232990993E-1,-7.489343603E0,2.793717047E-1,7.497878276E0
5.501775042E0,-8.721665937E-1,-6.564162059E0,-3.876821287E-1,6.633188942E0
5.511785042E0,-1.588662765E0,-5.086295260E0,-1.189473352E0,5.459770665E0
5.521796042E0,-2.144012597E0,-2.784007891E0,-2.012965969E0,4.049632322E0
5.531806042E0,-1.042292503E0,1.142433087E0,-3.476096030E0,3.804572332E0
5.541816042E0,2.269345471E0,7.075418622E0,-5.421971047E0,9.198328521E0
5.551827042E0,1.996046758E0,1.220711751E1,-5.224050983E0,1.342716014E1
5.561837042E0,1.981607351E0,1.657974022E1,-2.968772889E0,1.695960395E1
5.571847042E0,3.300092208E0,2.227628482E1,9.133958229E-1,2.253791840E1
5.581857042E0,4.434797323E0,2.775568020E1,5.236555839E0,2.859137506E1
5.591868042E0,4.725225601E0,3.115050578E1,8.450003713E0,3.262030549E1
5.601878042E0,3.875043953E0,3.181046932E1,1.046585528E1,3.371136382E1
5.611888042E0,3.074127144E0,3.076444220E1,1.085149787E1,3.276669296E1
5.621899042E0,2.682870064E0,2.925090212E1,8.781284148E0,3.065818028E1
5.631909042E0,2.063330376E0,2.738232145E1,4.865014985E0,2.788758202E1
5.641919042E0,1.461429691E0,2.448734393E1,1.176456793E0,2.455910911E1
5.651929042E0,1.339657332E0,2.105263098E1,-9.734959904E-1,2.111766198E1
5.661940042E0,1.459200587E0,1.768119193E1,-1.080273823E0,1.777416119E1
5.671950042E0,1.459303644E0,1.420385980E1,2.193313980E-1,1.428031185E1
5.681960042E0,1.309414948E0,1.077720782E1,1.558168366E0,1.096771009E1
5.691971042E0,1.065137866E0,7.469752507E0,2.034132890E0,7.814692432E0
5.701981042E0,6.639250980E-1,4.085579969E0,1.825669711E0,4.523917563E0
5.711991042E0,3.998268322E-1,9.162733108E-1,1.507467159E0,1.808832638E0
5.722002042E0,2.979761562E-1,-2.208743613E0,1.484756573E0,2.678029167E0
5.732012042E0,8.814414471E-2,-5.398686265E0,1.324606014E0,5.559511118E0
5.742022042E0,-7.225024313E-2,-8.280728574E0,5.285988200E-1,8.297897476E0
5.752032042E0,-7.696134478E-2,-1.080859100E1,-4.640169078E-1,1.081882036E1
5.762043042E0,-2.772393713E-1,-1.312220676E1,-1.433346099E0,1.320316829E1
5.772053042E0,-8.782481365E-1,-1.459098289E1,-2.879800487E0,1.489836744E1
5.782063042E0,-1.517456250E0,-1.542214589E1,-3.336068079E0,1.585164369E1
5.792074042E0,-2.399137433E0,-1.559624790E1,-3.234014286E0,1.610768939E1
5.802084042E0,-3.116577052E0,-1.498315916E1,-3.254037491E0,1.564598577E1
5.812094042E0,-3.454875315E0,-1.397139087E1,-2.891515968E0,1.467980896E1
5.822104042E0,-2.824152243E0,-1.267908605E1,-1.948526144E0,1.313513658E1
5.832115042E0,-1.769245250E0,-1.129175227E1,-8.173729205E-1,1.145870833E1
5.842125042E0,-1.131732683E0,-1.007281129E1,4.151055336E-2,1.013627492E1
5.852135042E0,-8.176202577E-1,-9.266682569E0,5.674290097E-1,9.319972339E0
5.862146042E0,-5.366151334E-1,-8.779331762E0,7.695502979E-1,8.829316488E0
5.872156042E0,-2.833896920E-1,-8.390788375E0,8.345929706E-1,8.436953520E0
5.882166042E0,-2.657141438E-1,-8.395373762E0,7.484336632E-1,8.432855836E0
5.892176042E0,-3.558720696E-1,-8.807428218E0,4.057464802E-1,8.823948490E0
5.902187042E0,-4.565600268E-1,-9.385437765E0,1.348391136E-1,9.397503428E0
5.912197042E0,-3.483374937E-1,-9.931465380E0,-2.355612952E-2,9.937600238E0
5.922207042E0,-3.612397405E-1,-1.049124740E1,-2.378407226E-1,1.050015878E1
5.932218042E0,-4.941101879E-1,-1.111599667E1,-2.958246732E-1,1.113090468E1
5.942228042E0,-7.823607434E-1,-1.165267985E1,6.337793391E-2,1.167908612E1
5.952238042E0,-8.908485208E-1,-1.194101774E1,4.638391159E-1,1.198318249E1
5.962248042E0,-8.895451764E-1,-1.189437100E1,5.709133289E-1,1.194124341E1
5.972259042E0,-1.044826686E0,-1.151848157E1,2.886659271E-1,1.156937373E1
5.982269042E0,-1.116960058E0,-1.101079356E1,6.964147132E-2,1.106752116E1
5.992279042E0,-1.199887609E0,-1.049596026E1,1.534296962E-1,1.056543670E1
6.002290042E0,-1.506880099E0,-9.999980714E0,1.861466585E-1,1.011459107E1
6.012300042E0,-1.842105942E0,-9.397359653E0,1.484128582E-1,9.577356061E0
6.022310042E0,-2.098403145E0,-8.471396921E0,-5.842662133E-2,8.727615666E0
6.032321042E0,-2.251752807E0,-7.026800194E0,-4.012154728E-1,7.389674250E0
6.042331042E0,-2.075194961E0,-4.639872040E0,-8.574005469E-1,5.154607877E0
6.052341042E0,-1.172785691E0,-1.386996975E0,-1.714464440E0,2.497713996E0
6.062351042E0,-1.730490781E-2,3.091735741E0,-2.508557256E0,3.981455621E0
6.072362042E0,5.941197950E-1,7.747814509E0,-2.736772914E0,8.238418172E0
6.082372042E0,1.605449244E0,1.234802839E1,-1.048754187E0,1.249604569E1
6.092382042E0,2.688770197E0,1.758440180E1,2.354158019E0,1.794387728E1
6.102393042E0,3.601179375E0,2.225884842E1,5.081892307E0,2.311385852E1
6.112403042E0,3.383585770E0,2.547767983E1,5.353118913E0,2.625293706E1
6.122413042E0,3.076518655E0,2.730194562E1,5.019613613E0,2.792951347E1
6.132423042E0,3.200508278E0,2.766029107E1,5.359477175E0,2.835593325E1
6.142434042E0,3.389994318E0,2.700779559E1,4.993744946E0,2.767400536E1
6.152444042E0,3.019238454E0,2.634846590E1,3.768608841E0,2.678730797E1
6.162454042E0,1.974776926E0,2.520476689E1,2.569437296E0,2.541224165E1
6.172465042E0,5.567920473E-1,2.370416085E1,1.547014217E0,2.376111344E1
6.182475042E0,-1.326651371E-1,2.212286558E1,1.106545216E0,2.215091925E1
6.192485042E0,-3.237799188E-1,2.043034223E1,1.216814933E0,2.046910735E1
6.202496042E0,-3.526479880E-1,1.829668739E1,1.866847558E0,1.839506047E1
6.212506042E0,-8.529077657E-2,1.561957713E1,2.599169219E0,1.583458698E1
6.222516042E0,3.009737313E-1,1.242034208E1,3.033026773E0,1.278885194E1
6.232526042E0,6.726498746E-1,8.721199329E0,2.993908315E0,9.245283262E0
6.242537042E0,5.599465471E-1,4.699411313E0,2.527022763E0,5.365058329E0
6.252547042E0,3.035783004E-1,4.474733806E-1,1.627619255E0,1.715090857E0
6.262557042E0,2.936482664E-1,-3.700174198E0,8.904069829E-1,3.817111866E0
6.272568042E0,-3.374428153E-3,-7.641518560E0,-1.169326186E-2,7.641528252E0
6.282578042E0,-3.747667623E-1,-1.111620600E1,-8.863724041E-1,1.115778392E1
6.292588042E0,-5.757838038E-1,-1.373286541E1,-1.621886644E0,1.384029030E1
6.302598042E0,-9.817904120E-1,-1.515191331E1,-1.969977239E0,1.531095032E1
6.312609042E0,-1.787838226E0,-1.611916206E1,-2.232135399E0,1.637089428E1
6.322619042E0,-2.011217944E0,-1.622154915E1,-2.045386441E0,1.647322858E1
6.332629042E0,-1.693426305E0,-1.567235877E1,-1.739476490E0,1.585926545E1
6.342640042E0,-9.750604130E-1,-1.445651565E1,-1.936356919E0,1.461817586E1
6.352650042E0,-2.476944870E-1,-1.310991358E1,-2.203139641E0,1.329605245E1
6.362660042E0,6.951842397E-2,-1.173617809E1,-1.597814827E0,1.184464947E1
6.372670042E0,2.609524637E-2,-1.047511844E1,-3.263097167E-1,1.048023212E1
6.382681042E0,-8.112492777E-2,-9.627273341E0,5.138018560E-1,9.641315553E0
6.392691042E0,-3.043016741E-1,-9.184073106E0,6.927804494E-1,9.215190887E0
6.402701042E0,-3.870708389E-1,-9.091401755E0,6.958888292E-1,9.126207918E0
6.412712042E0,-3.479663417E-1,-9.362803777E0,6.995515251E-1,9.395347119E0
6.422722042E0,-4.854451990E-1,-9.808311324E0,4.342551649E-1,9.829913816E0
6.432732042E0,-7.916939228E-1,-1.025812593E1,9.028511186E-2,1.028902708E1
6.442743042E0,-1.155954408E0,-1.062566553E1,-1.684814891E-2,1.068837137E1
6.452753042E0,-1.410084121E0,-1.086109198E1,-5.759037813E-2,1.095239576E1
6.462762667E0,-1.622532469E0,-1.094750798E1,-3.896060089E-2,1.106716136E1
6.472772667E0,-1.795357745E0,-1.082564031E1,-8.564184705E-2,1.097383853E1
6.482783667E0,-1.729335079E0,-1.050456034E1,-2.219322395E-1,1.064826942E1
6.492793667E0,-1.490969679E0,-1.028355430E1,-3.575877158E-1,1.039722793E1
6.502803667E0,-1.068008703E0,-9.927599201E0,-3.690716473E-1,9.991700675E0
6.512814667E0,-7.357419893E-1,-9.461664407E0,-1.809409189E-1,9.491951814E0
6.522824667E0,-6.391033021E-1,-9.122068062E0,-1.483678347E-1,9.145632388E0
6.532834667E0,-6.380469295E-1,-8.943816862E0,-5.023101769E-2,8.966687633E0
6.542844667E0,-5.800600918E-1,-8.705004880E0,2.687574003E-1,8.728448328E0
6.552855667E0,-3.595073201E-1,-8.143558157E0,2.800336460E-1,8.156298414E0
6.562865667E0,-2.165957782E-1,-7.060874258E0,-4.423108739E-1,7.078029241E0
6.572875667E0,-1.185525897E-1,-5.492950982E0,-1.358418124E0,5.659670044E0
6.582886667E0,-1.059796508E-1,-2.896760920E0,-2.266394235E0,3.679537790E0
6.592896667E0,-8.722730130E-2,7.415766335E-1,-3.599534261E0,3.676165312E0
6.602906667E0,1.958901297E-2,5.139224841E0,-4.635749753E0,6.921140908E0
6.612916667E0,4.528364102E-1,1.042582174E1,-3.509354993E0,1.100992244E1
6.622927667E0,1.185325338E0,1.643403462E1,-4.513220910E-1,1.648290575E1
6.632937667E0,2.462120716E0,2.225494716E1,2.983361108E0,2.258860675E1
6.642947667E0,4.503305055E0,2.730033179E1,6.075678647E0,2.832846172E1
6.652958667E0,6.444488851E0,3.048873429E1,8.525712292E0,3.230761714E1
6.662968667E0,7.697619671E0,3.071061507E1,1.028698428E1,3.328989745E1
6.672978667E0,7.013304820E0,2.900352514E1,1.092085520E1,3.177508447E1
6.682989667E0,4.967867509E0,2.686599126E1,8.231075773E0,2.853439683E1
6.692999667E0,2.795985620E0,2.486071438E1,3.354773322E0,2.524137791E1
6.703009667E0,1.281135182E0,2.255871235E1,-5.691077453E-1,2.260222763E1
6.713019667E0,7.412982329E-1,2.032019706E1,-2.341216961E0,2.046805385E1
6.723030667E0,6.181362100E-1,1.829243179E1,-1.877700136E0,1.839893776E1
6.733040667E0,1.029101184E-1,1.616906805E1,1.635419440E-1,1.617022257E1
6.743050667E0,-1.635209671E-1,1.351493383E1,2.382976606E0,1.372438534E1
6.753061667E0,-9.808185317E-2,1.054694096E1,3.649850721E0,1.116104807E1
6.763071667E0,-7.875994831E-2,7.295649907E0,3.535438253E0,8.107529484E0
6.773081667E0,2.127124230E-1,3.764829201E0,2.846654375E0,4.724682700E0
6.783091667E0,6.298924756E-1,-7.512619615E-2,1.892066599E0,1.995576230E0
6.793102667E0,8.949581632E-1,-4.148551558E0,8.577350807E-1,4.329796717E0
6.803112667E0,7.593582355E-1,-8.252762511E0,-4.856463432E-1,8.301841143E0
6.813122667E0,4.472960638E-1,-1.190586195E1,-1.794261977E0,1.204860981E1
6.823133667E0,-8.669622794E-2,-1.454418880E1,-2.646760291E0,1.478331100E1
6.833143667E0,-7.864440002E-1,-1.586906495E1,-2.980452118E0,1.616566768E1
6.843153667E0,-1.641053817E0,-1.643938600E1,-2.954223847E0,1.678314357E1
6.853164667E0,-1.893239551E0,-1.598195364E1,-2.451461535E0,1.627933849E1
6.863174667E0,-1.422244283E0,-1.481170008E1,-1.937658509E0,1.500545763E1
6.873184667E0,-8.239154432E-1,-1.321917816E1,-1.544720939E0,1.333460425E1
6.883194667E0,-3.338505053E-1,-1.164025334E1,-8.274909425E-1,1.167440342E1
6.893205667E0,-2.329495633E-1,-1.031895685E1,-1.584677303E-1,1.032280234E1
6.903215667E0,-4.801364388E-1,-9.438472595E0,2.488691561E-1,9.453953236E0
6.913225667E0,-8.123726010E-1,-9.085300770E0,1.891573898E-1,9.123509184E0
6.923236667E0,-9.865266567E-1,-9.098907825E0,8.525472483E-2,9.152629503E0
6.933246667E0,-9.776393274E-1,-9.372114884E0,1.396946780E-1,9.424002900E0
6.943256667E0,-1.174404639E0,-9.787700474E0,2.122843703E-1,9.860191249E0
6.953266667E0,-1.442883785E0,-1.027866954E1,3.685815775E-1,1.038599121E1
6.963277667E0,-1.520904353E0,-1.056989128E1,1.546237707E-1,1.067987174E1
6.973287667E0,-1.481999611E0,-1.072932731E1,4.818117118E-4,1.083119512E1
6.983297667E0,-1.362124966E0,-1.104494715E1,1.019029355E-1,1.112908919E1
6.993308667E0,-1.256346204E0,-1.124485760E1,5.094374943E-1,1.132628601E1
7.003318667E0,-1.000958608E0,-1.115622083E1,6.934189653E-1,1.122247795E1
7.013328667E0,-6.603995193E-1,-1.104080615E1,6.462331045E-1,1.107940184E1
7.023339667E0,-3.457932240E-1,-1.101608295E1,8.408284414E-1,1.105353559E1
7.033349667E0,-1.870729671E-1,-1.077686050E1,1.221905519E0,1.084752375E1
7.043359667E0,-2.012226442E-1,-1.036940195E1,1.087304369E0,1.042819343E1
7.053369667E0,-2.154453385E-1,-9.943349261E0,2.456514698E-1,9.948716293E0
7.063380667E0,-6.436315320E-2,-9.466408253E0,-2.356988875E-1,9.469560802E0
7.073390667E0,2.593025988E-1,-9.137125227E0,1.952612982E-1,9.142889162E0
7.083400667E0,1.941172539E-1,-8.552922310E0,6.037764351E-1,8.576404114E0
7.093411667E0,-1.277885592E-1,-7.373017926E0,-2.626335382E-2,7.374172022E0
7.103421667E0,-3.265767152E-1,-5.940612059E0,-1.403001974E0,6.112768482E0
7.113431667E0,-9.816773415E-1,-4.264163291E0,-2.564380624E0,5.071767637E0
7.123441667E0,-1.526294609E0,-1.961326284E0,-2.484569639E0,3.514180177E0
7.133452667E0,-1.443537796E0,1.209144555E0,-1.777136652E0,2.589217373E0
7.143462667E0,-1.343030883E0,5.378475949E0,-1.944492150E0,5.874758310E0
7.153472667E0,-1.163370797E0,1.065242473E1,-2.308128737E0,1.096152556E1
7.163483667E0,-1.053564472E0,1.653211114E1,-2.096213948E0,1.669774865E1
7.173493667E0,-8.099674219E-1,2.235687115E1,-1.377863624E0,2.241392966E1
7.183503667E0,1.093750193E-1,2.753589038E1,1.357835741E0,2.756956547E1
7.193513667E0,1.219869884E0,3.135841172E1,6.277094761E0,3.200374958E1
7.203524667E0,2.568995539E0,3.205491334E1,1.123140082E1,3.406261252E1
7.213534667E0,3.779373565E0,3.019460531E1,1.327897412E1,3.320134045E1
7.223544667E0,4.697816777E0,2.900397888E1,9.064488190E0,3.074841817E1
7.233555667E0,5.019170394E0,2.925064485E1,2.445395633E0,2.977872152E1
7.243565667E0,4.194311283E0,2.692872019E1,2.364637399E-1,2.725443328E1
7.253575667E0,3.303038620E0,2.331047718E1,1.259021743E0,2.357697067E1
7.263586667E0,2.766855084E0,1.965647727E1,1.409831522E0,1.990025655E1
7.273596667E0,2.128497887E0,1.591471417E1,9.631019068E-1,1.608527884E1
7.283606667E0,1.292571459E0,1.202703029E1,1.013481444E0,1.213867139E1
7.293616667E0,2.137725232E-1,8.168713464E0,1.106143586E0,8.246037350E0
7.303627667E0,-9.134586804E-1,4.356643438E0,9.311738435E-1,4.547728393E0
7.313637667E0,-1.729716171E0,8.028332341E-1,5.848293002E-1,1.994613884E0
7.323647667E0,-2.028028104E0,-2.623147480E0,4.736805280E-1,3.349354257E0
7.333658667E0,-1.726788909E0,-5.851988150E0,2.525785931E-1,6.106665308E0
7.343668667E0,-1.438471330E0,-8.950020758E0,-4.563232145E-1,9.076359524E0
7.353678667E0,-1.045878892E0,-1.169384191E1,-1.161752872E0,1.179785874E1
7.363689667E0,-1.004789923E0,-1.388858962E1,-1.697620951E0,1.402798779E1
7.373699667E0,-1.180745798E0,-1.554750668E1,-1.752906375E0,1.569050049E1
7.383709667E0,-1.289281231E0,-1.648970363E1,-1.318592738E0,1.659250610E1
7.393719667E0,-1.873804868E0,-1.674050006E1,-1.351807262E0,1.689919731E1
7.403730667E0,-2.284841909E0,-1.620344383E1,-1.647083466E0,1.644642753E1
7.413740667E0,-1.782134852E0,-1.460285040E1,-1.782719573E0,1.481881688E1
7.423750667E0,-7.186459733E-1,-1.276899284E1,-1.501251569E0,1.287700999E1
7.433761667E0,9.590822384E-3,-1.096949585E1,-7.270486414E-1,1.099356770E1
7.443771667E0,9.334692411E-2,-9.421700442E0,3.080720684E-2,9.422213219E0
7.453781667E0,-1.521054480E-1,-8.306049941E0,5.719255185E-1,8.327106370E0
7.463791917E0,-2.811647534E-1,-7.599823819E0,9.494545054E-1,7.664061558E0
7.473802917E0,-5.223840337E-1,-7.481739299E0,9.505081737E-1,7.559945358E0
7.483812917E0,-7.491370102E-1,-7.938738964E0,7.110611844E-1,8.005647419E0
7.493822917E0,-6.657772035E-1,-8.720460826E0,3.664858989E-1,8.753514049E0
7.503833917E0,-7.731316444E-1,-9.557605521E0,-2.282764320E-1,9.591541376E0
7.513843917E0,-9.874766830E-1,-1.040845083E1,-9.830268788E-1,1.050129995E1
7.523853917E0,-1.037321200E0,-1.101835050E1,-1.251591833E0,1.113761937E1
7.533863917E0,-9.030624041E-1,-1.133119642E1,-1.407486788E0,1.145393177E1
7.543874917E0,-7.998081771E-1,-1.147127232E1,-1.303091769E0,1.157271921E1
7.553884917E0,-1.077014731E0,-1.133647646E1,-8.075402427E-1,1.141611932E1
7.563894917E0,-1.362284010E0,-1.092024007E1,-3.374065626E-1,1.101005468E1
7.573905917E0,-1.309348290E0,-1.031370138E1,2.173994780E-3,1.039648180E1
7.583915917E0,-1.083368315E0,-9.745714542E0,1.956495899E-1,9.807696855E0
7.593925917E0,-7.235555148E-1,-9.268703367E0,2.812744617E-1,9.301156380E0
7.603936917E0,-2.366308971E-1,-8.785298846E0,1.444737352E-2,8.788496954E0
7.613946917E0,7.675574206E-2,-8.152607308E0,-4.648923091E-1,8.166212232E0
7.623956917E0,-2.414842323E-1,-7.187199844E0,-9.896693889E-1,7.259035868E0
7.633966917E0,-7.821238580E-1,-5.713071170E0,-1.309743562E0,5.913233305E0
7.643977917E0,-7.806766722E-1,-3.495929786E0,-1.929529710E0,4.068668828E0
7.653987917E0,-9.106860039E-1,-4.613359594E-1,-3.135450110E0,3.297457696E0
7.663997917E0,-5.058178485E-1,3.672767714E0,-3.675569115E0,5.220620911E0
7.674008917E0,5.145257413E-3,8.561521225E0,-2.916719806E0,9.044718160E0
7.684018917E0,7.285624125E-1,1.432064273E1,-1.588941092E0,1.442693124E1
7.694028917E0,1.920595164E0,2.081172570E1,-2.245413402E-1,2.090136434E1
7.704039917E0,3.892866851E0,2.681953396E1,1.692988787E0,2.715341646E1
7.714049917E0,5.957413448E0,3.058443216E1,4.608208197E0,3.149815627E1
7.724059917E0,7.050605378E0,3.085756730E1,8.151227950E0,3.268551686E1
7.734069917E0,7.064049296E0,2.874450752E1,1.063535671E1,3.145247713E1
7.744080917E0,6.219398530E0,2.632628156E1,1.008852276E1,2.887095964E1
7.754090917E0,4.442634054E0,2.458187002E1,6.594412630E0,2.583585897E1
7.764100917E0,2.911754935E0,2.314117455E1,2.216452582E0,2.342872038E1
7.774111917E0,1.803204416E0,2.133201797E1,-1.492374326E0,2.146004934E1
7.784121917E0,1.278037620E0,1.926487988E1,-2.823805211E0,1.951263316E1
7.794131917E0,1.050749623E0,1.701262831E1,-1.314047697E0,1.709562277E1
7.804141917E0,1.273478399E0,1.429432207E1,1.161359866E0,1.439785218E1
7.814152917E0,1.620845694E0,1.121563322E1,3.026146939E0,1.172924271E1
7.824162917E0,1.599118318E0,7.445939137E0,4.141146644E0,8.668811023E0
7.834172917E0,1.268457834E0,3.396047648E0,3.885072513E0,5.313747579E0
7.844183917E0,6.446895857E-1,-9.139209759E-1,2.515873293E0,2.753269808E0
7.854193917E0,-6.419460721E-2,-4.868171312E0,8.594190788E-1,4.943866303E0
7.864203917E0,-1.565096439E-1,-7.891161339E0,-6.716942203E-1,7.921243316E0
7.874214917E0,-1.076945441E0,-1.112306712E1,-2.142571843E0,1.137862240E1
7.884224917E0,-2.039431344E0,-1.376015436E1,-3.156780168E0,1.426416451E1
7.894234917E0,-2.601661302E0,-1.549569685E1,-2.900286791E0,1.597801382E1
7.904244917E0,-2.927134574E0,-1.636600344E1,-2.247413004E0,1.677692018E1
7.914255917E0,-3.253909437E0,-1.647978675E1,-2.291944814E0,1.695359280E1
7.924265917E0,-3.182262919E0,-1.594932033E1,-1.994889886E0,1.638557908E1
7.934275917E0,-2.443975929E0,-1.464366748E1,-1.043441480E0,1.488283527E1
7.944286917E0,-1.502098684E0,-1.304897857E1,-7.086801982E-1,1.315425292E1
7.954296917E0,-7.444324867E-1,-1.171754418E1,-4.008570385E-1,1.174800867E1
7.964306917E0,-4.077973911E-1,-1.062776936E1,-2.058675992E-1,1.063758252E1
7.974316917E0,-1.013697425E-1,-9.815656596E0,-2.199734223E-1,9.818644435E0
7.984327917E0,4.477210101E-1,-9.195374604E0,-1.207853490E-1,9.207060189E0
7.994337917E0,6.844482402E-1,-8.912744758E0,1.494688837E-1,8.940236544E0
8.004347917E0,5.580032250E-1,-8.910887098E0,2.659921606E-1,8.932302519E0
8.014358917E0,3.837436635E-1,-8.997264506E0,2.782748218E-1,9.009742764E0
8.024368917E0,3.844299439E-2,-9.179263186E0,2.750710776E-1,9.183464194E0
8.034378917E0,-4.407219296E-1,-9.386833495E0,3.233544974E-1,9.402735613E0
8.044389917E0,-8.234782907E-1,-9.669773828E0,2.322701168E-1,9.707553337E0
8.054399917E0,-1.024923348E0,-1.000683716E1,3.168781579E-2,1.005923764E1
8.064409917E0,-8.633899230E-1,-1.031780261E1,-2.225684531E-1,1.035625558E1
8.074419917E0,-6.529120865E-1,-1.057677930E1,-3.592038862E-1,1.060299873E1
8.084430917E0,-4.807926061E-1,-1.060149899E1,-4.166352018E-1,1.062057095E1
8.094440917E0,-6.139675838E-1,-1.049019841E1,-4.646805668E-1,1.051841941E1
8.104450917E0,-1.011323894E0,-1.035638137E1,-7.890360709E-1,1.043551575E1
8.114461917E0,-1.199675282E0,-1.021435835E1,-5.649497902E-1,1.030007309E1
8.124471917E0,-1.072095761E0,-9.780603708E0,2.938892448E-1,9.843575016E0
8.134481917E0,-1.139501293E0,-9.309953134E0,5.578009844E-1,9.396000878E0
8.144492917E0,-1.326199381E0,-8.651980575E0,-6.907206215E-2,8.753304725E0
8.154502917E0,-1.687576896E0,-7.574799491E0,-4.611880980E-1,7.774200767E0
8.164512917E0,-1.912297381E0,-6.162895131E0,-7.201852528E-1,6.492828695E0
8.174522917E0,-1.959511308E0,-3.995425844E0,-1.338045255E0,4.646878237E0
8.184533917E0,-1.945470097E0,-8.263717854E-1,-2.541553094E0,3.305637058E0
8.194543917E0,-1.595658081E0,3.029163517E0,-3.222655485E0,4.701857580E0
8.204553917E0,-6.175884721E-1,7.564398463E0,-1.643506140E0,7.765478225E0
8.214564917E0,3.674626763E-1,1.252859275E1,1.585169638E0,1.263382080E1
8.224574917E0,1.142015596E0,1.730107613E1,4.333669728E0,1.787210475E1
8.234584917E0,1.888865249E0,2.162567449E1,5.863732283E0,2.248601711E1
8.244594917E0,1.970011446E0,2.536364743E1,6.710530146E0,2.631020279E1
8.254605917E0,1.647800335E0,2.727697567E1,6.634664277E0,2.812058708E1
8.264615917E0,1.382029765E0,2.737566030E1,6.493936415E0,2.816927392E1
8.274625917E0,1.385371449E0,2.657285163E1,5.501091476E0,2.717163420E1
8.284636917E0,1.688192023E0,2.542835974E1,3.518757316E0,2.572611755E1
8.294646917E0,2.006286987E0,2.429552017E1,2.240534340E0,2.448096163E1
8.304656917E0,2.030261448E0,2.364290308E1,1.507294081E0,2.377773671E1
8.314667917E0,1.760341110E0,2.284155153E1,1.498067175E0,2.295821166E1
8.324677917E0,1.496520879E0,2.152949481E1,3.037287054E0,2.179412384E1
8.334687917E0,1.340186798E0,1.940526919E1,5.093731749E0,2.010737865E1
8.344697917E0,9.816954678E-1,1.638205989E1,6.141413630E0,1.752291567E1
8.354708917E0,6.301398128E-1,1.274807150E1,5.653709067E0,1.395975750E1
8.364718917E0,3.553715479E-1,8.461317490E0,4.198952803E0,9.452586273E0
8.374728917E0,-4.421956837E-3,3.581522498E0,2.577601179E0,4.412635357E0
8.384739917E0,-7.311840847E-1,-1.714742768E0,1.253890373E0,2.246600542E0
8.394749917E0,-6.670965546E-1,-5.645286153E0,-1.833055329E-1,5.687519185E0
8.404759917E0,-9.348955232E-1,-9.334146574E0,-9.949013313E-1,9.433459098E0
8.414770917E0,-1.529338669E0,-1.272569771E1,-1.836344388E0,1.294814349E1
8.424780917E0,-1.756022064E0,-1.509792948E1,-1.735406828E0,1.529845498E1
8.434790917E0,-2.325549932E0,-1.661202153E1,-9.434307039E-1,1.680052092E1
8.444800917E0,-2.298210982E0,-1.671189080E1,-2.938236390E0,1.712315103E1
8.454811917E0,-2.305622621E0,-1.705831494E1,-2.681086371E0,1.742097094E1
8.464822292E0,-1.858841258E0,-1.641935694E1,-2.343668114E0,1.668961813E1
8.474832292E0,-9.747130153E-1,-1.474564175E1,-2.108287278E0,1.492745428E1
8.484843292E0,-3.910062343E-2,-1.312724005E1,-1.636878905E0,1.322895811E1
8.494853292E0,7.089447847E-1,-1.169704150E1,-1.002713869E0,1.176132721E1
8.504863292E0,9.606680033E-1,-1.032037773E1,-4.823683941E-1,1.037621119E1
8.514873292E0,1.048216024E0,-9.338248395E0,-2.562442857E-1,9.400388346E0
8.524884292E0,1.099053764E0,-8.739277166E0,8.853268306E-2,8.808559620E0
8.534894292E0,1.168141833E0,-8.533286190E0,5.371416020E-1,8.629603099E0
8.544904292E0,9.792820296E-1,-8.748937351E0,5.124990964E-1,8.818477951E0
8.554915292E0,6.795440342E-1,-9.237045956E0,1.539501349E-1,9.263287685E0
8.564925292E0,2.331898473E-1,-9.828029305E0,-1.248988835E-1,9.831588745E0
8.574935292E0,-2.528014451E-1,-1.047758363E1,-3.848397607E-1,1.048769607E1
8.584946292E0,-4.305343257E-1,-1.105804140E1,-7.345775163E-1,1.109077290E1
8.594956292E0,-6.162857124E-1,-1.134380536E1,-8.723262227E-1,1.139397565E1
8.604966292E0,-9.211589518E-1,-1.144040253E1,-1.115344107E0,1.153149324E1
8.614976292E0,-1.274679856E0,-1.150973413E1,-1.302743275E0,1.165315102E1
8.624987292E0,-1.589760580E0,-1.131167257E1,-1.043584152E0,1.147041163E1
8.634997292E0,-1.467927994E0,-1.074224615E1,-8.268582007E-1,1.087356241E1
8.645007292E0,-1.021805613E0,-9.908267137E0,-9.208885181E-1,1.000329346E1
8.655018292E0,-9.549079111E-1,-9.066285625E0,-1.048584180E0,9.176541447E0
8.665028292E0,-1.243054605E0,-8.342226664E0,-5.798275188E-1,8.454237424E0
8.675038292E0,-1.346302108E0,-7.471697291E0,-1.144879708E-1,7.592884648E0
8.685048292E0,-9.851067334E-1,-6.400579770E0,-4.716621423E-1,6.493098016E0
8.695059292E0,-5.855793152E-1,-5.034893557E0,-1.428474784E0,5.266269692E0
8.705069292E0,-3.212995300E-1,-2.603372197E0,-2.958355490E0,3.953814284E0
8.715079292E0,-2.714421859E-2,1.466976360E0,-4.399133985E0,4.637363073E0
8.725090292E0,-1.848570916E-1,5.977965242E0,-4.081492181E0,7.240774751E0
8.735100292E0,9.179863622E-2,1.104669079E1,-6.731684496E-1,1.106756342E1
8.745110292E0,2.309796363E0,1.772687038E1,3.468891091E0,1.821017018E1
8.755121292E0,4.158494748E0,2.451870138E1,5.656022226E0,2.550392878E1
8.765131292E0,3.901064063E0,2.899663946E1,7.116606994E0,3.011095309E1
8.775141292E0,3.395571392E0,3.009342977E1,1.050501175E1,3.205463604E1
8.785151292E0,2.892037539E0,2.771631441E1,1.315230940E1,3.081462653E1
8.795162292E0,2.130876827E0,2.378475887E1,9.643700509E0,2.575376380E1
8.805172292E0,1.874302758E0,2.069550644E1,5.050134909E-1,2.078634254E1
8.815182292E0,8.143493253E-1,1.836396428E1,-8.032297338E0,2.006031280E1
8.825193292E0,-4.017490312E-1,1.755936051E1,-9.672381687E0,2.005112245E1
8.835203292E0,-9.676700440E-1,1.816488530E1,-4.581438475E0,1.875870523E1
8.845213292E0,-1.335471603E0,1.863637437E1,1.100291619E0,1.871653215E1
8.855224292E0,-1.164501649E0,1.843317310E1,5.677144123E0,1.932273014E1
8.865234292E0,-6.725920603E-1,1.737124038E1,8.840558542E0,1.950302151E1
8.875244292E0,-5.100205530E-2,1.521503166E1,9.374753147E0,1.787136778E1
8.885254292E0,5.456270814E-1,1.144828691E1,7.302268370E0,1.358985304E1
8.895265292E0,1.019189569E0,6.420809966E0,3.884723434E0,7.573415620E0
8.905275292E0,1.361306648E0,1.018910657E0,5.068435963E-1,1.774323857E0
8.915285292E0,1.398959501E0,-4.131807472E0,-1.771093701E0,4.708045620E0
8.925296292E0,9.796720389E-1,-8.449767485E0,-2.667978668E0,8.914955862E0
8.935306292E0,7.682788208E-1,-1.193848239E1,-3.033750658E0,1.234184983E1
8.945316292E0,8.798603600E-1,-1.461583590E1,-3.227355477E0,1.499375326E1
8.955327292E0,8.786724251E-2,-1.618712776E1,-3.710080551E0,1.660709256E1
8.965337292E0,-1.219465768E0,-1.735198199E1,-3.577487919E0,1.775885119E1
8.975347292E0,-2.062593627E0,-1.738630866E1,-3.085969802E0,1.777811100E1
8.985357292E0,-1.998322787E0,-1.629486387E1,-2.205491391E0,1.656442196E1
8.995368292E0,-1.417976693E0,-1.449243158E1,-1.234186426E0,1.461384437E1
9.005378292E0,-2.957799420E-1,-1.196487789E1,-1.125146379E0,1.202130372E1
9.015388292E0,7.641942483E-1,-1.000996074E1,-1.037797748E0,1.009258793E1
9.025399292E0,2.882750590E-1,-9.193659616E0,-5.166733506E-1,9.212677732E0
9.035409292E0,-2.556057880E-1,-8.892092977E0,4.898029827E-2,8.895900792E0
9.045419292E0,3.584401667E-2,-8.623347929E0,2.959556508E-1,8.628499525E0
9.055430292E0,4.837220246E-1,-8.579708989E0,-1.173660435E-2,8.593342253E0
9.065440292E0,5.747935778E-1,-8.948858331E0,-4.466115010E-1,8.978413831E0
9.075450292E0,5.585394512E-1,-9.436024951E0,-6.399802382E-1,9.474181120E0
9.085460292E0,6.268440297E-1,-9.919813049E0,-8.857667056E-1,9.978988276E0
9.095471292E0,8.680913767E-1,-1.026409243E1,-1.011868416E0,1.035031660E1
9.105481292E0,1.041974414E0,-1.030486039E1,-9.748600727E-1,1.040318271E1
9.115491292E0,1.013225701E0,-1.031735355E1,-9.151407051E-1,1.040729999E1
9.125502292E0,8.341611537E-1,-1.035249531E1,-6.695173750E-1,1.040760479E1
9.135512292E0,3.343926153E-1,-1.037114676E1,-5.257430398E-1,1.038984645E1
9.145522292E0,-4.436507633E-1,-1.052664644E1,-9.968296699E-1,1.058304213E1
9.155532292E0,-8.536192256E-1,-1.061185675E1,-1.108114755E0,1.070364834E1
9.165543292E0,-1.198119045E0,-1.036143571E1,-7.828043278E-1,1.045980983E1
9.175553292E0,-1.713406971E0,-1.019426966E1,-1.387367104E0,1.042994174E1
9.185563292E0,-1.811941618E0,-9.608804911E0,-1.828419803E0,9.947632041E0
9.195574292E0,-1.697569495E0,-9.126887922E0,-2.108934711E0,9.519949104E0
9.205584292E0,-1.601181361E0,-8.134508421E0,-2.227099338E0,8.584519816E0
9.215594292E0,-1.519578204E0,-6.708287739E0,-1.808011851E0,7.111901937E0
9.225605292E0,-1.313533727E0,-4.783217701E0,-1.213181473E0,5.106500926E0
9.235615292E0,-9.407158417E-1,-1.871925865E0,-1.554910444E0,2.608984328E0
9.245625292E0,1.608870340E-1,1.979535683E0,-2.860317564E0,3.482220947E0
9.255635292E0,1.141610092E0,6.000930766E0,-3.029720757E0,6.818625340E0
9.265646292E0,1.084932446E0,9.424204220E0,-1.631866818E0,9.625782716E0
9.275656292E0,7.759784344E-1,1.316554632E1,-3.557989794E-1,1.319319315E1
9.285666292E0,8.060652825E-1,1.735751463E1,5.464491999E-1,1.738481125E1
9.295677292E0,5.420728514E-1,2.135689202E1,2.149100697E0,2.147159318E1
9.305687292E0,-7.233063777E-2,2.456520312E1,5.124397472E0,2.509410061E1
9.315697292E0,-2.756848159E-1,2.632124126E1,8.549840827E0,2.767640731E1
9.325708292E0,-1.183608010E-1,2.742271636E1,9.779878069E0,2.911469383E1
9.335718292E0,-4.295686215E-1,2.862268663E1,7.903887219E0,2.969703945E1
9.345728292E0,-4.052155530E-1,2.980860721E1,5.812582594E0,3.037274074E1
9.355738292E0,-2.954402187E-1,2.948823827E1,5.865603392E0,3.006740402E1
9.365749292E0,3.902218303E-1,2.732033863E1,6.436798593E0,2.807108035E1
9.375759292E0,1.318934215E0,2.428565709E1,6.030072119E0,2.505782308E1
9.385769292E0,1.808005857E0,2.053263342E1,4.742370806E0,2.115060286E1
9.395780292E0,1.808615430E0,1.644159390E1,3.372583356E0,1.688109648E1
9.405790292E0,1.066751113E0,1.203509827E1,2.111866505E0,1.226546080E1
9.415800292E0,6.570574701E-2,7.533491251E0,1.205378364E0,7.629596626E0
9.425811292E0,-4.881547987E-1,3.233932425E0,6.709418298E-1,3.338678927E0
9.435821292E0,-7.869209138E-1,-9.385102719E-1,6.487987165E-1,1.385996331E0
9.445831292E0,-1.157101705E0,-4.773301992E0,2.790449184E-1,4.919467688E0
9.455841292E0,-1.468734033E0,-8.547200809E0,-5.813114691E-1,8.691935593E0
9.465852292E0,-1.745751722E0,-1.196095207E1,-1.490732428E0,1.217925723E1
9.475862292E0,-1.526025344E0,-1.473224227E1,-2.220560836E0,1.497660195E1
9.485872292E0,-1.084233411E0,-1.654211573E1,-2.882808294E0,1.682640005E1
9.495883292E0,-7.956367734E-1,-1.743471659E1,-3.474457641E0,1.779534310E1
9.505893292E0,-7.707013223E-1,-1.741213581E1,-3.921180239E0,1.786482881E1
9.515903292E0,-8.745168820E-1,-1.640293445E1,-4.032409483E0,1.691393995E1
9.525914292E0,-8.533920613E-1,-1.494432312E1,-3.693132981E0,1.541753232E1
9.535924292E0,-6.234333488E-1,-1.322768468E1,-2.729745145E0,1.352079213E1
9.545934292E0,-2.628691993E-1,-1.156609895E1,-1.704170417E0,1.169392757E1
9.555944292E0,1.579423214E-1,-1.023421667E1,-8.591390703E-1,1.027142913E1
9.565955292E0,3.965157367E-1,-9.128472517E0,6.687972173E-3,9.137082683E0
9.575965292E0,6.135790363E-1,-8.380881438E0,3.070418255E-1,8.408919526E0
9.585975292E0,8.473770306E-1,-8.117538632E0,-3.143565461E-2,8.161707510E0
9.595986292E0,8.682963216E-1,-8.407103276E0,-6.540537554E-1,8.477093270E0
9.605996292E0,6.815619814E-1,-8.953025057E0,-1.153128229E0,9.052673038E0
9.616006292E0,3.170202452E-1,-9.718396935E0,-1.323679231E0,9.813249591E0
9.626017292E0,-8.337373037E-2,-1.013776684E1,-1.479336351E0,1.024547236E1
9.636027292E0,-1.745992846E-1,-1.032652198E1,-1.948941150E0,1.051027653E1
9.646037292E0,-1.537040402E-1,-1.042970663E1,-2.402274903E0,1.070389321E1
9.656047292E0,-3.153397554E-1,-1.043345352E1,-2.179725051E0,1.066337624E1
9.666058292E0,-7.401613149E-1,-1.027175228E1,-1.592730088E0,1.042082160E1
9.676068292E0,-1.043357573E0,-9.906139920E0,-1.084889030E0,1.001983969E1
9.686078292E0,-1.095891005E0,-9.435245517E0,-5.007105249E-1,9.511863439E0
9.696089292E0,-1.046981385E0,-9.029411913E0,-2.045516834E-1,9.092210452E0
9.706099292E0,-1.050504332E0,-8.821270916E0,-3.149099851E-1,8.889181528E0
9.716109292E0,-9.717204103E-1,-8.597810799E0,-7.203024164E-1,8.682478141E0
9.726120292E0,-9.548050001E-1,-8.524858598E0,-1.353455884E0,8.684279448E0
9.736130292E0,-1.068876868E0,-8.459005501E0,-1.817066849E0,8.717740749E0
9.746140292E0,-1.053240829E0,-7.985146560E0,-2.379375306E0,8.398411080E0
9.756150292E0,-9.460873863E-1,-6.603727244E0,-2.869883609E0,7.262267331E0
9.766161292E0,-7.225416076E-1,-4.232578386E0,-3.026220029E0,5.253074703E0
9.776171292E0,-3.575446656E-1,-8.235335469E-1,-2.367889035E0,2.532379153E0
9.786181292E0,-2.941844926E-1,3.349658763E0,-8.462274680E-1,3.467399497E0
9.796192292E0,-7.780074913E-2,7.823599686E0,1.443362233E0,7.956007764E0
9.806202292E0,1.003165274E0,1.256996414E1,4.039532561E0,1.324115412E1
9.816212292E0,2.436717196E0,1.717169596E1,6.443259766E0,1.850190069E1
9.826222292E0,3.498941979E0,2.120165312E1,7.419745365E0,2.273335240E1
9.836233292E0,4.337085964E0,2.418152987E1,7.348664272E0,2.564292433E1
9.846243292E0,5.071978353E0,2.557282104E1,8.006387156E0,2.727263053E1
9.856253292E0,5.354840918E0,2.532853373E1,9.410507702E0,2.754571831E1
9.866264292E0,4.739539292E0,2.407742605E1,9.956470413E0,2.648239001E1
9.876274292E0,3.915316359E0,2.333422623E1,8.821545151E0,2.525144500E1
9.886284292E0,2.604403938E0,2.323732617E1,6.837067986E0,2.436189126E1
9.896295292E0,1.203141219E0,2.306742012E1,4.625380300E0,2.355732503E1
9.906305292E0,5.980809181E-1,2.230336679E1,2.843213874E0,2.249181486E1
9.916315292E0,1.018445730E0,2.078515361E1,2.391300556E0,2.094703227E1
9.926325292E0,1.755074815E0,1.845283728E1,2.814133916E0,1.874851570E1
9.936336292E0,1.719142213E0,1.532032131E1,2.909325417E0,1.568859042E1
9.946346292E0,1.284228067E0,1.161140786E1,2.598671036E0,1.196775356E1
9.956356292E0,6.098359412E-1,7.519119380E0,2.250707910E0,7.872403840E0
9.966367292E0,5.840637535E-4,3.270730122E0,1.449977773E0,3.577724335E0
9.976377292E0,-8.153510264E-1,-9.383646762E-1,2.945545118E-1,1.277531965E0
9.986387292E0,-1.488940549E0,-4.867559109E0,-6.376611594E-1,5.129979278E0
9.996398292E0,-1.472056129E0,-7.886738505E0,-1.305896094E0,8.128527425E0
1.000640829E1,-1.717593870E0,-1.103058054E1,-2.055834246E0,1.135122417E1
1.001641829E1,-2.023033412E0,-1.348232157E1,-2.775047618E0,1.391281957E1
1.002642829E1,-1.813836409E0,-1.478540048E1,-2.566648759E0,1.511574529E1
1.003643929E1,-1.812948216E0,-1.539203273E1,-2.162380455E0,1.564855719E1
1.004644929E1,-1.750183327E0,-1.533046623E1,-1.829021920E0,1.553807123E1
1.005645929E1,-1.168399476E0,-1.476381139E1,-1.488979433E0,1.488463448E1
1.006647029E1,-5.614619261E-1,-1.383379653E1,-1.414289439E0,1.391723323E1
1.007648029E1,-1.233251237E-1,-1.269368304E1,-1.496361542E0,1.278217102E1
1.008649029E1,1.671536230E-2,-1.162962778E1,-1.350270613E0,1.170776462E1
1.009650129E1,-3.266773604E-2,-1.071980687E1,-1.108079526E0,1.077697392E1
1.010651129E1,2.110969104E-2,-1.003824489E1,-6.316168195E-1,1.005811841E1
1.011652129E1,-2.819965929E-2,-9.543296800E0,-1.250099623E-1,9.544157193E0
1.012653129E1,1.450621113E-3,-9.349073346E0,-5.332021136E-2,9.349225507E0
1.013654229E1,1.908042581E-1,-9.334504423E0,-1.056276484E-1,9.337051799E0
1.014655229E1,3.313909471E-1,-9.522676009E0,3.583466113E-2,9.528507882E0
1.015656229E1,9.672807656E-2,-9.639446660E0,-2.725347016E-1,9.643783666E0
1.016657329E1,-2.599500317E-2,-9.920580204E0,-7.841730148E-1,9.951558402E0
1.017658329E1,-3.225485683E-1,-1.035501546E1,-9.464397541E-1,1.040317889E1
1.018659329E1,-6.767114237E-1,-1.078073954E1,-9.491253072E-1,1.084357516E1
1.019660429E1,-8.219234430E-1,-1.123703871E1,-1.163067253E0,1.132692909E1
1.020661429E1,-7.182462430E-1,-1.129539509E1,-1.350084672E0,1.139844536E1
1.021662429E1,-5.142699257E-1,-1.105233686E1,-1.477736406E0,1.116254131E1
1.022663429E1,-6.960227305E-1,-1.113457561E1,-1.676869183E0,1.128162718E1
1.023664529E1,-1.206992195E0,-1.118355773E1,-1.239872843E0,1.131662840E1
1.024665529E1,-1.389602787E0,-1.064960403E1,-1.127848377E0,1.079893995E1
1.025666529E1,-1.154753171E0,-9.955560586E0,-1.487382558E0,1.013207522E1
1.026667629E1,-8.830228266E-1,-9.301541330E0,-1.466216807E0,9.457705438E0
1.027668629E1,-1.100941830E0,-8.446789498E0,-1.032781422E0,8.580615549E0
1.028669629E1,-1.405598137E0,-7.426120584E0,-8.695920646E-1,7.607835659E0
1.029670729E1,-1.236350188E0,-5.890195026E0,-7.318104677E-1,6.062879332E0
1.030671729E1,-8.855765980E-1,-4.060131133E0,-1.129513080E0,4.306356990E0
1.031672729E1,-6.646983191E-1,-1.269784859E0,-1.900632916E0,2.380458554E0
1.032673729E1,-2.524968417E-1,2.392749057E0,-2.271618869E0,3.308965849E0
1.033674829E1,1.963825018E-1,6.754797662E0,-1.844534145E0,7.004867147E0
1.034675829E1,9.289000806E-1,1.172851472E1,3.813728003E-1,1.177142125E1
1.035676829E1,1.622377518E0,1.731828683E1,3.300098640E0,1.770440111E1
1.036677929E1,1.298359033E0,2.256169677E1,6.354929388E0,2.347554099E1
1.037678929E1,3.290330574E-1,2.688783178E1,1.010495461E1,2.872583973E1
1.038679929E1,-4.587552908E-1,2.966647076E1,1.319678683E1,3.247252879E1
1.039681029E1,-6.945045009E-1,3.026842524E1,1.355304481E1,3.317144746E1
1.040682029E1,4.031237116E-1,2.907305321E1,1.114624080E1,3.113910108E1
1.041683029E1,1.906793104E0,2.727534313E1,6.893367317E0,2.819749485E1
1.042684029E1,2.429366661E0,2.576060087E1,3.807508028E0,2.615353698E1
1.043685129E1,2.066020680E0,2.417106804E1,2.936618173E0,2.443629877E1
1.044686129E1,1.464335173E0,2.192942331E1,3.641530718E0,2.227789555E1
1.045687129E1,9.240688918E-1,1.929660337E1,4.580729500E0,1.985436696E1
1.046688158E1,1.069756874E0,1.656475264E1,5.003027401E0,1.733683053E1
1.047689158E1,1.615899680E0,1.338781069E1,4.835406732E0,1.432570295E1
1.048690158E1,1.937711426E0,9.642399504E0,4.013853344E0,1.062269328E1
1.049691258E1,2.003433399E0,5.567704711E0,2.572912589E0,6.452360833E0
1.050692258E1,1.698583403E0,1.353755554E0,1.111822182E0,2.440079556E0
1.051693258E1,1.150605156E0,-2.744063807E0,7.817712709E-2,2.976556747E0
1.052694258E1,2.727931485E-1,-6.532159663E0,-3.720868371E-1,6.548432987E0
1.053695358E1,-6.124162444E-1,-9.439640869E0,-9.534105854E-1,9.507411064E0
1.054696358E1,-1.388429835E0,-1.189180524E1,-2.057158055E0,1.214803147E1
1.055697358E1,-1.917115486E0,-1.401222081E1,-3.079926120E0,1.447423949E1
1.056698458E1,-2.191723830E0,-1.528864226E1,-3.665948691E0,1.587404849E1
1.057699458E1,-2.466557291E0,-1.567213775E1,-3.907683696E0,1.633921045E1
1.058700458E1,-2.620280591E0,-1.553797923E1,-3.793230296E0,1.620750644E1
1.059701558E1,-2.175338470E0,-1.488175557E1,-3.436712109E0,1.542756418E1
1.060702558E1,-1.420032574E0,-1.373496690E1,-2.490495207E0,1.403097910E1
1.061703558E1,-9.574157819E-1,-1.236258796E1,-1.464266760E0,1.248576402E1
1.062704558E1,-9.427898490E-1,-1.113763604E1,-8.703054249E-1,1.121129880E1
1.063705658E1,-1.010159202E0,-1.024785939E1,-7.231837050E-1,1.032288905E1
1.064706658E1,-8.346070039E-1,-9.550121670E0,-3.062573484E-1,9.591412113E0
1.065707658E1,-6.850308421E-1,-9.009665866E0,1.013497889E-1,9.036239154E0
1.066708758E1,-6.740850737E-1,-9.085091439E0,-2.267526110E-1,9.112886145E0
1.067709758E1,-3.916474180E-1,-9.505151319E0,-8.661282472E-1,9.552563396E0
1.068710758E1,-2.954565910E-1,-1.005720274E1,-1.159789377E0,1.012816533E1
1.069711858E1,-5.832042128E-1,-1.069552339E1,-8.369225013E-1,1.074405822E1
1.070712858E1,-6.999959135E-1,-1.113300037E1,-7.221276978E-1,1.117833440E1
1.071713858E1,-7.676891291E-1,-1.136368004E1,-1.376961983E0,1.147251476E1
1.072714958E1,-8.395362067E-1,-1.154823805E1,-2.117873350E0,1.177081181E1
1.073715958E1,-7.141058296E-1,-1.161335615E1,-2.466568401E0,1.189386177E1
1.074716958E1,-7.130392975E-1,-1.161335615E1,-2.134385887E0,1.182937316E1
1.075717958E1,-5.229682802E-1,-1.119290626E1,-1.209330643E0,1.127018753E1
1.076719058E1,-7.713562835E-2,-1.038469242E1,-8.658792289E-1,1.042101403E1
1.077720058E1,1.331203062E-1,-9.781179074E0,-1.283166359E0,9.865885718E0
1.078721058E1,-7.568672486E-3,-9.299306524E0,-5.628379221E-1,9.316326832E0
1.079722158E1,3.720027834E-2,-8.759191613E0,5.419924521E-1,8.776022868E0
1.080723158E1,5.242730133E-1,-8.365867542E0,3.070324700E-1,8.387900265E0
1.081724158E1,9.328536755E-1,-7.601276852E0,-7.728757556E-1,7.697204863E0
1.082725258E1,9.326920000E-1,-5.896899444E0,-1.327072955E0,6.115918577E0
1.083726258E1,5.729952666E-1,-3.450570011E0,-1.937215290E0,3.998444704E0
1.084727258E1,-1.187952492E-1,-3.134458423E-2,-2.383928679E0,2.387092529E0
1.085728258E1,-4.838959792E-1,4.395539702E0,-2.055609859E0,4.876520940E0
1.086729358E1,-2.176216722E-2,8.968771024E0,-4.631282772E-1,8.980746911E0
1.087730358E1,-9.040370984E-3,1.385383143E1,2.522358440E0,1.408158440E1
1.088731358E1,-1.920649543E-1,1.890977614E1,4.986130117E0,1.955704518E1
1.089732458E1,3.211504260E-1,2.335390562E1,6.904875222E0,2.435539667E1
1.090733458E1,1.171897792E0,2.654492766E1,9.378746211E0,2.817742731E1
1.091734458E1,2.123763981E0,2.821805931E1,1.137369282E1,3.049803490E1
1.092735558E1,2.338102734E0,2.861046127E1,1.019323704E1,3.046189915E1
1.093736558E1,1.733534549E0,2.793847820E1,7.071031457E0,2.887149445E1
1.094737558E1,7.327315503E-1,2.701823170E1,4.965514004E0,2.748050344E1
1.095738558E1,-9.345370889E-2,2.553887913E1,4.299340725E0,2.589840558E1
1.096739658E1,-7.580435622E-1,2.363107065E1,4.738830902E0,2.411345369E1
1.097740658E1,-7.741245747E-1,2.142019164E1,5.085705861E0,2.202925970E1
1.098741658E1,-5.012209868E-1,1.887700015E1,4.799746318E0,1.948409408E1
1.099742758E1,-9.637260970E-1,1.577671169E1,3.846020129E0,1.626730680E1
1.100743758E1,-1.322640473E0,1.232353791E1,3.454573014E0,1.286674159E1
1.101744758E1,-5.089770626E-1,8.538655688E0,4.490017258E0,9.660639398E0
1.102745858E1,7.114514861E-1,4.169146037E0,5.447490635E0,6.896600330E0
1.103746858E1,7.215300393E-1,-8.050879204E-1,3.871872423E0,4.019971171E0
1.104747858E1,5.339007462E-1,-5.392451379E0,1.088037463E0,5.526970906E0
1.105748858E1,5.214204126E-1,-9.611807456E0,-1.742673455E0,9.782414456E0
1.106749958E1,2.160519506E-1,-1.349592219E1,-4.243438420E0,1.414897042E1
1.107750958E1,-2.288477780E-1,-1.614956290E1,-5.437414713E0,1.704189638E1
1.108751958E1,-9.478590927E-1,-1.756519837E1,-5.287062333E0,1.836811528E1
1.109753058E1,-1.817556115E0,-1.808965736E1,-5.065432395E0,1.887320373E1
1.110754058E1,-1.997517917E0,-1.721194118E1,-4.412943939E0,1.788057804E1
1.111755058E1,-1.544466001E0,-1.549807081E1,-3.875145110E0,1.604968298E1
1.112756158E1,-8.916795563E-1,-1.345716568E1,-3.181839581E0,1.385692981E1
1.113757158E1,-2.493646710E-1,-1.154251363E1,-1.741561461E0,1.167582288E1
1.114758158E1,2.645704284E-2,-1.010937978E1,-8.505965075E-1,1.014513548E1
1.115759258E1,2.475737420E-1,-9.026875976E0,-2.157856464E-1,9.032848171E0
1.116760258E1,5.903453442E-1,-8.467916073E0,3.304909144E-1,8.494900499E0
1.117761258E1,1.040797150E0,-8.528303193E0,5.917319383E-1,8.611931302E0
1.118762258E1,1.391770349E0,-8.987504919E0,2.866229099E-1,9.099144029E0
1.119763358E1,1.350200739E0,-9.571024296E0,-5.430930443E-1,9.681038073E0
1.120764358E1,9.261024803E-1,-1.028326662E1,-1.523215026E0,1.043663845E1
1.121765358E1,2.348366790E-1,-1.108791366E1,-2.363925354E0,1.133953794E1
1.122766458E1,-4.961517432E-1,-1.145309099E1,-2.328662989E0,1.169795414E1
1.123767458E1,-1.166249674E0,-1.163276657E1,-2.050811487E0,1.186959242E1
1.124768458E1,-1.705338106E0,-1.144298466E1,-1.535071279E0,1.167075489E1
1.125769458E1,-1.877499723E0,-1.090940050E1,-1.240835733E0,1.113910669E1
1.126770558E1,-1.581486770E0,-1.029448743E1,-1.176649239E0,1.048151111E1
1.127771558E1,-1.690439985E0,-9.708923861E0,-9.731216955E-1,9.902916526E0
1.128772558E1,-2.038155189E0,-9.356463057E0,-1.099301686E0,9.638772832E0
1.129773658E1,-1.971457170E0,-9.049995282E0,-1.454210134E0,9.375701845E0
1.130774658E1,-1.729528914E0,-8.744750744E0,-1.766466068E0,9.087482501E0
1.131775658E1,-1.503607120E0,-8.647384079E0,-2.006444569E0,9.003549610E0
1.132776758E1,-1.176423537E0,-8.593607236E0,-1.810516652E0,8.860701339E0
1.133777758E1,-7.679452372E-1,-8.187567226E0,-1.650631557E0,8.387525350E0
1.134778758E1,-8.870085812E-1,-7.457948148E0,-2.560638406E0,7.935026393E0
1.135779858E1,-1.064240611E0,-5.955158762E0,-3.342631579E0,6.911563487E0
1.136780858E1,-1.037605082E0,-3.410941676E0,-3.372406771E0,4.907573214E0
1.137781858E1,-7.740216637E-1,1.525123411E-1,-2.415932098E0,2.541475448E0
1.138782858E1,-2.318760510E-1,4.426645135E0,-8.962905975E-1,4.522420866E0
1.139783958E1,5.939005244E-1,9.337033929E0,1.698838341E-1,9.357445214E0
1.140784958E1,1.673332787E0,1.449778997E1,9.549617055E-1,1.462524901E1
1.141785958E1,3.029173458E0,1.944755859E1,2.415986769E0,1.982978616E1
1.142787058E1,3.587781358E0,2.358756503E1,5.891694252E0,2.457554598E1
1.143788058E1,3.100105738E0,2.672529789E1,9.919588516E0,2.867490958E1
1.144789058E1,3.112667312E0,2.777385101E1,1.219383498E1,3.049204993E1
1.145790158E1,3.333899640E0,2.706504217E1,1.177855052E1,2.970464016E1
1.146791196E1,3.219034596E0,2.679567498E1,9.655334129E0,2.866349348E1
1.147792196E1,2.534242028E0,2.759896079E1,7.312931353E0,2.866363523E1
1.148793196E1,1.923783359E0,2.792389524E1,5.904741729E0,2.860613296E1
1.149794296E1,1.712208292E0,2.625727974E1,6.521526502E0,2.710916274E1
1.150795296E1,2.250869147E0,2.336868738E1,8.103950872E0,2.483618291E1
1.151796296E1,2.661394410E0,2.017492182E1,8.597369335E0,2.209129353E1
1.152797396E1,2.820191339E0,1.648536733E1,7.621807011E0,1.837968328E1
1.153798396E1,2.628874828E0,1.253921714E1,6.301446075E0,1.427764589E1
1.154799396E1,2.043682562E0,8.744120999E0,4.863613700E0,1.021229791E1
1.155800496E1,1.132741547E0,4.830682474E0,3.460662305E0,6.049361963E0
1.156801496E1,1.717425909E-1,9.370905679E-1,2.393860467E0,2.576470878E0
1.157802496E1,-4.025425715E-1,-2.769273493E0,1.327192677E0,3.097152983E0
1.158803596E1,-8.376773769E-1,-6.369224660E0,-2.216141510E-1,6.427895378E0
1.159804596E1,-1.101219280E0,-9.808189702E0,-2.120121458E0,1.009495835E1
1.160805596E1,-1.496656827E0,-1.274108525E1,-3.859320205E0,1.339662597E1
1.161806596E1,-2.016083704E0,-1.496400719E1,-5.308329241E0,1.600513867E1
1.162807696E1,-2.560273540E0,-1.635695078E1,-5.835808904E0,1.755452947E1
1.163808696E1,-3.406560357E0,-1.688137118E1,-5.478432931E0,1.807203845E1
1.164809696E1,-3.597723086E0,-1.663882751E1,-4.942043281E0,1.772619485E1
1.165810796E1,-2.616646546E0,-1.574334163E1,-4.730338991E0,1.664559256E1
1.166811796E1,-1.564540954E0,-1.429792746E1,-4.576848410E0,1.509390803E1
1.167812796E1,-4.339707709E-1,-1.302427409E1,-3.850919511E0,1.358858444E1
1.168813896E1,6.302459398E-1,-1.211117991E1,-2.786860163E0,1.244365213E1
1.169814896E1,1.013285854E0,-1.070679448E1,-1.706949745E0,1.088925497E1
1.170815896E1,1.209100628E0,-9.798031334E0,-5.632839916E-1,9.888408932E0
1.171816896E1,8.403494813E-1,-9.564974182E0,2.959613518E-1,9.606378687E0
1.172817996E1,1.414689242E-1,-9.695538999E0,6.136850902E-1,9.715971353E0
1.173818996E1,-2.041936145E-1,-1.003617732E1,7.963205322E-1,1.006979029E1
1.174819996E1,-4.741953754E-1,-1.033652540E1,5.596155216E-1,1.036251842E1
1.175821096E1,-9.498983091E-1,-1.072990969E1,-5.637481874E-1,1.078661582E1
1.176822096E1,-1.472282416E0,-1.124127092E1,-1.860658865E0,1.148894420E1
1.177823096E1,-1.993680390E0,-1.147986890E1,-2.604926972E0,1.193933817E1
1.178824196E1,-2.032884509E0,-1.145097430E1,-2.314607452E0,1.185811281E1
1.179825196E1,-1.730478210E0,-1.118862844E1,-1.560930591E0,1.142875608E1
1.180826196E1,-1.871515390E0,-1.105085401E1,-1.781797467E0,1.134895353E1
1.181827196E1,-1.600973493E0,-1.065715864E1,-2.108858698E0,1.098113980E1
1.182828296E1,-1.310373892E0,-1.009090258E1,-1.661222034E0,1.031033720E1
1.183829296E1,-9.013208109E-1,-9.367341217E0,-1.447505717E0,9.521277933E0
1.184830296E1,-2.950905918E-1,-8.684552490E0,-1.495643066E0,8.817339654E0
1.185831396E1,1.926311841E-1,-8.014167461E0,-1.193835083E0,8.104889208E0
1.186832396E1,-1.158324650E-1,-7.379953308E0,-9.092057812E-1,7.436651339E0
1.187833396E1,-4.624136744E-1,-6.605936907E0,-9.994325580E-1,6.697095957E0
1.188834496E1,-3.777147091E-1,-5.314246039E0,-1.413541141E0,5.511984935E0
1.189835496E1,-8.999478847E-2,-3.543557696E0,-1.713600222E0,3.937172327E0
1.190836496E1,1.289211649E-1,-9.492872751E-1,-1.540005745E0,1.813666091E0
1.191837496E1,3.073852032E-1,2.879321600E0,-8.191218227E-1,3.009308741E0
1.192838596E1,2.462157261E-1,7.195998734E0,6.256549984E-1,7.227341430E0
1.193839596E1,-2.895226903E-2,1.142547342E1,2.074072735E0,1.161223746E1
1.194840596E1,2.292537575E-1,1.516465205E1,2.972461605E0,1.545492663E1
1.195841696E1,1.162649470E0,1.819026456E1,2.979310157E0,1.846926548E1
1.196842696E1,2.516439011E0,2.128088289E1,2.903571757E0,2.162496638E1
1.197843696E1,4.176416757E0,2.475810744E1,4.375422356E0,2.548628379E1
1.198844796E1,4.916833595E0,2.676410470E1,6.768976575E0,2.804124813E1
1.199845796E1,5.012129177E0,2.647898277E1,9.069784598E0,2.843446781E1
1.200846796E1,5.143067631E0,2.586174834E1,1.036328343E1,2.833158688E1
1.201847896E1,4.586220328E0,2.548791947E1,9.871380562E0,2.771482654E1
1.202848896E1,3.986274952E0,2.507376119E1,8.637593501E0,2.681775363E1
1.203849896E1,3.425866986E0,2.394336576E1,6.871871198E0,2.514446147E1
1.204850896E1,2.847309848E0,2.171818212E1,4.881054482E0,2.244128563E1
1.205851996E1,2.444762964E0,1.866153610E1,3.557871388E0,1.915432705E1
1.206852996E1,2.191341714E0,1.505700832E1,3.345841700E0,1.557915706E1
1.207853996E1,1.899106062E0,1.105682050E1,2.903308632E0,1.158831673E1
1.208855096E1,1.330997898E0,6.715616639E0,2.081477210E0,7.155669754E0
1.209856096E1,5.686872574E-1,2.309426234E0,1.305822273E0,2.713305463E0
1.210857096E1,5.711729088E-1,-1.624326103E0,7.957988875E-1,1.896831476E0
1.211858196E1,9.671665256E-1,-5.311184437E0,-1.995176692E-1,5.402212372E0
1.212859196E1,7.701445942E-1,-8.843883269E0,-1.900570351E0,9.078521996E0
1.213860196E1,2.769325387E-1,-1.176307996E1,-3.620850871E0,1.231086117E1
1.214861296E1,-1.091214767E0,-1.382652961E1,-4.850116280E0,1.469310378E1
1.215862296E1,-2.433133437E0,-1.498402454E1,-4.826455522E0,1.592908669E1
1.216863296E1,-3.427526134E0,-1.575365963E1,-4.628609133E0,1.677348352E1
1.217864296E1,-3.981931640E0,-1.584376990E1,-4.327307957E0,1.689989403E1
1.218865396E1,-3.527281094E0,-1.505669725E1,-3.556756616E0,1.586809256E1
1.219866396E1,-2.203981640E0,-1.372611187E1,-3.192114308E0,1.426370485E1
1.220867396E1,-1.150973604E0,-1.221251800E1,-2.563404139E0,1.253161510E1
1.221868496E1,-6.022316372E-1,-1.099493357E1,-1.253029078E0,1.108247847E1
1.222869496E1,-2.567065812E-1,-1.040205163E1,-3.934206227E-1,1.041265366E1
1.223870496E1,-2.223957045E-1,-1.002968457E1,-1.669836883E-1,1.003353955E1
1.224871596E1,3.823903620E-2,-9.872635374E0,-3.820599943E-1,9.880099255E0
1.225872596E1,2.916398209E-1,-1.002870575E1,-9.111113888E-1,1.007423033E1
1.226873596E1,3.016759088E-1,-1.040107398E1,-1.509266932E0,1.051433474E1
1.227874596E1,1.401348820E-1,-1.080707657E1,-2.148399178E0,1.101944467E1
1.228875696E1,9.679115340E-3,-1.113578364E1,-2.706507141E0,1.145997173E1
1.229876696E1,-2.986781144E-1,-1.146104788E1,-3.063279682E0,1.186711884E1
1.230877696E1,-7.509389028E-1,-1.143360923E1,-2.931655934E0,1.182733849E1
1.231878796E1,-1.417460091E0,-1.134613372E1,-2.569919107E0,1.171957455E1
1.232879796E1,-1.583395886E0,-1.074490897E1,-2.073860042E0,1.105717445E1
1.233880796E1,-1.254018427E0,-9.967916923E0,-1.183613273E0,1.011597105E1
1.234881896E1,-8.195274002E-1,-9.099200186E0,-1.951398589E-1,9.138115164E0
1.235882896E1,-8.168528838E-1,-8.474441566E0,9.441713999E-1,8.565913152E0
1.236883896E1,-1.127711918E0,-8.145207072E0,1.848255605E0,8.428059159E0
1.237884896E1,-1.347925295E0,-7.873771720E0,2.375320116E0,8.333986402E0
1.238885996E1,-1.467051497E0,-7.626559628E0,2.440126707E0,8.140692244E0
1.239886996E1,-1.238757633E0,-7.225678616E0,2.260112279E0,7.671574770E0
1.240887996E1,-1.540089945E0,-6.728889234E0,1.347526954E0,7.033182512E0
1.241889096E1,-1.826254433E0,-5.874662483E0,3.373866820E-1,6.161225066E0
1.242890096E1,-1.963622485E0,-4.271637787E0,-5.248435919E-1,4.730556356E0
1.243891096E1,-1.910756347E0,-1.637932574E0,-1.945491293E0,3.180998162E0
1.244892196E1,-1.266307228E0,1.805449455E0,-3.233937103E0,3.914272718E0
1.245893196E1,-5.150985492E-1,5.962087128E0,-3.331099116E0,6.848943769E0
1.246894158E1,-1.713913194E-1,1.067406762E1,-1.895860419E0,1.084248040E1
1.247895258E1,5.973167601E-1,1.590870323E1,1.233491192E0,1.596762745E1
1.248896258E1,2.340339879E0,2.162497283E1,5.284643340E0,2.238401429E1
1.249897258E1,4.282836959E0,2.680607367E1,8.339805917E0,2.839825066E1
1.250898258E1,4.968747514E0,3.065963671E1,9.474777957E0,3.247265299E1
1.251899358E1,4.756644444E0,3.207870683E1,1.046186865E1,3.407520791E1
1.252900358E1,3.653140073E0,3.091918993E1,1.162367064E1,3.323328840E1
1.253901358E1,2.318390016E0,2.863819345E1,1.070078939E1,3.065987524E1
1.254902458E1,1.651635231E0,2.606957476E1,7.218250313E0,2.710080745E1
1.255903458E1,1.147214209E0,2.330345116E1,2.440413074E0,2.345895463E1
1.256904458E1,1.104849085E0,2.008806026E1,-2.218668969E-1,2.011964417E1
1.257905558E1,9.672691443E-1,1.668599816E1,4.765350656E-1,1.672080231E1
1.258906558E1,9.370738303E-1,1.355960422E1,1.820455603E0,1.371331589E1
1.259907558E1,1.006696408E0,1.050095729E1,2.485054958E0,1.083785217E1
1.260908558E1,9.488905415E-1,7.241870726E0,2.911247982E0,7.862598151E0
1.261909658E1,7.140587595E-1,3.742543123E0,3.240453240E0,5.001704323E0
1.262910658E1,3.892251724E-1,-3.110718727E-2,3.193193704E0,3.216978384E0
1.263911658E1,5.583871678E-3,-3.623724192E0,2.216411798E0,4.247809960E0
1.264912758E1,-2.884525768E-1,-7.095903173E0,7.417391130E-1,7.140393802E0
1.265913758E1,-6.556705836E-1,-1.044555024E1,-9.524484260E-1,1.050935687E1
1.266914758E1,-1.022064718E0,-1.318664308E1,-2.633905773E0,1.348590492E1
1.267915858E1,-1.659521078E0,-1.509343881E1,-4.049097437E0,1.571499588E1
1.268916858E1,-2.447347726E0,-1.640490146E1,-4.804082905E0,1.726816479E1
1.269917858E1,-3.201328058E0,-1.675565370E1,-4.898364580E0,1.774808181E1
1.270918958E1,-3.194018454E0,-1.593416084E1,-4.347887233E0,1.682270367E1
1.271919958E1,-2.394548246E0,-1.482367869E1,-3.495873068E0,1.541740704E1
1.272920958E1,-1.706992868E0,-1.369568998E1,-2.564231520E0,1.403784285E1
1.273921958E1,-1.282735857E0,-1.238882909E1,-1.513930671E0,1.254673199E1
1.274923058E1,-6.125785046E-1,-1.104144934E1,-1.039597448E0,1.110718771E1
1.275924058E1,-1.351990280E-1,-9.810263125E0,-7.063518369E-1,9.836588548E0
1.276925058E1,1.547649079E-1,-9.081530485E0,-3.495980803E-1,9.089574630E0
1.277926158E1,-1.461037197E-1,-8.793258076E0,-1.544646534E-1,8.795828171E0
1.278927158E1,-1.948009396E-1,-8.871252331E0,-3.636746673E-1,8.880840309E0
1.279928158E1,-1.545367203E-1,-9.087122177E0,-6.952843002E-1,9.114992667E0
1.280929258E1,-2.237779132E-1,-9.591473179E0,-9.294780779E-1,9.639002220E0
1.281930258E1,-4.410445862E-1,-1.023674968E1,-9.994609170E-1,1.029487671E1
1.282931258E1,-5.519368849E-1,-1.081402540E1,-1.187412867E0,1.089301285E1
1.283932358E1,-5.092480445E-1,-1.102369018E1,-1.639344091E0,1.115654641E1
1.284933358E1,-4.947522853E-1,-1.131071362E1,-1.791121584E0,1.146233567E1
1.285934358E1,-4.602235267E-1,-1.144728587E1,-1.499007407E0,1.155418464E1
1.286935358E1,-2.119525042E-1,-1.131806942E1,-9.084444737E-1,1.135644710E1
1.287936458E1,1.248476290E-1,-1.099441434E1,-3.645003672E-1,1.100116331E1
1.288937458E1,-1.071275689E-2,-1.071793460E1,-6.095788099E-1,1.073526074E1
1.289938458E1,-2.595906472E-1,-1.009910154E1,-9.692204332E-1,1.014882395E1
1.290939558E1,-3.877753553E-1,-9.324829620E0,-1.039356031E0,9.390584547E0
1.291940558E1,-5.425195786E-1,-8.431134748E0,-6.194844317E-1,8.471252658E0
1.292941558E1,-6.553538838E-1,-7.492228035E0,3.809642261E-1,7.530478297E0
1.293942658E1,-1.299646882E0,-5.989865495E0,1.034767721E0,6.215972563E0
1.294943658E1,-1.943706869E0,-3.720856385E0,4.255705878E-1,4.219464297E0
1.295944658E1,-1.432462146E0,-1.112936223E0,-8.311094919E-1,1.995323990E0
1.296945658E1,-9.179757276E-1,2.397439694E0,-5.763986385E-1,2.631089492E0
1.297946758E1,-1.039600591E-1,6.211193132E0,6.821464106E-1,6.249404095E0
1.298947758E1,4.805189198E-1,1.015347714E1,1.928252678E0,1.034611787E1
1.299948758E1,2.921929675E-1,1.417010967E1,2.613293168E0,1.441203268E1
1.300949858E1,1.151817576E0,1.813186958E1,3.553299158E0,1.851262578E1
1.301950858E1,2.441241771E0,2.209317108E1,6.119587144E0,2.305465715E1
1.302951858E1,3.320394033E0,2.486407770E1,8.928394246E0,2.662637039E1
1.303952958E1,4.628046338E0,2.597778049E1,1.126133506E1,2.868939803E1
1.304953958E1,6.185312186E0,2.599197051E1,1.181792567E1,2.921479052E1
1.305954958E1,6.394812661E0,2.569699953E1,9.515315534E0,2.813841935E1
1.306956058E1,5.228132340E0,2.549235400E1,5.715189031E0,2.664313919E1
1.307957058E1,3.585343654E0,2.500107562E1,2.520494932E0,2.538230419E1
1.308958058E1,2.043561817E0,2.368771146E1,2.126110469E0,2.387057111E1
1.309959058E1,1.473694226E0,2.153147117E1,3.638542206E0,2.188641165E1
1.310960158E1,1.128759081E0,1.877136319E1,4.782893765E0,1.940397500E1
1.311961158E1,9.368387722E-1,1.544710882E1,5.038253367E0,1.627497572E1
1.312962158E1,7.653998711E-1,1.167804624E1,4.584231690E0,1.256892124E1
1.313963258E1,8.697053544E-1,7.964829825E0,3.424839046E0,8.713462230E0
1.314964258E1,1.104468285E0,3.846020129E0,1.998908093E0,4.472958147E0
1.315965258E1,1.304762903E0,2.087865293E-2,1.086541746E0,1.698062165E0
1.316966358E1,1.019166984E0,-3.712045800E0,8.706853478E-1,3.946654069E0
1.317967358E1,8.377799224E-1,-6.903238002E0,4.931592844E-1,6.971353971E0
1.318968358E1,3.330017819E-1,-9.623515336E0,-3.953941311E-1,9.637389383E0
1.319969458E1,-3.142010102E-1,-1.196815701E1,-1.824877414E0,1.211056077E1
1.320970458E1,-1.076579113E0,-1.385934887E1,-3.321796196E0,1.429247717E1
1.321971458E1,-1.775220812E0,-1.514846111E1,-4.190128770E0,1.581722043E1
1.322972458E1,-2.504922920E0,-1.577128547E1,-4.367436229E0,1.655543970E1
1.323973558E1,-3.296854020E0,-1.576112886E1,-4.013650446E0,1.659493354E1
1.324974558E1,-3.159839139E0,-1.473621838E1,-3.162257255E0,1.539936967E1
1.325975558E1,-1.900851748E0,-1.292204955E1,-2.468989148E0,1.329242301E1
1.326976658E1,-5.763586581E-1,-1.102624424E1,-1.716089382E0,1.117386299E1
1.327977658E1,1.188098672E-1,-9.665265040E0,-5.233018273E-1,9.680150251E0
1.328978658E1,2.567149866E-1,-8.946465651E0,7.472507715E-2,8.950459992E0
1.329979758E1,6.443671849E-1,-8.552911200E0,3.022436734E-1,8.582473437E0
1.330980758E1,9.347019804E-1,-8.573408614E0,4.456361854E-1,8.635716222E0
1.331981758E1,6.612842030E-1,-8.961490656E0,3.007282213E-1,8.990887000E0
1.332982858E1,2.101465917E-1,-9.541703433E0,6.381300330E-2,9.544230619E0
1.333983858E1,-2.993824115E-1,-1.011015980E1,-3.004901665E-1,1.011905407E1
1.334984858E1,-7.697380666E-1,-1.074311271E1,-7.977718842E-1,1.080015774E1
1.335985858E1,-1.255180269E0,-1.143090782E1,-1.335128079E0,1.157686046E1
1.336986958E1,-1.655411071E0,-1.217166818E1,-1.607154000E0,1.238841540E1
1.337987958E1,-1.994501631E0,-1.257269245E1,-1.597259341E0,1.282972602E1
1.338988958E1,-1.985554807E0,-1.268505138E1,-1.540225015E0,1.293156021E1
1.339990058E1,-1.889149716E0,-1.273688110E1,-1.496048716E0,1.296283875E1
1.340991058E1,-1.429240184E0,-1.232786018E1,-1.580177286E0,1.251062845E1
1.341992058E1,-8.818044861E-1,-1.171725182E1,-1.411951722E0,1.183491348E1
1.342993158E1,-6.530697421E-1,-1.086497804E1,-8.510915474E-1,1.091781135E1
1.343994158E1,-9.823579574E-1,-9.936766466E0,-5.390629971E-1,9.999747190E0
1.344995158E1,-1.192539925E0,-8.900458589E0,-2.387008846E-1,8.983167185E0
1.345996158E1,-1.277220179E0,-7.737871903E0,-1.347982013E-1,7.843731480E0
1.346997346E1,-1.424149306E0,-6.042054818E0,-7.197794560E-1,6.249216762E0
1.347998346E1,-8.722350792E-1,-3.546093634E0,-2.082839026E0,4.204020992E0
1.348999346E1,1.003475761E-1,-3.330620813E-1,-3.424599018E0,3.442219984E0
1.350000446E1,7.635849684E-1,3.016060492E0,-2.921304023E0,4.267751175E0
1.351001446E1,1.018472992E0,6.483452357E0,-7.410772812E-1,6.604667837E0
1.352002446E1,1.405739055E0,1.000573671E1,1.144448476E0,1.016861012E1
1.353003546E1,2.508053811E0,1.378710301E1,1.810881372E0,1.412989153E1
1.354004546E1,4.232177267E0,1.800082062E1,2.622190876E0,1.867663654E1
1.355005546E1,4.868877071E0,2.287148226E1,4.420646476E0,2.379816757E1
1.356006646E1,4.591553573E0,2.681735412E1,6.678840576E0,2.801534861E1
1.357007646E1,4.156878286E0,2.868364970E1,7.818540090E0,3.001934320E1
1.358008646E1,3.358203884E0,2.921646436E1,6.904217995E0,3.020840196E1
1.359009646E1,2.311317516E0,2.974869196E1,4.474713340E0,3.017200560E1
1.360010746E1,1.238091635E0,2.975633544E1,3.446889773E0,2.998088423E1
1.361011746E1,1.599565776E-1,2.853265354E1,4.709515886E0,2.891915359E1
1.362012746E1,-4.470754775E-1,2.614614054E1,6.450485755E0,2.693379491E1
1.363013846E1,3.829926252E-3,2.255134720E1,7.008034140E0,2.361516076E1
1.364014846E1,9.156643233E-1,1.811214576E1,6.445728461E0,1.924670570E1
1.365015846E1,1.421152316E0,1.333332165E1,5.042148782E0,1.432551586E1
1.366016946E1,1.581674465E0,8.684828478E0,3.735928752E0,9.585671779E0
1.367017946E1,1.346113535E0,4.059817137E0,2.876795018E0,5.154617969E0
1.368018946E1,7.651739493E-1,-3.290567386E-1,1.779401863E0,1.964698578E0
1.369020046E1,1.837420276E-1,-4.190442181E0,7.776609707E-1,4.265949295E0
1.370021046E1,-3.444925839E-1,-7.451048434E0,-2.480266819E-1,7.463130385E0
1.371022046E1,-7.090767125E-1,-1.025716114E1,-1.177963766E0,1.034890057E1
1.372023146E1,-8.619126970E-1,-1.288383683E1,-1.886488355E0,1.304971200E1
1.373024146E1,-8.920586020E-1,-1.474724622E1,-2.679278412E0,1.501517807E1
1.374025146E1,-6.414392647E-1,-1.577344193E1,-3.384763691E0,1.614526370E1
1.375026146E1,-8.269895437E-1,-1.648227883E1,-3.962262191E0,1.697200486E1
1.376027246E1,-1.162470911E0,-1.646384139E1,-3.880574834E0,1.695488935E1
1.377028246E1,-1.387961766E0,-1.587575534E1,-3.225802456E0,1.625951558E1
1.378029246E1,-1.267398318E0,-1.470608884E1,-2.485236222E0,1.496835818E1
1.379030346E1,-6.926661363E-1,-1.334079322E1,-1.860869365E0,1.348774944E1
1.380031346E1,1.412509692E-1,-1.191055609E1,-1.390943846E0,1.199233184E1
1.381032346E1,5.405010467E-1,-1.068486742E1,-8.911764765E-1,1.073558237E1
1.382033446E1,4.736113116E-1,-9.846168537E0,-3.600095594E-1,9.864124361E0
1.383034446E1,2.276402915E-1,-9.503590697E0,8.575643420E-2,9.506703446E0
1.384035446E1,2.685341828E-1,-9.449872327E0,1.784348023E-1,9.455370780E0
1.385036546E1,2.742624076E-1,-9.616700991E0,1.068730505E-1,9.621204689E0
1.386037546E1,3.236170739E-1,-9.851449742E0,-4.492883563E-2,9.856866066E0
1.387038546E1,2.898432274E-1,-1.023867809E1,-2.477687832E-1,1.024577608E1
1.388039546E1,6.186646521E-3,-1.057445094E1,-3.760952497E-1,1.058113881E1
1.389040646E1,-2.382632205E-1,-1.076940997E1,-4.715843743E-1,1.078236302E1
1.390041646E1,-7.533780688E-1,-1.102429127E1,-2.825748825E-1,1.105361593E1
1.391042646E1,-1.198314342E0,-1.101892587E1,-1.086266488E-1,1.108442530E1
1.392043746E1,-1.371759131E0,-1.075417798E1,1.823987760E-2,1.084132832E1
1.393044746E1,-1.192356907E0,-1.026562323E1,-6.810602903E-2,1.033486206E1
1.394045746E1,-1.165247753E0,-9.790464453E0,-5.095614552E-2,9.859695383E0
1.395046846E1,-1.227862954E0,-9.265723625E0,1.051025319E-1,9.347316635E0
1.396047846E1,-1.187259597E0,-8.751377978E0,1.159929711E-1,8.832307526E0
1.397048846E1,-1.099281513E0,-8.132292327E0,1.856958747E-1,8.208354359E0
1.398049846E1,-1.210561336E0,-7.268084963E0,2.027391927E-1,7.370998640E0
1.399050946E1,-1.554615305E0,-6.098790936E0,-2.832591529E-1,6.300183758E0
1.400051946E1,-1.839509778E0,-4.431966101E0,-1.271759464E0,4.964221175E0
1.401052946E1,-1.973365116E0,-1.847459945E0,-1.913377361E0,3.311841037E0
1.402054046E1,-1.695069811E0,1.555629505E0,-2.160905056E0,3.156383292E0
1.403055046E1,-1.056362950E0,5.368046855E0,-2.052850996E0,5.843460185E0
1.404056046E1,-3.031673325E-1,9.466142204E0,-1.254403759E0,9.553705431E0
1.405057146E1,1.282624578E-1,1.349851485E1,-3.382709272E-1,1.350336186E1
1.406058146E1,4.396781285E-1,1.741840052E1,4.188248013E-1,1.742898183E1
1.407059146E1,1.086394542E0,2.154066065E1,2.616130822E0,2.172612379E1
1.408060246E1,1.225534301E0,2.511013789E1,6.873639981E0,2.606276819E1
1.409061246E1,1.350134666E0,2.664944781E1,1.126051762E1,2.896230635E1
1.410062246E1,2.352820761E0,2.675129462E1,1.285370964E1,2.977222498E1
1.411063246E1,3.125867986E0,2.686137196E1,9.680293554E0,2.872302974E1
1.412064346E1,2.634606561E0,2.722157681E1,4.322781628E0,2.768829784E1
1.413065346E1,1.920194922E0,2.695792352E1,1.636326782E0,2.707571522E1
1.414066346E1,1.678072247E0,2.600540040E1,2.201456228E0,2.615230747E1
1.415067446E1,9.851619896E-1,2.348368808E1,4.126098250E0,2.386375571E1
1.416068446E1,3.359739947E-1,2.006275585E1,5.349976619E0,2.076654282E1
1.417069446E1,2.743019494E-1,1.617465097E1,5.219144000E0,1.699805988E1
1.418070546E1,8.120808249E-1,1.271762739E1,4.412557438E0,1.348585128E1
1.419071546E1,5.680353659E-1,8.293916384E0,3.407525733E0,8.984594859E0
1.420072546E1,2.126576784E-1,4.114773948E0,2.195929440E0,4.668907156E0
1.421073646E1,1.344780663E-1,3.106613982E-1,1.401211556E0,1.441523042E0
1.422074646E1,4.827600845E-1,-3.356701734E0,1.166546785E0,3.586270379E0
1.423075646E1,6.777203608E-1,-6.661203035E0,8.415967655E-1,6.748275030E0
1.424076646E1,5.710668914E-1,-9.602696325E0,-2.539678916E-1,9.623013758E0
1.425077746E1,4.352172877E-1,-1.223856384E1,-1.594687736E0,1.234969181E1
1.426078746E1,-2.058366090E-2,-1.442624344E1,-2.898149049E0,1.471448917E1
1.427079746E1,-7.083243951E-1,-1.618961984E1,-3.807564161E0,1.664641279E1
1.428080846E1,-1.427493621E0,-1.727319193E1,-4.147470993E0,1.782140323E1
1.429081846E1,-2.507103346E0,-1.742967512E1,-4.392105632E0,1.814854633E1
1.430082846E1,-2.823375148E0,-1.668070760E1,-4.618239681E0,1.753697782E1
1.431083946E1,-2.230187691E0,-1.557097273E1,-3.782196600E0,1.617819335E1
1.432084946E1,-1.463308402E0,-1.394522341E1,-2.965841095E0,1.433201804E1
1.433085946E1,-5.622258648E-1,-1.231402566E1,-1.870941778E0,1.246802908E1
1.434087046E1,1.431909292E-1,-1.079598206E1,-9.126662365E-1,1.083543686E1
1.435088046E1,4.893026072E-1,-9.670141034E0,-4.613114011E-1,9.693495389E0
1.436089046E1,4.929737450E-1,-8.933408818E0,-4.840971965E-2,8.947131369E0
1.437090046E1,4.878375508E-1,-8.603926987E0,5.313662706E-1,8.634112299E0
1.438091146E1,6.180951333E-1,-8.779977880E0,1.003533064E0,8.858731950E0
1.439092146E1,6.433439952E-1,-9.144352970E0,5.736329786E-1,9.184886365E0
1.440093146E1,5.874227231E-1,-9.591994750E0,-3.137790605E-1,9.615086378E0
1.441094246E1,4.005269632E-1,-1.019018362E1,-1.314009690E0,1.028235798E1
1.442095246E1,-5.928586967E-2,-1.097914609E1,-2.167365206E0,1.119118562E1
1.443096246E1,-7.946500558E-1,-1.124331745E1,-2.589384488E0,1.156497159E1
1.444097346E1,-1.104086170E0,-1.122894382E1,-2.177554564E0,1.149129799E1
1.445098346E1,-1.614549558E0,-1.102126593E1,-1.159837325E0,1.119912030E1
1.446099346E1,-2.144547617E0,-1.054628841E1,-3.573789702E-1,1.076805477E1
1.447100421E1,-2.205875553E0,-1.007956600E1,1.389811532E-1,1.031905293E1
1.448101421E1,-1.573751634E0,-9.311631870E0,6.164529428E-1,9.463783414E0
1.449102421E1,-1.232871972E0,-8.832011667E0,6.320008354E-1,8.940012776E0
1.450103421E1,-1.233281862E0,-8.602178085E0,3.104636161E-1,8.695679365E0
1.451104521E1,-1.196080998E0,-8.148687919E0,1.824383909E-1,8.238022113E0
1.452105521E1,-1.159341773E0,-7.092328770E0,3.115279555E-1,7.193208630E0
1.453106521E1,-1.372845251E0,-5.454985011E0,-1.130396886E-1,5.626219293E0
1.454107621E1,-1.490645304E0,-3.683664000E0,-8.869349062E-1,4.071616069E0
1.455108621E1,-1.926331868E0,-1.008924197E0,-1.183678177E0,2.475838550E0
1.456109621E1,-1.900612890E0,2.203127947E0,-9.714645946E-1,3.067547158E0
1.457110721E1,-9.478152385E-1,5.950615475E0,3.372367010E-2,6.025721164E0
1.458111721E1,5.038800813E-1,9.780722991E0,7.713274129E-1,9.824020732E0
1.459112721E1,1.373008389E0,1.345224232E1,5.015623181E-1,1.353142788E1
1.460113821E1,1.853696293E0,1.772615000E1,5.721722710E-1,1.783199273E1
1.461114821E1,2.885593908E0,2.294094250E1,3.424074815E0,2.337386967E1
1.462115821E1,3.403185052E0,2.752571857E1,8.033781361E0,2.887539600E1
1.463116821E1,2.865808392E0,2.955917669E1,1.300113665E1,3.241893488E1
1.464117921E1,2.624955147E0,2.988713298E1,1.565116495E1,3.383917954E1
1.465118921E1,2.726142091E0,2.970170374E1,1.498030572E1,3.337712712E1
1.466119921E1,3.070380248E0,2.983349530E1,1.130682873E1,3.205166225E1
1.467121021E1,3.799248543E0,2.888031027E1,6.768011785E0,2.990505968E1
1.468122021E1,3.879962923E0,2.588064888E1,4.772407368E0,2.660146558E1
1.469123021E1,3.519594637E0,2.138174269E1,4.954572694E0,2.222868096E1
1.470124121E1,2.921465991E0,1.690773277E1,4.708923271E0,1.779270494E1
1.471125121E1,2.447928501E0,1.279183206E1,3.713842357E0,1.354311436E1
1.472126121E1,1.980281495E0,8.774473895E0,2.591600583E0,9.361052319E0
1.473127221E1,1.423237433E0,4.792976704E0,1.992970684E0,5.382393763E0
1.474128221E1,9.989753788E-1,1.044875218E0,2.104909780E0,2.553499797E0
1.475129221E1,6.645836406E-1,-2.531520442E0,2.384644086E0,3.540733621E0
1.476130221E1,2.678065699E-1,-5.881603128E0,1.984763678E0,6.213232860E0
1.477131321E1,8.714697517E-2,-8.715875439E0,1.165109905E0,8.793836498E0
1.478132321E1,-1.541682726E-1,-1.103766035E1,-1.642775238E-1,1.103995928E1
1.479133321E1,-8.231031919E-1,-1.311713723E1,-1.994912106E0,1.329347442E1
1.480134421E1,-2.142615404E0,-1.496879372E1,-3.570596391E0,1.553720518E1
1.481135421E1,-3.234732032E0,-1.604923287E1,-4.026849366E0,1.685991942E1
1.482136421E1,-4.036808636E0,-1.651837603E1,-3.897239399E0,1.744537319E1
1.483137521E1,-4.286016382E0,-1.640706727E1,-3.283502780E0,1.727261368E1
1.484138521E1,-3.467841516E0,-1.582672293E1,-2.303031135E0,1.636505532E1
1.485139521E1,-1.965200064E0,-1.456612872E1,-1.648173387E0,1.479021949E1
1.486140621E1,-4.436586936E-1,-1.298764830E1,-1.176432892E0,1.304836525E1
1.487141621E1,9.761932379E-1,-1.142511557E1,-5.531197035E-1,1.148007667E1
1.488142621E1,1.432825112E0,-1.055218007E1,1.769425929E-1,1.065048359E1
1.489143721E1,1.366084408E0,-1.042089370E1,8.138786244E-1,1.054151842E1
1.490144721E1,1.261073385E0,-1.073354432E1,1.092491434E0,1.086244988E1
1.491145721E1,9.541159058E-1,-1.142217208E1,8.167683184E-1,1.149101661E1
1.492146721E1,4.784463742E-1,-1.213244857E1,-1.818624401E-1,1.214324064E1
1.493147821E1,-3.016052306E-2,-1.265193977E1,-1.316516976E0,1.272028720E1
1.494148821E1,-7.461216742E-1,-1.307164706E1,-2.008751296E0,1.324612155E1
1.495149821E1,-1.364912041E0,-1.318249623E1,-1.993522223E0,1.340206412E1
1.496150921E1,-1.664199728E0,-1.286976843E1,-1.508010950E0,1.306424882E1
1.497151921E1,-1.644058994E0,-1.242944035E1,-7.434980285E-1,1.255972558E1
1.498152921E1,-1.211403627E0,-1.194626387E1,-3.087365313E-1,1.201149605E1
1.499154021E1,-7.548275936E-1,-1.121389192E1,-3.824846484E-2,1.123933270E1
1.500155021E1,-4.377085670E-1,-1.029381733E1,1.347092506E-1,1.030399974E1
1.501156021E1,-8.144911934E-2,-9.280039948E0,3.140375074E-1,9.285709179E0
1.502157121E1,8.995762210E-2,-8.274316517E0,3.846321114E-1,8.283739980E0
1.503158121E1,-1.708614886E-2,-7.400394589E0,3.082207704E-1,7.406830095E0
1.504159121E1,-1.714848018E-1,-6.435705163E0,-2.718019724E-2,6.438046812E0
1.505160121E1,-7.963168046E-1,-5.027952327E0,-7.119816092E-1,5.140169537E0
1.506161221E1,-1.339495364E0,-3.412076036E0,-1.828590395E0,4.096370777E0
1.507162221E1,-1.455828936E0,-1.101368092E0,-2.827518193E0,3.365606735E0
1.508163221E1,-8.961942646E-1,1.945815375E0,-2.729709477E0,3.469967646E0
1.509164321E1,5.830413678E-1,5.897809271E0,-9.930507606E-1,6.009179748E0
1.510165321E1,1.854870999E0,1.003734208E1,1.329688999E0,1.029353464E1
1.511166321E1,2.285988548E0,1.386996975E1,2.309315430E0,1.424551657E1
1.512167421E1,2.279811257E0,1.780125398E1,2.619635058E0,1.813683187E1
1.513168421E1,2.795834762E0,2.211902746E1,3.594579915E0,2.258293765E1
1.514169421E1,3.132044692E0,2.625210846E1,5.950530691E0,2.709966269E1
1.515170521E1,3.399831381E0,2.840486147E1,8.884862310E0,2.995556354E1
1.516171521E1,3.637869776E0,2.836615992E1,1.069185251E1,3.053176764E1
1.517172521E1,3.963095712E0,2.740741536E1,1.020416782E1,2.951266822E1
1.518173521E1,3.629040481E0,2.654295598E1,8.084473797E0,2.798315857E1
1.519174621E1,2.842060803E0,2.530239434E1,5.063492289E0,2.596011215E1
1.520175621E1,2.146673664E0,2.371520507E1,2.607633063E0,2.395451752E1
1.521176621E1,1.801932355E0,2.157013296E1,1.978749232E0,2.173552494E1
1.522177721E1,1.514789627E0,1.868788483E1,2.563591250E0,1.892362616E1
1.523178721E1,1.220805438E0,1.514048083E1,3.360855596E0,1.555698802E1
1.524179721E1,9.552786246E-1,1.107324650E1,3.689443388E0,1.171073601E1
1.525180821E1,7.252868023E-1,6.785145881E0,3.364208390E0,7.608031523E0
1.526181821E1,4.658216509E-1,2.545006460E0,2.999705830E0,3.961348603E0
1.527182821E1,3.297911489E-1,-1.351234235E0,2.287392172E0,2.677080332E0
1.528183921E1,8.053954840E-2,-4.924922633E0,1.428666573E0,5.128590229E0
1.529184921E1,-4.390783138E-1,-7.968557425E0,5.181702378E-1,7.997449443E0
1.530185921E1,-8.586767748E-1,-1.055382898E1,-6.498560393E-1,1.060862596E1
1.531187021E1,-1.375048190E0,-1.277145802E1,-1.833631865E0,1.297548085E1
1.532188021E1,-1.865251853E0,-1.447293463E1,-2.554601741E0,1.481455336E1
1.533189021E1,-2.164260920E0,-1.562597515E1,-3.113943467E0,1.607954504E1
1.534190021E1,-2.429194753E0,-1.628181055E1,-3.393436282E0,1.680814540E1
1.535191121E1,-2.499014016E0,-1.626133243E1,-3.436870569E0,1.680738180E1
1.536192121E1,-2.238672878E0,-1.543292348E1,-3.081946918E0,1.589607436E1
1.537193121E1,-1.651719723E0,-1.404125341E1,-2.690030272E0,1.439170727E1
1.538194221E1,-9.557106607E-1,-1.257923198E1,-2.015587860E0,1.277548647E1
1.539195221E1,-3.603199735E-1,-1.100508434E1,-6.674397862E-1,1.103119158E1
1.540196221E1,4.787372732E-1,-9.592854876E0,2.955790901E-1,9.609340302E0
1.541197321E1,9.451039577E-1,-8.679011668E0,7.567185831E-1,8.763052438E0
1.542198321E1,9.586819965E-1,-8.378020395E0,9.090420592E-1,8.481547876E0
1.543199321E1,8.197471824E-1,-8.603525868E0,7.453153431E-1,8.674568448E0
1.544200421E1,6.620136432E-1,-9.195346538E0,1.970079346E-1,9.221251116E0
1.545201421E1,2.900476241E-1,-1.005435865E1,-6.048476815E-1,1.007671059E1
1.546202421E1,-9.720586717E-2,-1.095295524E1,-1.194815953E0,1.101836026E1
1.547203517E1,-4.877095333E-1,-1.177830727E1,-1.455174340E0,1.187787503E1
1.548204517E1,-9.015873709E-1,-1.234966678E1,-1.728435777E0,1.250258452E1
1.549205517E1,-1.269063605E0,-1.256662070E1,-1.947621580E0,1.277981644E1
1.550206517E1,-1.328468393E0,-1.259695138E1,-1.816396612E0,1.279637875E1
1.551207617E1,-1.154074017E0,-1.240685489E1,-1.360472251E0,1.253446528E1
1.552208617E1,-8.087520781E-1,-1.161259601E1,-9.788894621E-1,1.168181025E1
1.553209617E1,-7.357362152E-1,-1.067055812E1,-7.604726417E-1,1.072289312E1
1.554210717E1,-7.947702160E-1,-9.611922061E0,-7.850296319E-1,9.676620119E0
1.555211717E1,-8.266407573E-1,-8.435441222E0,-3.621578264E-1,8.483581900E0
1.556212717E1,-4.798511678E-1,-7.019341486E0,5.742322451E-1,7.059118550E0
1.557213817E1,-8.341403961E-1,-5.098066875E0,1.387555530E0,5.348961246E0
1.558214817E1,-1.376288384E0,-3.047848880E0,1.089572357E0,3.517203496E0
1.559215817E1,-1.544108736E0,-6.571346533E-1,-2.285328689E-1,1.693613006E0
1.560216817E1,-1.261264297E0,2.400779039E0,-1.488890555E0,3.093755437E0
1.561217917E1,-5.756449324E-1,5.308033372E0,-2.546743083E0,5.915444675E0
1.562218917E1,4.323606670E-2,8.347114352E0,-2.667302145E0,8.763029618E0
1.563219917E1,3.919154398E-1,1.229992101E1,-1.245551220E0,1.236903603E1
1.564221017E1,8.366737023E-1,1.697597328E1,1.042394683E0,1.702851369E1
1.565222017E1,1.328081015E0,2.185175358E1,3.365152422E0,2.214920279E1
1.566223017E1,1.570327359E0,2.599644480E1,6.435728552E0,2.682721887E1
1.567224117E1,1.465474210E0,2.834702082E1,1.014555066E1,3.014354661E1
1.568225117E1,1.690650485E0,2.891225946E1,1.193202356E1,3.132331771E1
1.569226117E1,2.176235725E0,2.855817313E1,1.073012253E1,3.058497644E1
1.570227217E1,2.219333505E0,2.780130252E1,7.771456556E0,2.895226071E1
1.571228217E1,2.083830714E0,2.645984366E1,5.156795139E0,2.703808819E1
1.572229217E1,1.724939142E0,2.448209781E1,3.738527255E0,2.482589604E1
1.573230317E1,1.136007216E0,2.196164615E1,3.293734531E0,2.223630142E1
1.574231317E1,5.026216143E-1,1.891967898E1,3.515473227E0,1.925007619E1
1.575232317E1,4.972530663E-2,1.537154292E1,3.695499934E0,1.580960227E1
1.576233317E1,-3.833043184E-1,1.142930685E1,3.599678103E0,1.198889735E1
1.577234417E1,-5.988303119E-1,7.023295373E0,3.061481078E0,7.684916527E0
1.578235417E1,-4.830905984E-1,2.619026948E0,2.245560460E0,3.483564332E0
1.579236417E1,-2.465926523E-1,-1.668186067E0,1.345170526E0,2.157112986E0
1.580237517E1,-5.328721114E-2,-5.673393719E0,4.789359324E-1,5.693822568E0
1.581238517E1,-1.419411600E-2,-9.228109072E0,-4.899007773E-1,9.241114721E0
1.582239517E1,-3.483449489E-1,-1.236511863E1,-1.576720996E0,1.247010634E1
1.583240617E1,-8.415113962E-1,-1.486153356E1,-2.627077979E0,1.511538488E1
1.584241617E1,-1.340410746E0,-1.656993093E1,-3.538708016E0,1.699652219E1
1.585242617E1,-1.827234426E0,-1.745111803E1,-4.142880929E0,1.802897025E1
1.586243717E1,-2.219442556E0,-1.766785209E1,-4.334891211E0,1.832676198E1
1.587244717E1,-2.228269220E0,-1.721520743E1,-4.035452959E0,1.782171235E1
1.588245717E1,-1.966741975E0,-1.613276502E1,-3.681385925E0,1.666393662E1
1.589246817E1,-1.496461237E0,-1.475036162E1,-3.336844590E0,1.519694364E1
1.590247817E1,-8.617019049E-1,-1.317490655E1,-2.817987231E0,1.350043498E1
1.591248817E1,-2.459807412E-1,-1.159084320E1,-2.193406366E0,1.179911794E1
1.592249817E1,2.170647249E-1,-1.047126396E1,-1.576559029E0,1.059150718E1
1.593250917E1,6.039284261E-1,-9.785519462E0,-7.576922176E-1,9.833372676E0
1.594251917E1,8.032742603E-1,-9.421339669E0,5.444726218E-1,9.471184779E0
1.595252917E1,7.092832654E-1,-9.384325039E0,1.330062490E0,9.504614954E0
1.596254017E1,4.220760725E-1,-9.262542740E0,8.648220523E-1,9.312398370E0
1.597255017E1,-2.460975393E-1,-9.178416510E0,-1.756396870E-1,9.183394956E0
1.598256017E1,-1.058048629E0,-9.355523409E0,-1.127810224E0,9.482470198E0
1.599257117E1,-1.463053171E0,-9.515749397E0,-1.425368597E0,9.732506707E0
1.600258117E1,-1.570680823E0,-9.579823186E0,-9.599933808E-1,9.755082666E0
1.601259117E1,-1.820460134E0,-9.478881533E0,-5.268680441E-1,9.666481271E0
1.602260217E1,-2.102120512E0,-9.317003707E0,-4.742770171E-1,9.562970637E0
1.603261217E1,-1.918095187E0,-9.020365686E0,-7.721705814E-1,9.254314327E0
1.604262217E1,-1.469798811E0,-8.646826254E0,-8.882318187E-1,8.815717133E0
1.605263317E1,-9.755064824E-1,-8.252844372E0,-8.416248322E-1,8.352807042E0
1.606264317E1,-4.604976880E-1,-8.026699798E0,-6.517655937E-1,8.066273375E0
1.607265317E1,-4.746419565E-1,-7.754271589E0,-8.633386137E-1,7.816608371E0
1.608266317E1,-5.691980848E-1,-7.202743497E0,-1.365957524E0,7.353185725E0
1.609267417E1,-6.619513703E-1,-6.142029342E0,-1.940300427E0,6.475142454E0
1.610268417E1,-5.723381127E-1,-4.251697612E0,-2.720189626E0,5.079757386E0
1.611269417E1,-2.898149049E-1,-1.279312313E0,-3.215757524E0,3.473000018E0
1.612270517E1,1.530507966E-1,2.641619419E0,-2.941870727E0,3.956789239E0
1.613271517E1,5.387363570E-1,7.173061861E0,-1.940949468E0,7.450526033E0
1.614272517E1,8.721264672E-1,1.252045226E1,-3.304315652E-1,1.255513896E1
1.615273617E1,1.383406785E0,1.881742521E1,1.119069075E0,1.890136560E1
1.616274617E1,2.438505859E0,2.461848294E1,2.969130739E0,2.491649555E1
1.617275617E1,3.589654513E0,2.899207395E1,6.457522879E0,2.991864926E1
1.618276717E1,4.632049927E0,3.115314171E1,1.041364783E1,3.317255170E1
1.619277717E1,5.632437481E0,3.062000428E1,1.294712124E1,3.371849585E1
1.620278717E1,5.849918236E0,2.876377293E1,1.177823126E1,3.162756563E1
1.621279717E1,4.439333593E0,2.687458900E1,7.190411135E0,2.817185172E1
1.622280817E1,2.442560903E0,2.491089284E1,3.203038661E0,2.523446339E1
1.623281817E1,1.028740996E0,2.245643286E1,1.948100467E0,2.256423675E1
1.624282817E1,6.346556175E-1,1.952981372E1,2.235126250E0,1.966754181E1
1.625283917E1,8.517375916E-1,1.639128680E1,2.151412833E0,1.655380068E1
1.626284917E1,1.050553083E0,1.335675729E1,1.776485711E0,1.351527020E1
1.627285917E1,8.667728296E-1,1.034111663E1,1.339656748E0,1.046349218E1
1.628287017E1,4.701269558E-1,6.980093805E0,1.417798938E0,7.138128796E0
1.629288017E1,-3.442942902E-2,3.132811847E0,2.123294888E0,3.784716190E0
1.630289017E1,-8.827529776E-1,-8.553915167E-1,2.138465928E0,2.466573330E0
1.631290117E1,-1.099945756E0,-4.694959828E0,1.117650833E0,4.949916346E0
1.632291117E1,-9.492950226E-1,-8.098052201E0,-2.745970877E-1,8.158125646E0
1.633292117E1,-9.784797916E-1,-1.109097877E1,-2.344904215E0,1.137830429E1
1.634293217E1,-1.149809715E0,-1.394037256E1,-4.286307281E0,1.462971222E1
1.635294217E1,-1.644594306E0,-1.560873288E1,-5.557789003E0,1.665011265E1
1.636295217E1,-2.557561017E0,-1.638368542E1,-5.540919201E0,1.748336500E1
1.637296217E1,-2.908462368E0,-1.656164075E1,-5.156889279E0,1.758808133E1
1.638297317E1,-2.684288306E0,-1.567186410E1,-4.151795594E0,1.643320220E1
1.639298317E1,-2.056951649E0,-1.431660698E1,-3.369218284E0,1.485085578E1
1.640299317E1,-1.458163437E0,-1.295986467E1,-2.591712849E0,1.329666531E1
1.641300417E1,-8.653377767E-1,-1.151592984E1,-1.270716906E0,1.161809671E1
1.642301417E1,-5.372160809E-1,-1.040534011E1,-5.675757017E-1,1.043464643E1
1.643302417E1,-3.257758659E-1,-9.544249311E0,-3.895988095E-1,9.557751412E0
1.644303517E1,-2.426699746E-1,-9.156779473E0,-2.667178184E-1,9.163876768E0
1.645304517E1,-4.338303646E-1,-9.309630368E0,-1.662772715E-1,9.321216364E0
1.646305517E1,-6.000547919E-1,-9.738939958E0,-3.602616475E-1,9.764056826E0
1.647306629E1,-6.432370643E-1,-1.018979771E1,-8.685770611E-1,1.024695844E1
1.648307629E1,-7.666170421E-1,-1.063072571E1,-1.317374763E0,1.073943700E1
1.649308629E1,-1.026155357E0,-1.095033452E1,-1.431944522E0,1.109113547E1
1.650309729E1,-1.313468238E0,-1.090163423E1,-9.713125670E-1,1.102335139E1
