"Time (s)","Linear Acceleration x (m/s^2)","Linear Acceleration y (m/s^2)","Linear Acceleration z (m/s^2)","Absolute acceleration (m/s^2)"
2.465054172E-2,1.265176669E0,9.268474156E-1,-9.072826320E-1,1.811871935E0
3.466054169E-2,1.723807414E0,9.561606771E-1,-2.180917883E-1,1.983259758E0
4.466954176E-2,1.700759590E0,9.042403257E-1,1.182485345E0,2.260200288E0
5.467954173E-2,1.250549274E0,9.891015512E-1,2.700186886E0,3.135794091E0
6.468854169E-2,2.397481209E-1,1.457169410E0,3.668368853E0,3.954459748E0
7.469854178E-2,-4.690883441E-1,2.231861165E0,3.726777860E0,4.369224342E0
8.470754174E-2,-2.431049343E-1,2.198557178E0,2.801851255E0,3.569751270E0
9.471754171E-2,2.839649118E-1,7.287630451E-1,1.113437330E0,1.360688919E0
1.047265417E-1,5.186683474E-1,-1.292581984E0,-6.790032399E-1,1.549461338E0
1.147365418E-1,8.445979220E-1,-1.892207517E0,-1.422455075E0,2.513398770E0
1.247455417E-1,1.494006576E0,-1.141474729E0,-9.217012811E-1,2.093932534E0
1.347555417E-1,1.764398931E0,-3.267292544E-1,-6.452344000E-2,1.795555309E0
1.447645418E-1,1.488477741E0,7.701601624E-2,9.342412198E-1,1.759063419E0
1.547745417E-1,1.130144433E0,2.013070634E-1,1.923186650E0,2.239731650E0
1.647835417E-1,5.518929211E-1,2.188563117E-1,2.527413942E0,2.596209760E0
1.747935418E-1,-1.213629077E-1,2.651805854E-1,2.229348616E0,2.248342712E0
1.848025417E-1,-3.056452180E-1,1.567448482E-1,1.386318698E0,1.428239293E0
1.948125417E-1,-3.850213167E-1,-3.413358915E-1,1.601318479E-1,5.388820036E-1
2.048215417E-1,-2.924840127E-1,-9.807493883E-1,-6.881015074E-1,1.233247722E0
2.148315418E-1,1.046967169E-1,-1.889429797E0,-6.222180051E-1,1.991999399E0
2.248405417E-1,4.388914222E-1,-2.538866006E0,-1.059158796E-1,2.578698209E0
2.348505417E-1,9.802447736E-1,-2.422721592E0,4.383300894E-1,2.650017547E0
2.448595418E-1,1.646798560E0,-1.855151080E0,4.688010997E-1,2.524540651E0
2.548695417E-1,1.663505517E0,-1.194942546E0,3.516725993E-1,2.078175140E0
2.648785417E-1,8.472067304E-1,-4.846692735E-1,5.278486222E-1,1.109634046E0
2.748885417E-1,-6.188792449E-1,1.295234281E-1,6.359221244E-1,8.967635065E-1
2.848975417E-1,-1.599186291E0,2.585285005E-1,9.477944809E-1,1.876845268E0
2.949075417E-1,-1.329583749E0,-3.232030910E-1,1.407598470E0,1.963055434E0
3.049165417E-1,-6.068652633E-1,-3.583974820E-1,1.489983400E0,1.648267191E0
3.149265418E-1,3.412185086E-1,-5.725687122E-1,8.086360109E-1,1.047929959E0
3.249355417E-1,1.488314750E0,-7.062489259E-1,1.534484804E-1,1.654513456E0
3.349455417E-1,1.457601081E0,-8.220723277E-1,-6.091518170E-1,1.780862083E0
3.449545418E-1,8.683797906E-1,-7.502740744E-1,-1.502291204E0,1.890469124E0
3.549645417E-1,-1.911318849E-1,-6.293966317E-1,-1.873421583E0,1.985542733E0
3.649735417E-1,-1.043745389E0,-5.556737673E-1,-1.855481156E0,2.200224555E0
3.749835417E-1,-9.293558711E-1,-6.949620456E-1,-2.072908115E0,2.375630997E0
3.849925417E-1,-2.307502793E-1,-1.198759023E0,-1.332320246E0,1.807026875E0
3.950025417E-1,4.822768852E-2,-1.983250419E0,-5.827300036E-1,2.067651419E0
4.050115417E-1,9.370323882E-2,-2.484538064E0,-1.920805664E0,3.141847241E0
4.150215418E-1,5.003492035E-1,-1.979017912E0,-1.730317996E0,2.675978623E0
4.250305417E-1,7.778925204E-1,-1.870779226E0,-1.904469128E0,2.780635601E0
4.350405417E-1,4.518146458E-1,-1.551631471E0,-1.805540671E0,2.423153691E0
4.450495418E-1,2.158718929E-1,-7.638042390E-1,-1.226189189E0,1.460663382E0
4.550585417E-1,-5.766757965E-1,-6.341127035E-1,-1.283163289E0,1.543101397E0
4.650685417E-1,-8.561316280E-1,-6.024564627E-1,-2.141408247E0,2.383599050E0
4.750775418E-1,1.311648731E0,-1.778024259E-1,-3.210138350E0,3.472322612E0
4.850875417E-1,3.105488977E0,-6.108744067E-1,-3.479235985E0,4.703436230E0
4.950965417E-1,2.240312145E0,-1.497481869E0,-3.463224555E0,4.388094663E0
5.051065417E-1,1.370877956E0,-1.373368869E0,-2.719554618E0,3.340872003E0
5.151155418E-1,8.141841415E-1,-7.986144680E-1,-1.567197636E0,1.938243874E0
5.251255417E-1,-4.761387706E-3,-1.778702536E-1,-1.605084670E0,1.614917118E0
5.351345417E-1,-6.724967507E-1,8.019807100E-2,-1.880128924E0,1.998391448E0
5.451445418E-1,-1.034764066E0,-1.907972780E-1,-1.345173596E0,1.707815059E0
5.551535417E-1,2.732757631E-1,-1.003411734E0,-2.616969312E0,2.816033227E0
5.651635417E-1,5.694673491E-1,-2.062226714E0,-4.219135053E0,4.730557332E0
5.751725418E-1,1.494717598E0,-2.665152124E0,-4.321287079E0,5.292517224E0
5.851825417E-1,1.663039348E0,-3.124040731E0,-5.076421067E0,6.188326204E0
5.951915417E-1,1.088596603E0,-3.086925530E0,-5.308829763E0,6.236812106E0
6.052015417E-1,4.994656527E-1,-3.515731966E0,-4.782188591E0,5.956438946E0
6.152105418E-1,1.112257654E0,-4.113974341E0,-3.948274482E0,5.809541578E0
6.252205417E-1,1.557453836E0,-4.238149613E0,-3.153436146E0,5.507425362E0
6.352295417E-1,1.754257082E0,-4.481706610E0,-2.629467151E0,5.484269281E0
6.452395418E-1,1.215193500E0,-4.111547746E0,-3.074007568E0,5.275513496E0
6.552485417E-1,1.808569529E0,-3.739416909E0,-3.129406428E0,5.200706409E0
6.652585417E-1,8.336942536E-1,-4.320260601E0,-1.721402746E0,4.724714296E0
6.752675418E-1,-5.793620074E-1,-3.092357885E0,-9.365497005E-1,3.282600032E0
6.852775418E-1,-1.221295069E0,-3.174066877E0,-2.471016378E0,4.203829697E0
6.952865417E-1,-1.806590831E0,-3.472088934E0,-1.259931716E0,4.111763603E0
7.052965417E-1,-2.150418806E0,-3.787426935E0,5.118816304E-1,4.385308043E0
7.153055418E-1,-1.986756409E0,-4.432800499E0,1.416827130E0,5.060071186E0
7.253155417E-1,-1.779163297E0,-4.434002101E0,1.684527281E0,5.065908490E0
7.353245417E-1,-1.492778953E0,-4.731874177E0,1.876444008E0,5.304720949E0
7.453345418E-1,-2.073314497E0,-4.565020955E0,2.089273887E0,5.431676969E0
7.553435417E-1,-2.351196989E0,-3.691555987E0,1.277573351E0,4.559375676E0
7.653535417E-1,-2.729781398E0,-3.680263259E0,9.031164908E-1,4.670295872E0
7.753625417E-1,-3.105608845E0,-3.531056934E0,1.055391435E0,4.819441923E0
7.853715417E-1,-3.557528449E0,-3.442392095E0,1.415097232E0,5.148647606E0
7.953815417E-1,-3.511483964E0,-3.478012748E0,1.956729203E0,5.315626161E0
8.053905417E-1,-3.083325107E0,-3.514270747E0,1.919477030E0,5.053848501E0
8.154005418E-1,-2.858985568E0,-3.165900071E0,1.252324489E0,4.445788835E0
8.254095417E-1,-2.686793253E0,-2.685913540E0,5.295741355E-1,3.835809992E0
8.354195417E-1,-3.372495648E0,-2.570650594E0,4.760997404E-1,4.267158579E0
8.454285418E-1,-4.262634244E0,-1.841972041E0,5.323422074E-1,4.674002559E0
8.554385417E-1,-4.589632763E0,-1.205019637E0,-5.167248791E-1,4.773238505E0
8.654475417E-1,-4.664145586E0,-1.248522337E0,-1.432374877E0,5.036343898E0
8.754575417E-1,-4.271724910E0,-1.331147295E0,-1.514548137E0,4.723710712E0
8.854665417E-1,-4.282559801E0,-1.425731709E0,-1.026747534E0,4.628956670E0
8.954765417E-1,-4.460758960E0,-1.309368609E0,-6.090072446E-1,4.688678543E0
9.054855417E-1,-4.295269893E0,-1.092220708E0,-3.959406996E-1,4.449613306E0
9.154955418E-1,-4.289579383E0,-9.798281595E-1,-6.096147703E-1,4.442092376E0
9.255045417E-1,-4.448459342E0,-2.079259653E-1,-1.552729286E0,4.716247657E0
9.355145417E-1,-8.007360717E0,2.261122386E0,-4.116494783E0,9.283104513E0
9.455235418E-1,-8.738798863E0,5.040434378E0,-6.389839604E0,1.194163450E1
9.555335417E-1,-3.649215129E0,8.191156831E-1,-4.234366465E0,5.649564666E0
9.655425417E-1,-4.116507647E0,-7.132404417E-2,-3.367027917E0,5.318608777E0
9.755525417E-1,-8.262546072E0,5.439712669E0,-1.849481328E0,1.006383241E1
9.855615417E-1,-3.331162850E0,8.703811464E-1,1.766518693E0,3.869728358E0
9.955715417E-1,-2.709455892E0,2.610047963E-1,3.455144287E0,4.398556215E0
1.005580542E0,-6.014294577E0,3.765501923E0,1.149122887E0,7.188270126E0
1.015589542E0,-4.543695867E0,3.147640970E0,1.913992488E-1,5.530772955E0
1.025599542E0,-3.950581208E0,2.489654378E0,1.465035084E0,4.894057479E0
1.035608542E0,-2.450202044E0,2.191837266E0,3.139937264E0,4.546080364E0
1.045618542E0,4.223186588E-1,-2.312506548E-1,4.550912501E0,4.576312326E0
1.055627542E0,2.288187393E0,-1.723379690E0,6.069717996E0,6.711729706E0
1.065637542E0,1.653269235E0,-1.049084336E0,6.811850114E0,7.087677976E0
1.075646542E0,5.644358200E-1,-9.990698844E-2,5.924887142E0,5.952550448E0
1.085656542E0,-1.537151719E0,1.980812422E0,3.277997627E0,4.126950654E0
1.095665542E0,-1.568507997E0,2.962359663E0,1.874671717E0,3.840597110E0
1.105675542E0,2.475138080E-1,1.702391694E0,3.937398807E-1,1.764775243E0
1.115684542E0,1.402904910E-1,2.826724725E0,-2.795478374E0,3.978033866E0
1.125694542E0,-9.662061936E-1,3.775260049E0,-2.399739404E0,4.576558975E0
1.135703542E0,-2.398070608E0,4.946854370E0,-6.802083510E-1,5.539385724E0
1.145713542E0,-4.328249359E0,6.268429188E0,-7.297464737E-1,7.652416410E0
1.155722542E0,-7.758347683E0,7.437789288E0,-8.261414051E-1,1.077938671E1
1.165732542E0,-7.293295818E0,7.854850130E0,-5.310839597E-1,1.073186305E1
1.175741542E0,-2.942895452E0,6.786250420E0,-1.566587187E0,7.560953896E0
1.185751542E0,-5.919329363E-1,6.818713576E0,-5.346226215E0,8.684893447E0
1.195760542E0,-2.689362520E-1,6.928196257E0,-6.662888787E0,9.615940780E0
1.205769542E0,-1.338738735E0,7.453295519E0,-5.542089229E0,9.383953778E0
1.215779542E0,-3.279268227E0,8.036380448E0,-4.014538053E0,9.563133722E0
1.225788542E0,-3.926230479E0,7.937775342E0,-3.622317937E0,9.567902090E0
1.235798542E0,-3.963367315E0,6.731984165E0,-3.384525125E0,8.513689071E0
1.245807542E0,-3.997035583E0,4.773500798E0,-3.300487772E0,7.046688786E0
1.255817542E0,-2.902027507E0,3.287004678E0,-3.919393330E0,5.881139981E0
1.265826542E0,-1.948844233E0,2.950619331E0,-3.104613065E0,4.705610541E0
1.275836542E0,-1.835967827E0,3.155612772E0,-2.324290587E0,4.327932135E0
1.285845542E0,-2.168418875E0,2.103265982E0,-8.642372576E-1,3.142081196E0
1.295855542E0,-3.585714952E0,1.058839538E0,1.185002571E0,3.922081587E0
1.305864542E0,-4.667042297E0,3.376079991E-1,2.549248030E0,5.328595357E0
1.315874542E0,-4.534133331E0,-7.995681489E-1,2.700648816E0,5.337712835E0
1.325883542E0,-3.148224522E0,-2.282683409E0,2.746558814E0,4.760834644E0
1.335893542E0,-2.159532276E0,-2.978172289E0,-3.641762853E-2,3.678915068E0
1.345902542E0,-1.393559890E0,-2.608097624E0,-2.237762175E0,3.708336815E0
1.355912542E0,-2.508294132E0,-9.327949110E-1,2.597218076E-2,2.676251175E0
1.365921542E0,-4.242452579E0,7.307171845E-1,2.785852103E0,5.127701574E0
1.375930542E0,-4.816558524E0,4.656041345E-1,1.804834328E0,5.164634564E0
1.385940542E0,-1.887703407E0,-1.061792382E0,1.696138097E0,2.750947411E0
1.395949542E0,6.847165543E-1,-2.733434739E0,2.403543602E0,3.703717602E0
1.405959542E0,2.784341183E0,-6.344168172E0,3.355988374E0,7.698290952E0
1.415968542E0,1.685429506E0,-4.293306983E0,3.979993873E0,6.092085743E0
1.425978542E0,1.159437375E0,-2.753750889E0,1.319675642E0,3.266340887E0
1.435987542E0,5.847630805E-1,-1.793916991E-1,1.465058473E0,1.587616318E0
1.445997542E0,1.315883138E0,-1.430065227E-1,9.787291753E-1,1.646180457E0
1.456006542E0,2.966583692E0,-2.777563675E0,-2.730322266E-1,4.073085485E0
1.466016542E0,3.073613466E0,-1.608417583E0,1.972371089E0,3.990533119E0
1.476025542E0,3.701056543E0,-1.881272639E0,1.446898191E0,4.396648798E0
1.486035542E0,3.837545174E0,-3.113519251E0,3.373223627E0,5.983259373E0
1.496044542E0,3.387404879E0,-3.846123040E0,3.188904186E0,6.036247523E0
1.506053542E0,2.657907423E0,-2.462779990E0,8.116941047E-1,3.713301021E0
1.516063542E0,1.643395042E0,-7.631756634E-2,-4.348457336E-2,1.645740728E0
1.526072542E0,-9.236612678E-1,2.224175877E0,-1.627648491E0,2.906776234E0
1.536082542E0,-2.537526117E0,1.809576712E0,-2.856447877E0,4.227635408E0
1.546091542E0,3.116150790E-1,-3.931335975E0,-2.565703264E0,4.704820905E0
1.556101542E0,8.131945002E-1,-6.504872462E0,-1.065252180E0,6.641491794E0
1.566110542E0,5.533109075E-1,-2.284548378E0,2.124246669E0,3.168238969E0
1.576120542E0,1.248698046E0,-2.899559690E0,3.207915823E0,4.500824051E0
1.586129542E0,2.099869042E0,-4.728826901E0,2.467382333E0,5.732297046E0
1.596139542E0,2.719072807E0,-3.661936916E0,2.758435094E0,5.330300468E0
1.606148542E0,3.157211693E0,-3.234801906E0,-1.504685200E0,4.764032598E0
1.616158542E0,6.965583939E0,-3.367059200E0,-8.481315553E0,1.147994603E1
1.626167542E0,8.100944819E0,-2.169163518E0,-7.180037590E0,1.104008683E1
1.636177542E0,5.638770601E0,4.615647317E-1,-1.584464318E0,5.875313018E0
1.646186542E0,4.248379317E0,2.232488132E0,3.037120116E0,5.679509546E0
1.656195542E0,3.473027412E0,1.874429643E0,4.395142091E0,5.907002614E0
1.666205542E0,1.659300638E0,1.708348837E0,6.108948720E0,6.556751392E0
1.676214542E0,3.343633207E0,1.120640661E0,4.565882834E0,5.769142447E0
1.686224542E0,2.977689893E0,-5.797683158E-1,9.649822251E-1,3.183387990E0
1.696233542E0,2.082056084E0,-4.585371166E-1,-7.538647033E-1,2.261310641E0
1.706243542E0,4.632088226E0,7.489116731E-1,-6.622538906E-1,4.738743530E0
1.716252542E0,5.885484509E0,-4.175148788E-1,-3.920224804E0,7.083883758E0
1.726262542E0,5.752581391E0,1.014898297E-1,-4.166020700E0,7.103395055E0
1.736271542E0,4.403743930E0,4.434988819E-1,-2.132385554E0,4.912913597E0
1.746281542E0,3.854723125E0,-7.021099743E-1,-1.411738883E0,4.164715531E0
1.756290542E0,2.697031728E0,-7.478778854E-1,-1.120925420E0,3.014925417E0
1.766300542E0,2.629186485E0,1.416619554E-1,-1.460920984E-1,2.637049977E0
1.776309542E0,2.499567162E0,-5.108270851E-1,-1.374329713E0,2.897854805E0
1.786319542E0,2.756941130E0,9.006486735E-1,-3.934544635E0,4.887998968E0
1.796328542E0,1.269762055E0,2.588789826E0,-4.482732504E0,5.330011177E0
1.806337667E0,-9.084731251E-1,2.397513369E0,6.242475736E-1,2.638764636E0
1.816347667E0,-9.030545104E-1,2.085114178E0,2.439700445E0,3.333968633E0
1.826356667E0,-7.373537743E-1,1.096393865E0,2.795055621E0,3.091618673E0
1.836366667E0,-4.270087105E0,3.431304020E-1,6.601543894E0,7.869673700E0
1.846375667E0,-8.830459231E0,9.813732862E-1,9.014206814E0,1.265685697E1
1.856385667E0,-1.032722365E1,-4.858258528E-1,5.334561020E0,1.163379200E1
1.866394667E0,-1.041865539E1,1.162321222E-1,-2.355459609E0,1.068223198E1
1.876404667E0,-9.594412574E0,1.633851217E0,-8.403515425E0,1.285851056E1
1.886413667E0,-7.080633754E0,1.737886047E0,-1.298294713E1,1.489001473E1
1.896423667E0,-5.533960429E0,3.050422239E-1,-1.687774825E1,1.776446325E1
1.906432667E0,-5.017836644E0,-1.434335448E0,-1.623800087E1,1.705604512E1
1.916442667E0,-4.465971168E0,-2.721593542E0,-1.123301699E1,1.239082889E1
1.926451667E0,-2.648228527E0,-3.455602709E0,-6.163745316E0,7.546261375E0
1.936460667E0,-2.197409955E-1,-3.503220679E0,-3.352106992E0,4.853603045E0
1.946470667E0,-1.450726948E0,-2.682320718E0,-7.845887518E-1,3.148814479E0
1.956479667E0,-3.012997136E0,-2.707385393E0,-2.363444567E-2,4.050758693E0
1.966489667E0,-2.442650950E0,-3.510855389E0,-4.625545192E-1,4.301930486E0
1.976498667E0,-2.373981542E0,-5.032667522E0,2.686165555E-1,5.570968103E0
1.986508667E0,-4.279425108E-1,-4.056519892E0,7.941666372E-1,4.155621383E0
1.996517667E0,7.877515107E-1,-3.259487681E0,2.048153343E0,3.929344029E0
2.006527667E0,-1.411979496E0,-3.317321906E0,4.778504845E0,5.986018650E0
2.016536667E0,-1.040821197E0,-3.844299878E0,5.179360714E0,6.533584600E0
2.026545667E0,-2.319539579E0,-3.089963450E0,3.183082699E0,5.006011731E0
2.036555667E0,-3.787024646E0,-3.364746918E0,1.224719784E0,5.211815043E0
2.046564667E0,-2.416599850E0,-4.757787575E0,1.105100369E-1,5.337481608E0
2.056574667E0,-2.297656666E0,-6.256221955E0,-8.674198240E-2,6.665362967E0
2.066583667E0,-2.873096946E0,-8.115466379E0,4.091542375E-1,8.618752102E0
2.076593667E0,-3.490804701E0,-8.476919616E0,2.695686284E-1,9.171507558E0
2.086602667E0,-4.863211996E0,-7.732971352E0,1.609179768E0,9.275728347E0
2.096612667E0,-3.883680583E0,-8.059720194E0,5.181020154E0,1.033852186E1
2.106621667E0,-1.965812268E0,-7.012056440E0,3.527349799E0,8.091696360E0
2.116631667E0,-2.001813428E0,-5.704716668E0,9.646417710E-1,6.122220431E0
2.126640667E0,-1.158272610E0,-3.572072813E0,-9.430529737E-1,3.871775888E0
2.136650667E0,1.601147009E0,-1.876204273E0,-7.715263644E-1,2.584389125E0
2.146659667E0,3.835372349E0,-1.359666504E0,5.322930908E-1,4.103913985E0
2.156668667E0,4.898061402E0,-3.237989223E-1,1.575849469E0,5.155497336E0
2.166678667E0,5.063996319E0,2.927887988E-1,3.139415692E0,5.965376340E0
2.176687667E0,3.645988635E0,5.751736468E-1,4.025415044E0,5.461503834E0
2.186697667E0,1.992620143E0,6.229500765E-1,4.724449967E0,5.165174666E0
2.196706667E0,1.482464173E0,3.117244220E-1,5.431132464E0,5.638445884E0
2.206716667E0,2.291064515E0,6.429762053E-1,5.215453822E0,5.732656765E0
2.216725667E0,3.695175413E0,1.642260683E0,5.060383324E0,6.477562881E0
2.226735667E0,5.132897569E0,3.887346495E0,4.679589837E0,7.959689772E0
2.236744667E0,5.561385040E0,5.995467712E0,4.209749687E0,9.197642583E0
2.246754667E0,5.553756763E0,7.404382390E0,4.209620171E0,1.016808707E1
2.256763667E0,5.907136749E0,8.317621581E0,4.654661402E0,1.121351712E1
2.266772667E0,6.253027622E0,8.936345290E0,4.987020648E0,1.199287274E1
2.276782667E0,6.192662137E0,8.334983718E0,4.866237638E0,1.146740104E1
2.286791667E0,4.760077929E0,8.299923229E0,4.988397667E0,1.079032802E1
2.296801667E0,3.107629643E0,8.144141124E0,3.982255283E0,9.583462516E0
2.306810667E0,2.453001691E0,8.317058494E0,3.038625482E0,9.188249241E0
2.316820667E0,1.926580228E0,8.680433711E0,2.664894554E0,9.282419069E0
2.326829667E0,1.505287171E0,8.218889591E0,1.919988516E0,8.573353572E0
2.336839667E0,8.058691084E-1,6.619981334E0,-8.250655174E-2,6.669361680E0
2.346848667E0,3.658313397E-1,4.813152521E0,-3.765880530E0,6.122264771E0
2.356858667E0,-7.368745950E-1,2.079431269E0,-1.187000682E1,1.207327961E1
2.366867667E0,-6.018770621E0,-5.690157101E0,-3.352190490E1,3.453001008E1
2.376876667E0,-6.268475965E0,-7.667139305E0,-1.995278609E1,2.227537854E1
2.386886667E0,-5.200201360E0,-6.706575674E0,-3.013638575E0,9.005679815E0
2.396895667E0,-6.603144277E0,-7.814410202E0,1.022223104E0,1.028160791E1
2.406905667E0,-6.995019992E0,-6.377969756E0,2.922533108E0,9.907068318E0
2.416914667E0,-5.608591366E0,-3.771326627E0,7.092766142E-1,6.795754186E0
2.426924667E0,-4.712200928E-1,-1.981855273E-1,7.942632625E-1,9.445528091E-1
2.436933667E0,3.752995605E0,1.435951619E0,5.811530095E0,7.065466376E0
2.446943667E0,5.539221754E0,4.848961455E-1,1.112232569E1,1.243479918E1
2.456952667E0,4.740684762E0,-1.956353812E0,1.068757819E1,1.185435531E1
2.466961667E0,1.721910285E0,-7.616501833E0,-3.608799759E0,8.602296838E0
2.476971667E0,-6.907721647E0,-1.380934114E1,-2.127857441E1,2.629053537E1
2.486980667E0,-7.392381565E0,-1.037575086E1,3.394961236E0,1.318443298E1
2.496990667E0,9.806534940E-1,-6.204527891E0,1.924093203E1,2.024033875E1
2.506999667E0,7.120231683E0,-3.227199356E0,1.208716773E1,1.439486501E1
2.517009667E0,1.081483115E1,5.004742974E-1,2.410000244E0,1.109139975E1
2.527018667E0,1.214750398E1,3.557834843E0,-3.304714140E0,1.308209376E1
2.537028667E0,8.590465527E0,3.655435397E0,3.431698122E0,9.946600320E0
2.547037667E0,5.165199927E0,1.378917877E0,7.697793918E0,9.372125479E0
2.557046667E0,2.848574308E0,-7.360030675E-1,7.769156846E0,8.307579323E0
2.567056667E0,1.656726694E0,-2.180487528E0,5.821127715E0,6.433101668E0
2.577065667E0,1.018687585E0,-2.679487742E0,4.001225113E0,4.922111474E0
2.587075667E0,4.410730183E-1,-2.841487191E0,3.732142096E0,4.711420113E0
2.597084667E0,-3.976746914E-1,-3.565063171E0,2.724770919E0,4.504686130E0
2.607094667E0,-1.704872668E0,-5.737116675E0,-7.265750170E-3,5.985077388E0
2.617103667E0,1.007232597E-1,-4.136698083E0,1.113511589E0,4.285128267E0
2.627113667E0,1.993114672E0,-1.491461576E0,3.204118642E0,4.057504158E0
2.637122667E0,2.054760405E0,-5.953208131E-1,3.431915054E0,4.044068264E0
2.647131667E0,1.634435354E0,-5.549411112E-1,2.921675906E0,3.393453796E0
2.657141667E0,1.197250149E0,-5.511912918E-1,1.515343359E0,2.008353867E0
2.667150667E0,6.570425597E-1,-2.199114418E-1,-4.137864748E-1,8.070224373E-1
2.677160667E0,-2.029089081E-1,4.214076626E-1,-5.362212503E-1,7.115403519E-1
2.687169667E0,-9.269903800E-1,7.714021111E-1,6.406092525E-1,1.365559444E0
2.697179667E0,-9.644391650E-1,1.037092574E0,9.585938497E-1,1.710147970E0
2.707188667E0,-7.935048786E-1,1.303198189E0,7.495364481E-1,1.699935410E0
2.717198667E0,-6.357233191E-1,1.598240504E0,7.441480927E-1,1.874105982E0
2.727207667E0,-3.552680522E-1,1.844220003E0,4.093413484E-1,1.922218288E0
2.737217667E0,1.702279428E-1,1.953517327E0,-4.366284035E-1,2.008942972E0
2.747226667E0,2.653092241E-1,1.936444627E0,-5.616168773E-1,2.033622456E0
2.757235667E0,-1.987994850E-1,1.763814356E0,-2.913264102E-1,1.798731051E0
2.767245667E0,-5.868667625E-1,1.542973207E0,-6.005204496E-1,1.756645589E0
2.777254667E0,-1.001495894E0,1.415346615E0,-1.287537006E0,2.159618394E0
2.787264667E0,-1.210765696E0,1.067586973E0,-2.081309980E0,2.633922312E0
2.797273667E0,-6.416962498E-1,7.484178758E-1,-2.037816635E0,2.263757945E0
2.807283792E0,6.435884088E-3,4.530405146E-1,-1.215613038E0,1.297305741E0
2.817292792E0,-1.777628110E-1,1.041704857E-1,-4.623829034E-1,5.062104863E-1
2.827301792E0,-6.844772570E-1,-4.217783761E-1,-9.893518120E-2,8.100581979E-1
2.837311792E0,-1.092841389E0,-1.099983471E0,-4.861848718E-1,1.625005129E0
2.847320792E0,-1.472084780E0,-1.430747597E0,-1.431244025E0,2.502505094E0
2.857330792E0,-1.531087425E0,-1.052454379E0,-2.671888993E0,3.254363181E0
2.867339792E0,-1.623710683E0,-3.419393241E-2,-3.925460985E0,4.248158372E0
2.877349792E0,-1.896575241E0,8.701604140E-1,-5.099992948E0,5.510363405E0
2.887358792E0,-1.957437008E0,8.231581557E-1,-5.616069371E0,6.004113937E0
2.897368792E0,-2.127208576E0,7.573430657E-2,-4.730260053E0,5.187110196E0
2.907377792E0,-2.483015449E0,-6.521294367E-1,-3.297207777E0,4.178781837E0
2.917386792E0,-2.819092355E0,-1.428585296E0,-2.289139904E0,3.902345340E0
2.927396792E0,-3.465221964E0,-1.918786036E0,-1.715495889E0,4.316529770E0
2.937405792E0,-4.313236925E0,-1.654770216E0,-1.612239908E0,4.893014895E0
2.947415792E0,-4.601838533E0,-1.408158048E0,-2.298658002E0,5.333259377E0
2.957424792E0,-4.527056445E0,-1.688708040E0,-3.344252720E0,5.876223375E0
2.967434792E0,-4.479943967E0,-1.975699325E0,-4.111120023E0,6.393324144E0
2.977443792E0,-4.185822880E0,-2.053738019E0,-4.739095781E0,6.648156275E0
2.987453792E0,-3.711107322E0,-2.127270849E0,-5.022159491E0,6.596945109E0
2.997462792E0,-3.275370180E0,-2.217973443E0,-4.911928366E0,6.306702489E0
3.007471792E0,-3.663673539E0,-2.689599917E0,-4.870612232E0,6.661780170E0
3.017481792E0,-4.407503105E0,-3.059716973E0,-5.260682620E0,7.514168830E0
3.027490792E0,-4.784052098E0,-2.549364974E0,-5.650973155E0,7.830703279E0
3.037500792E0,-4.588206627E0,-1.732176826E0,-5.229926265E0,7.169672611E0
3.047509792E0,-4.099363318E0,-1.189714258E0,-4.607293693E0,6.280712922E0
3.057519792E0,-3.833194261E0,-9.702197224E-1,-4.463696017E0,5.963160796E0
3.067528792E0,-3.558963940E0,-1.846940712E0,-4.846777520E0,6.290362998E0
3.077538792E0,-3.074094107E0,-3.202435228E0,-3.989556409E0,5.968434159E0
3.087547792E0,-2.192493177E0,-4.855948877E0,-2.211320481E0,5.768639710E0
3.097556792E0,-1.090314808E0,-6.740330481E0,4.058540690E-1,6.839996995E0
3.107566792E0,-3.879822005E-1,-8.063048429E0,4.094575911E0,9.051454693E0
3.117575792E0,-6.501855299E-2,-8.090146181E0,7.411703689E0,1.097214857E1
3.127585792E0,-8.725244433E-2,-7.231980160E0,9.185560638E0,1.169117934E1
3.137594792E0,-1.219539151E-1,-5.889972247E0,8.986786880E0,1.074564955E1
3.147604792E0,1.034475068E0,-4.021886834E0,6.176299288E0,7.442606080E0
3.157613792E0,2.330752492E0,-1.815856329E0,1.633886300E0,3.376288766E0
3.167622792E0,1.952977922E0,-7.456883955E-1,3.679068089E-1,2.122623227E0
3.177632792E0,1.045207340E0,-1.448384553E0,1.426913577E0,2.286123040E0
3.187641792E0,1.174462380E0,-2.360200531E0,2.534746935E0,3.657164265E0
3.197651792E0,1.647087851E0,-2.763236243E0,2.853271669E0,4.299945597E0
3.207660792E0,1.627886472E0,-2.592409837E0,2.971149198E0,4.265950151E0
3.217670792E0,1.082418143E0,-2.341704619E0,3.304153976E0,4.191973647E0
3.227679792E0,9.176433134E-1,-1.804558924E0,3.552115974E0,4.088524190E0
3.237688792E0,1.027200839E0,-1.096232482E0,3.618084845E0,3.917576440E0
3.247698792E0,1.319753410E0,-3.901461089E-1,3.817955832E0,4.058417153E0
3.257707792E0,1.847112036E0,2.653384602E-1,4.250851227E0,4.642409237E0
3.267717792E0,2.458663550E0,9.422016191E-1,4.819712220E0,5.492030246E0
3.277726792E0,3.113391782E0,1.824712522E0,4.829082091E0,6.028500478E0
3.287736792E0,3.436603936E0,2.658880400E0,4.580409365E0,6.313480937E0
3.297745792E0,3.478864687E0,3.179267390E0,4.359342805E0,6.419821676E0
3.307754792E0,3.991996160E0,3.286533977E0,4.186366087E0,6.653044411E0
3.317764792E0,4.624358792E0,3.109223009E0,4.220966985E0,6.990602567E0
3.327773792E0,5.076745588E0,3.129585938E0,4.063381892E0,7.216559174E0
3.337783792E0,5.369110463E0,3.409238382E0,3.802882588E0,7.410274589E0
3.347792792E0,5.681105611E0,3.860528240E0,3.561051396E0,7.736906766E0
3.357802792E0,5.972672342E0,4.274414045E0,3.493440334E0,8.133114760E0
3.367811792E0,6.229058715E0,4.454521151E0,3.550993308E0,8.441177917E0
3.377821792E0,6.394229693E0,4.425389737E0,3.483740388E0,8.520956213E0
3.387830792E0,6.279497967E0,4.364319663E0,3.174667386E0,8.279969435E0
3.397839792E0,6.002607747E0,4.422207098E0,2.755978386E0,7.948750358E0
3.407849792E0,5.671178209E0,4.595222701E0,2.236558525E0,7.634168454E0
3.417858792E0,5.447775979E0,4.600413274E0,9.635458566E-1,7.195171022E0
3.427868792E0,4.826481542E0,3.997778764E0,-7.654085688E-1,6.313715973E0
3.437877792E0,3.137382615E0,2.353482081E0,-2.840821778E0,4.842759126E0
3.447887792E0,3.392648077E-1,3.671525180E-2,-5.688601742E0,5.698827809E0
3.457896792E0,-3.996455831E0,-2.515137713E0,-9.899849485E0,1.096834521E1
3.467905792E0,-1.023249057E1,-5.375138358E0,-1.413032287E1,1.825546494E1
3.477915792E0,-1.490421941E1,-8.737659241E0,-1.409859939E1,2.229916926E1
3.487924792E0,-1.650134777E1,-1.034991903E1,-8.967084103E0,2.144350483E1
3.497934792E0,-1.624345399E1,-7.553838977E0,-4.238747199E0,1.840861914E1
3.507943792E0,-1.149308126E1,-7.155185169E-1,-2.875089970E0,1.186882581E1
3.517953792E0,-6.761026701E0,4.971921968E0,-1.705586028E0,8.563907625E0
3.527962792E0,-3.021939867E0,7.113934232E0,4.221875350E-1,7.740699137E0
3.537971792E0,5.439541930E-1,7.910499836E0,2.924210674E0,8.451207126E0
3.547981792E0,4.048033243E0,7.301126994E0,6.311891541E0,1.046580161E1
3.557990792E0,7.667393074E0,3.581561674E0,1.029207253E1,1.332453592E1
3.568000792E0,8.907665282E0,-8.377715170E-1,1.141429003E1,1.450290932E1
3.578009792E0,7.638124251E0,-4.788348048E0,6.251161190E0,1.097024318E1
3.588019792E0,3.375887618E0,-1.104185397E1,-6.645787436E0,1.332237392E1
3.598028792E0,-8.324248230E0,-1.842051154E1,-2.066719890E1,2.890919342E1
3.608037792E0,-1.640230178E1,-2.065961623E1,-1.429545292E1,3.000358680E1
3.618047792E0,-8.198312069E0,-1.283867527E1,6.450353608E0,1.654239902E1
3.628056792E0,6.554748627E0,-6.041471851E-1,1.525248542E1,1.661228566E1
3.638066792E0,1.364984664E1,4.727986071E0,8.972940674E0,1.700546471E1
3.648075792E0,1.904170920E1,8.668967906E0,-3.371173593E0,2.119203872E1
3.658085792E0,1.797677687E1,9.219532961E0,1.360565367E0,2.024883781E1
3.668094792E0,1.147308613E1,7.021028407E0,1.048124515E1,1.705236186E1
3.678103792E0,7.406366351E0,4.443804958E0,1.023106385E1,1.338941121E1
3.688113792E0,6.047303864E0,1.718342314E0,5.809779439E0,8.560147280E0
3.698122792E0,3.913998104E0,-2.183798806E0,4.223455926E-1,4.501858969E0
3.708132792E0,2.849363098E0,-4.356119528E0,3.774845481E-1,5.218921535E0
3.718141792E0,2.782356638E0,-4.719251500E0,3.226870158E0,6.358107753E0
3.728151792E0,1.944199789E0,-5.054548388E0,4.672024709E0,7.152355354E0
3.738160792E0,9.277613354E-1,-5.258692228E0,4.924071279E0,7.263681091E0
3.748169792E0,-1.189250574E-1,-5.015299537E0,3.952600837E0,6.386738291E0
3.758179792E0,-8.511446840E-1,-3.941013994E0,1.364785157E0,4.256603940E0
3.768188792E0,-5.883231577E-1,-2.250309715E0,-5.071781301E-1,2.380598161E0
3.778198792E0,-2.694747806E-1,-5.068290514E-1,-3.648662567E-1,6.801615470E-1
3.788207792E0,-1.337474274E0,7.895910448E-1,4.611242902E-1,1.620162666E0
3.798216792E0,-3.933207961E0,1.491900702E0,1.492938582E0,4.463715737E0
3.808226583E0,-6.029901381E0,1.500061076E0,2.301426659E0,6.626194878E0
3.818235583E0,-5.691751052E0,1.002978748E0,1.469040427E0,5.963226994E0
3.828245583E0,-3.326181023E0,6.599331307E-1,-1.495483875E-1,3.394312398E0
3.838254583E0,-1.417672930E0,5.834299153E-1,-8.284645770E-1,1.742567232E0
3.848264583E0,-2.619447362E-1,5.915353256E-1,-8.689336681E-1,1.083316577E0
3.858273583E0,5.730212867E-1,7.358218038E-1,-6.819642699E-1,1.155362448E0
3.868282583E0,9.796161979E-1,1.129128333E0,-4.136584939E-1,1.551029347E0
3.878292583E0,1.207878926E0,1.414330369E0,-6.413707061E-1,1.967398860E0
3.888301583E0,1.129488814E0,1.421325393E0,-7.585120703E-1,1.967549596E0
3.898311583E0,7.080679947E-1,1.362475507E0,-4.938839006E-1,1.612954153E0
3.908320583E0,3.860404864E-1,1.558029202E0,-6.944606468E-2,1.606644020E0
3.918330583E0,-2.150547445E-1,1.754302105E0,1.166116065E-1,1.771277134E0
3.928339583E0,-5.235152507E-1,1.825298413E0,-1.097639322E-2,1.898921535E0
3.938348583E0,-4.226759237E-1,1.893820179E0,-4.833831784E-1,1.999717256E0
3.948358583E0,9.201763272E-2,1.786563533E0,-1.021306261E0,2.059937616E0
3.958367583E0,2.650045842E-1,1.200311751E0,-1.324339381E0,1.806889739E0
3.968377583E0,-4.288442977E-1,-5.910482526E-2,-1.085424489E0,1.168566272E0
3.978386583E0,-9.996160144E-1,-1.007995659E0,-7.536593199E-1,1.607261583E0
3.988396583E0,-8.893033209E-1,-1.131030432E0,-1.150269526E0,1.842066833E0
3.998405583E0,-5.046978875E-1,-4.962835979E-1,-2.672730992E0,2.764870399E0
4.008414583E0,-5.245825137E-1,4.598729861E-1,-4.910503399E0,4.959809836E0
4.018424583E0,-2.136853997E0,6.581684411E-1,-6.015058808E0,6.417184988E0
4.028433583E0,-3.427914389E0,3.942414987E-1,-5.004688010E0,6.078891798E0
4.038443583E0,-3.526375653E0,3.354214329E-1,-3.244907064E0,4.803879124E0
4.048452583E0,-3.913198789E0,1.701539755E-1,-2.289136104E0,4.536763300E0
4.058461583E0,-5.161748316E0,-1.295187503E-1,-1.798328423E0,5.467577699E0
4.068471583E0,-5.962535609E0,-2.912901574E-1,-1.616312201E0,6.184589394E0
4.078480583E0,-5.402753003E0,-5.021939635E-1,-2.636068365E0,6.032478364E0
4.088490583E0,-4.607044309E0,-9.874052739E-1,-4.374009376E0,6.428980049E0
4.098499583E0,-4.296810635E0,-1.586519176E0,-5.695748209E0,7.308978888E0
4.108509583E0,-4.426058659E0,-1.867959114E0,-6.158765827E0,7.810868263E0
4.118518583E0,-5.262259029E0,-2.138359509E0,-5.865398154E0,8.164976851E0
4.128527583E0,-6.430994647E0,-2.407678168E0,-5.300009823E0,8.674370895E0
4.138537583E0,-7.237808665E0,-1.991089196E0,-5.128219212E0,9.091146393E0
4.148546583E0,-7.036468565E0,-1.335394127E0,-5.211880589E0,8.857700978E0
4.158556583E0,-6.081134099E0,-1.070259735E0,-4.703055298E0,7.761725128E0
4.168565583E0,-4.738980883E0,-1.185479704E0,-3.739287978E0,6.151875854E0
4.178574583E0,-3.512932320E0,-1.363664830E0,-3.959136854E0,5.465806426E0
4.188584583E0,-2.365855374E0,-1.850805722E0,-5.135642837E0,5.949586609E0
4.198593583E0,-1.025555432E0,-3.349438323E0,-5.252457342E0,6.313383336E0
4.208603583E0,-2.466873041E-1,-5.785532790E0,-3.864510194E0,6.961873550E0
4.218612583E0,1.337337157E-1,-8.284873665E0,-7.712547612E-1,8.321769659E0
4.228622583E0,3.269260132E-1,-9.622725962E0,4.522535963E0,1.063753106E1
4.238631583E0,9.616210994E-1,-9.327583659E0,8.369664724E0,1.256900233E1
4.248640583E0,1.401544847E0,-7.619458185E0,9.269069402E0,1.208040225E1
4.258650583E0,1.745819550E0,-5.183070772E0,8.335276079E0,9.969399974E0
4.268659583E0,1.679492244E0,-2.412207422E0,6.195106273E0,6.857024178E0
4.278669583E0,6.890978730E-1,-3.552329689E-1,3.727142726E0,3.806919915E0
4.288678583E0,-4.902703214E-1,-1.976908529E-1,2.151547465E0,2.215536765E0
4.298687583E0,-6.277035704E-1,-1.066344439E0,1.517212275E0,1.957813914E0
4.308697583E0,-7.726338270E-1,-1.978929911E0,1.788373246E0,2.776941752E0
4.318706583E0,-1.352699547E0,-2.326911163E0,1.847419453E0,3.264547482E0
4.328716583E0,-1.371149559E0,-2.206008285E0,1.719725473E0,3.115121084E0
4.338725583E0,-7.429174000E-1,-1.758348963E0,2.254047840E0,2.953717827E0
4.348734583E0,-2.716762573E-2,-1.391726203E0,3.298510536E0,3.580197154E0
4.358744583E0,7.014001223E-1,-1.066004131E0,4.285510890E0,4.471457316E0
4.368753583E0,1.347332388E0,-6.279851139E-1,4.804677859E0,5.029373639E0
4.378763583E0,2.342286125E0,-8.021268904E-2,5.056718874E0,5.573431989E0
4.388772583E0,3.557196912E0,5.770839322E-1,5.211178923E0,6.335855230E0
4.398782583E0,4.580790603E0,1.194028918E0,5.035784672E0,6.911474146E0
4.408791583E0,5.214479091E0,1.701483622E0,4.783149873E0,7.277661810E0
4.418800583E0,5.287155304E0,2.114287106E0,4.742369345E0,7.410417544E0
4.428810583E0,5.420861245E0,2.407222086E0,4.640525174E0,7.530931463E0
4.438819583E0,5.601762403E0,2.571739930E0,4.428267152E0,7.589673133E0
4.448829583E0,5.636073865E0,2.555815623E0,4.235551403E0,7.499161139E0
4.458838583E0,5.656404049E0,2.438797635E0,4.027721186E0,7.359699628E0
4.468847583E0,5.809779439E0,2.428651546E0,3.858096968E0,7.384903363E0
4.478857583E0,5.954850029E0,2.584149476E0,3.818632063E0,7.531269362E0
4.488866583E0,6.007535781E0,2.840963865E0,3.754534885E0,7.632699001E0
4.498876583E0,6.156097743E0,3.015958750E0,3.712406573E0,7.795864876E0
4.508885583E0,6.161787668E0,3.098015066E0,3.629476976E0,7.793486238E0
4.518894583E0,5.958738427E0,3.272398333E0,3.336802782E0,7.572939145E0
4.528904583E0,5.667213796E0,3.600123076E0,2.898052278E0,7.312790533E0
4.538913583E0,5.288200201E0,3.711516627E0,2.299890303E0,6.857835843E0
4.548923583E0,4.955255064E0,3.390108047E0,1.182870677E0,6.119360126E0
4.558932583E0,4.639909754E0,2.491129630E0,-3.066233110E-1,5.275273189E0
4.568941583E0,3.698818521E0,9.673990256E-1,-2.315684802E0,4.469845123E0
4.578951583E0,1.074891022E0,-8.580771428E-1,-5.948101172E0,6.105046654E0
4.588960583E0,-3.977984185E0,-2.650100806E0,-1.166308204E1,1.260455772E1
4.598970583E0,-1.096166409E1,-4.532225969E0,-1.676510164E1,2.053698577E1
4.608979583E0,-1.580940815E1,-7.026487368E0,-1.562129855E1,2.330952336E1
4.618989583E0,-1.583271866E1,-8.700987259E0,-6.852169590E0,1.932186294E1
4.628998583E0,-1.352863035E1,-7.600224938E0,-8.477376576E-1,1.554046066E1
4.639007583E0,-8.494981080E0,-3.380539078E0,-2.197343881E0,9.403247745E0
4.649017583E0,-4.755397233E0,4.839915812E-1,-3.536363282E0,5.945915906E0
4.659026583E0,-2.483278866E0,1.810125473E0,-2.807539426E0,4.162391835E0
4.669036583E0,8.295374680E-1,5.891151631E-1,-7.492598748E-1,1.263558248E0
4.679045583E0,4.391902149E0,-1.505503079E0,1.788812811E0,4.975459303E0
4.689054583E0,6.757387394E0,-2.693471943E0,2.503813118E0,7.693253904E0
4.699064583E0,6.764388850E0,-4.716319706E0,1.691884979E0,8.418022503E0
4.709073583E0,3.683842340E0,-7.089463050E0,9.653753042E-1,8.047554299E0
4.719083583E0,-1.063185773E0,-7.504514204E0,-1.077420674E0,7.655647114E0
4.729092583E0,-4.382401008E0,-3.443814138E0,-1.728026180E0,5.835355078E0
4.739101583E0,-6.205848777E-1,2.054691700E0,2.494253798E0,3.290620850E0
4.749111583E0,5.897273666E0,5.063840198E0,7.572512645E0,1.085187827E1
4.759120583E0,9.713683494E0,5.653752337E0,6.382799556E0,1.292519604E1
4.769130583E0,1.165809671E1,4.885687816E0,1.393177336E0,1.271700072E1
4.779139583E0,1.132942004E1,3.499850344E0,1.885562156E0,1.200666713E1
4.789148583E0,8.359197623E0,1.625268674E0,6.728751240E0,1.085328413E1
4.799158583E0,4.660612406E0,-5.289069682E-1,8.663020703E0,9.851343983E0
4.809167792E0,1.162439628E0,-2.555484670E0,6.400914230E0,6.989525790E0
4.819177792E0,-1.322944821E0,-3.588612247E0,2.804729254E0,4.742871182E0
4.829186792E0,-1.336018025E0,-3.534566433E0,9.641567445E-1,3.899705407E0
4.839195792E0,-5.418073878E-1,-2.725586021E0,8.860157970E-1,2.916744486E0
4.849205792E0,-3.575630844E-2,-1.872835107E0,1.077065309E0,2.160754389E0
4.859214792E0,-2.078088748E-1,-1.187357245E0,1.223842044E0,1.717786687E0
4.869224792E0,-9.319432640E-1,-5.280029887E-1,2.147040285E0,2.399393129E0
4.879233792E0,-1.585494159E0,-3.380918562E-2,2.751658756E0,3.175934618E0
4.889242792E0,-1.910024860E0,2.539451605E-1,2.456001313E0,3.121638281E0
4.899252792E0,-1.699358159E0,3.477228051E-1,1.732901881E0,2.451872392E0
4.909261792E0,-1.041017517E0,1.477661562E-1,1.184597944E0,1.583926954E0
4.919271792E0,-1.849179026E-1,-1.197860599E-2,1.246367930E0,1.260067909E0
4.929280792E0,3.632647043E-1,5.256588399E-2,1.539858395E0,1.582999777E0
4.939289792E0,5.393968731E-1,7.452451766E-2,1.462259411E0,1.560354279E0
4.949299792E0,3.720358202E-1,1.788242269E-1,9.016336370E-1,9.916309651E-1
4.959308792E0,1.822846091E-1,4.399983001E-1,1.129880869E-1,4.894818593E-1
4.969318792E0,3.035570312E-1,6.963729787E-1,-6.437367819E-2,7.623819037E-1
4.979327792E0,4.628220293E-1,6.103335392E-1,3.849222064E-2,7.669373579E-1
4.989336792E0,3.757613736E-1,4.538801748E-1,-1.524345732E-1,6.086379236E-1
4.999346792E0,1.745911351E-1,3.823845148E-1,-7.461677210E-1,8.564264414E-1
5.009355792E0,-4.768404365E-2,4.505110091E-1,-9.158295071E-1,1.021752232E0
5.019365792E0,-1.982086238E-1,7.819832325E-1,-6.564117913E-1,1.040029266E0
5.029374792E0,-3.314108276E-1,9.611822659E-1,-2.659231818E-1,1.050913709E0
5.039383792E0,-8.710246325E-2,9.814656723E-1,4.807697654E-2,9.864953627E-1
5.049393792E0,1.993842065E-2,9.991429746E-1,-5.719629407E-2,1.000977343E0
5.059402792E0,1.594433382E-1,9.545497692E-1,-5.115467311E-1,1.094654054E0
5.069412792E0,3.349665195E-1,8.935872835E-1,-6.812311752E-1,1.172508728E0
5.079421792E0,5.522072455E-1,7.983963668E-1,-7.399338582E-1,1.220603013E0
5.089430792E0,5.033388484E-1,4.900785327E-1,-8.325031757E-1,1.089306432E0
5.099440792E0,-7.355884999E-2,-1.806204915E-2,-8.302990678E-1,8.337467745E-1
5.109449792E0,-1.142025975E0,-5.752362120E-1,-8.832347882E-1,1.554099005E0
5.119459792E0,-1.815295435E0,-7.140157825E-1,-1.302882439E0,2.345766123E0
5.129468792E0,-1.685482862E0,-4.364297444E-1,-2.016299174E0,2.663979309E0
5.139477792E0,-1.373476897E0,-2.108383173E-1,-3.391135402E0,3.664790703E0
5.149487792E0,-1.417467108E0,5.753660202E-4,-5.159973686E0,5.351125281E0
5.159496792E0,-2.748664396E0,3.217722774E-3,-5.586414632E0,6.226009537E0
5.169506792E0,-3.773883614E0,-1.760888994E-2,-4.446191207E0,5.831905680E0
5.179515792E0,-4.037655605E0,1.236884916E-1,-3.035347533E0,5.052850312E0
5.189524792E0,-4.663279321E0,1.725729686E-1,-2.277633753E0,5.192645854E0
5.199534792E0,-5.581880701E0,1.406097490E-1,-2.119661575E0,5.972447442E0
5.209543792E0,-5.921368287E0,8.966120481E-2,-2.361334599E0,6.375464110E0
5.219553792E0,-5.229954917E0,-5.905003685E-1,-2.915160646E0,6.016583807E0
5.229562792E0,-4.130883319E0,-1.354534988E0,-3.715246274E0,5.718567732E0
5.239571792E0,-3.293876910E0,-1.502570116E0,-4.781455642E0,5.997471143E0
5.249581792E0,-3.256153598E0,-1.819946457E0,-5.576748015E0,6.709311424E0
5.259590792E0,-4.354008683E0,-2.445563448E0,-5.681622505E0,7.564324589E0
5.269600792E0,-5.562894791E0,-2.370901521E0,-5.294880645E0,8.037582567E0
5.279609792E0,-6.065258324E0,-1.670803281E0,-5.139007325E0,8.123320653E0
5.289618792E0,-6.273885809E0,-1.096775104E0,-5.479168510E0,8.401538332E0
5.299628792E0,-6.077491284E0,-1.201700465E0,-5.137554291E0,8.048257477E0
5.309637792E0,-4.959600130E0,-1.458391478E0,-3.690741470E0,6.351858921E0
5.319647792E0,-3.702061095E0,-1.520738584E0,-3.147552677E0,5.091658870E0
5.329656792E0,-2.380427805E0,-1.980696940E0,-4.383521919E0,5.367016053E0
5.339665792E0,-1.826453238E0,-3.600531796E0,-5.301559335E0,6.663804621E0
5.349675792E0,-1.557703512E0,-5.728242356E0,-4.142749951E0,7.238893415E0
5.359684792E0,-3.693741676E-1,-7.220160599E0,-1.534826281E0,7.390727167E0
5.369693792E0,9.792931393E-1,-7.716299770E0,2.525259243E0,8.177850050E0
5.379703792E0,1.624251843E0,-7.545610775E0,6.246672868E0,9.929519522E0
5.389712792E0,1.608891500E0,-6.560939074E0,7.975110984E0,1.045164334E1
5.399722792E0,1.495474520E0,-4.695213597E0,7.334847887E0,8.836371896E0
5.409731792E0,1.176947155E0,-2.445994973E0,5.343509599E0,5.993428972E0
5.419740792E0,2.472845972E-1,-6.565084165E-1,4.367980020E0,4.423957779E0
5.429750792E0,-6.489199001E-1,-5.227621293E-1,2.808473811E0,2.929488424E0
5.439759792E0,-1.049327872E0,-1.594938582E0,1.571760657E0,2.472923296E0
5.449769792E0,-1.153460059E0,-2.884264836E0,9.970941103E-1,3.262460791E0
5.459778792E0,-1.399658828E0,-3.341508329E0,1.424889271E0,3.892946465E0
5.469787792E0,-8.987521291E-1,-3.049507150E0,2.277062627E0,3.910532375E0
5.479797792E0,1.715380114E-1,-2.586641559E0,2.934638014E0,3.915640448E0
5.489806792E0,7.712284487E-1,-1.982986709E0,3.490614375E0,4.087960166E0
5.499816792E0,1.607815905E0,-1.358128687E0,4.027513025E0,4.544276255E0
5.509825792E0,1.977488865E0,-6.785763931E-1,4.501790042E0,4.963571468E0
5.519834792E0,2.507040196E0,-3.553528368E-2,4.926155226E0,5.527523733E0
5.529844792E0,3.368230397E0,5.463813722E-1,5.246068089E0,6.258173776E0
5.539853792E0,4.343308863E0,1.076208107E0,5.050610873E0,6.747683006E0
5.549863792E0,4.898729738E0,1.577161877E0,4.881271999E0,7.093081768E0
5.559872792E0,4.997752628E0,1.956767794E0,5.017158952E0,7.346996357E0
5.569881792E0,4.879823936E0,2.373256779E0,5.125007921E0,7.463962458E0
5.579891792E0,4.866548418E0,2.782846634E0,5.058372467E0,7.550805315E0
5.589900792E0,4.963094426E0,3.096426963E0,4.792602189E0,7.562354261E0
5.599909792E0,5.029864951E0,3.369449834E0,4.544995995E0,7.570318501E0
5.609919792E0,5.169528621E0,3.600291476E0,4.465631153E0,7.721915984E0
5.619928792E0,5.419590061E0,3.741824500E0,4.437603986E0,7.941381250E0
5.629938792E0,5.687413588E0,3.871839094E0,4.355875114E0,8.143184837E0
5.639947792E0,6.024678063E0,4.082013168E0,4.155016532E0,8.379960599E0
5.649956792E0,6.293880363E0,4.284351972E0,4.066032435E0,8.631409017E0
5.659966792E0,6.459871121E0,4.487897058E0,3.596220352E0,8.648928010E0
5.669975792E0,6.439481295E0,4.426298395E0,3.094255599E0,8.404371157E0
5.679985792E0,6.116243706E0,4.089290612E0,2.299160424E0,7.708234132E0
5.689994792E0,5.540118717E0,3.319273122E0,1.470402098E0,6.623637353E0
5.700003792E0,4.703748193E0,1.893548868E0,-2.090671957E-3,5.070579725E0
5.710013792E0,2.591727467E0,-1.452781659E-1,-3.515725535E0,4.370181123E0
5.720022792E0,-2.778460930E0,-2.468875127E0,-1.179257448E1,1.236446531E1
5.730032792E0,-1.251874136E1,-5.074985576E0,-2.245190010E1,2.620233161E1
5.740041792E0,-1.933820397E1,-9.395124847E0,-2.218230603E1,3.089157174E1
5.750050792E0,-1.740625819E1,-1.240610996E1,-7.124024187E0,2.253089232E1
5.760060792E0,-1.451029015E1,-1.002825317E1,3.466641667E-1,1.764184112E1
5.770069792E0,-8.532938865E0,-3.495955514E0,-2.866845103E0,9.656684290E0
5.780078792E0,-3.759364100E0,1.433085313E0,-3.623031882E0,5.414140003E0
5.790088792E0,-1.372910155E0,3.755957220E0,-2.087110856E0,4.510890008E0
5.800097792E0,2.182894534E0,5.080602996E0,-2.757054274E-1,5.536566520E0
5.810107958E0,6.146689573E0,4.560990177E0,2.427578290E0,8.029792055E0
5.820116958E0,9.346822752E0,2.574674063E0,4.807873070E0,1.082163045E1
5.830125958E0,1.005403238E1,8.522609174E-2,6.047592716E0,1.173303917E1
5.840135958E0,7.304039492E0,-3.074296421E0,6.145701978E0,1.002845672E1
5.850144958E0,2.462916815E0,-7.186946075E0,3.293549466E0,8.280436052E0
5.860153958E0,-6.854144779E0,-1.207863313E1,-6.627390926E0,1.538814445E1
5.870163958E0,-1.279352541E1,-1.036675316E1,-7.097651491E0,1.793099329E1
5.880172958E0,-5.278531830E0,-2.587985834E0,5.165748396E0,7.825952048E0
5.890182958E0,3.334863553E0,2.947350445E0,1.102229387E1,1.188693197E1
5.900191958E0,8.586449075E0,4.979026335E0,7.558977510E0,1.247621545E1
5.910200958E0,1.156618666E1,5.615726724E0,1.724045688E0,1.297248604E1
5.920210958E0,1.207571771E1,5.555530223E0,1.384945626E0,1.336431625E1
5.930219958E0,9.478823646E0,3.926628090E0,4.800365245E0,1.132740095E1
5.940228958E0,5.532471728E0,1.937550920E0,6.225972555E0,8.551320439E0
5.950238958E0,1.663739260E0,-8.391461974E-1,4.845660117E0,5.191590954E0
5.960247958E0,1.571623394E-1,-3.155584413E0,2.978522537E0,4.342120391E0
5.970257958E0,9.998949265E-1,-4.006788738E0,1.748205214E0,4.484458421E0
5.980266958E0,1.064861878E0,-3.734777436E0,1.000378053E0,4.010392694E0
5.990275958E0,6.213590491E-1,-3.085082780E0,9.574242604E-1,3.289450416E0
6.000285958E0,-7.943354756E-2,-2.288689669E0,2.616593921E0,3.477207764E0
6.010294958E0,-9.737640122E-1,-1.731215544E0,3.841178634E0,4.324346992E0
6.020304958E0,-1.845744080E0,-1.256308197E0,2.960810151E0,3.708298565E0
6.030313958E0,-2.649581281E0,-5.646580142E-1,1.616308401E0,3.154611304E0
6.040322958E0,-3.043228410E0,1.066555524E-1,8.436409521E-1,3.159801357E0
6.050332958E0,-2.921523879E0,5.261359727E-1,1.251947343E0,3.221722053E0
6.060341958E0,-2.148082843E0,4.590058440E-1,1.817777724E0,2.851186090E0
6.070350958E0,-1.111073885E0,2.337301666E-1,1.822139747E0,2.146929954E0
6.080360958E0,-3.730011955E-1,7.924088180E-2,1.701137466E0,1.743352428E0
6.090369958E0,2.855838597E-1,2.307135880E-1,1.381439781E0,1.429392448E0
6.100379958E0,7.752153727E-1,5.223715353E-1,8.422703648E-1,1.258272730E0
6.110388958E0,9.350177300E-1,8.393549430E-1,1.236709499E-1,1.262564604E0
6.120397958E0,8.470814538E-1,1.042667894E0,-9.171416223E-1,1.626607538E0
6.130407958E0,6.561096364E-1,1.051607702E0,-1.526333785E0,1.966228226E0
6.140416958E0,3.112528440E-1,9.924835807E-1,-1.369414397E0,1.719650483E0
6.150425958E0,-8.744189411E-2,8.054574645E-1,-8.243183164E-1,1.155815080E0
6.160435958E0,-1.488803431E-1,7.817218620E-1,-1.455794437E-1,8.089794809E-1
6.170444958E0,-3.144015697E-1,8.780600023E-1,4.101802777E-1,1.018864846E0
6.180454958E0,-2.951504892E-1,1.280149634E0,7.466625416E-1,1.511092931E0
6.190463958E0,1.637316862E-1,1.663835739E0,1.009308798E0,1.952911078E0
6.200472958E0,7.955984741E-1,1.786024420E0,6.183208358E-1,2.050653753E0
6.210482958E0,1.528571807E0,1.659872496E0,-3.958182004E-1,2.290934421E0
6.220491958E0,1.780843787E0,7.675651681E-1,-1.699707237E0,2.578675158E0
6.230500958E0,5.492541093E-1,-8.785242712E-1,-2.442450390E0,2.653120593E0
6.240510958E0,-6.191055322E-1,-1.720062565E0,-2.283530670E0,2.925135759E0
6.250519958E0,-9.125027338E-1,-1.622703500E0,-1.855610379E0,2.628520072E0
6.260529958E0,-6.030438155E-1,-7.004502422E-1,-2.661456391E0,2.817382208E0
6.270538958E0,-8.662429257E-1,6.127531171E-1,-4.530065130E0,4.652669478E0
6.280547958E0,-2.472989228E0,1.066727432E0,-5.558038094E0,6.176193860E0
6.290557958E0,-3.741581256E0,6.055335599E-1,-4.676073321E0,6.019282589E0
6.300566958E0,-3.822975082E0,3.023314548E-1,-2.873167405E0,4.791829893E0
6.310575958E0,-3.947880672E0,4.171625841E-1,-1.774086159E0,4.348237358E0
6.320585958E0,-4.791007361E0,5.682020116E-1,-1.818789000E0,5.156025455E0
6.330594958E0,-5.732289798E0,5.079464543E-1,-2.431069955E0,6.247179928E0
6.340604958E0,-5.780287253E0,1.405547851E-1,-2.966652689E0,6.498654057E0
6.350613958E0,-4.998521537E0,-4.792272699E-1,-3.524171838E0,6.134709730E0
6.360622958E0,-4.148373218E0,-1.035505639E0,-3.999437034E0,5.854636528E0
6.370632958E0,-3.719895687E0,-1.651426193E0,-4.589199192E0,6.133969483E0
6.380641958E0,-3.834248807E0,-2.052615353E0,-5.123183005E0,6.720245368E0
6.390650958E0,-4.644352761E0,-2.626732408E0,-5.225115176E0,7.468036176E0
6.400660958E0,-5.984815840E0,-2.928144681E0,-5.347947636E0,8.543570437E0
6.410669958E0,-6.576016120E0,-2.264085755E0,-5.179768265E0,8.671797483E0
6.420679958E0,-6.547189931E0,-1.844289000E0,-5.304439673E0,8.625785655E0
6.430688958E0,-6.234287295E0,-2.068403420E0,-4.583218075E0,8.009401895E0
6.440697958E0,-5.562505952E0,-2.301131959E0,-3.554812417E0,6.990949297E0
6.450707958E0,-4.133016383E0,-2.315878637E0,-3.636769331E0,5.972537940E0
6.460716958E0,-2.503137180E0,-2.722621483E0,-4.810539401E0,6.067919973E0
6.470725958E0,-1.867453622E0,-4.031741731E0,-4.824852215E0,6.559079456E0
6.480735958E0,-1.773598502E0,-5.944351353E0,-3.277701173E0,7.016002397E0
6.490744958E0,-7.338165012E-1,-7.353622127E0,-4.424108613E-1,7.403375744E0
6.500753958E0,4.905895793E-1,-7.889184980E0,3.615728710E0,8.692146564E0
6.510763958E0,7.283414608E-1,-7.778132907E0,6.846801846E0,1.038790298E1
6.520772958E0,5.617548716E-1,-6.886171149E0,8.078745865E0,1.063019550E1
6.530782958E0,6.656455681E-1,-5.201603522E0,7.360400219E0,9.037436285E0
6.540791958E0,4.216134846E-1,-3.111792276E0,5.437928098E0,6.279496087E0
6.550800958E0,1.193086347E-1,-1.611939946E0,3.503529997E0,3.858407363E0
6.560810958E0,-4.155198088E-1,-1.713873872E0,2.418818868E0,2.993443682E0
6.570819958E0,-2.994259733E-1,-2.674539244E0,2.149216619E0,3.444117906E0
6.580828958E0,-3.876166034E-1,-3.201370450E0,2.693698815E0,4.201789226E0
6.590838958E0,-1.000314757E0,-3.063484334E0,2.636773832E0,4.163909475E0
6.600847958E0,-1.259468032E0,-2.602367061E0,2.698882079E0,3.955064920E0
6.610857958E0,-9.035620487E-1,-2.001582609E0,3.256388656E0,3.927699632E0
6.620866958E0,-5.454648212E-1,-1.586656585E0,3.587359481E0,3.960323098E0
6.630875958E0,-2.313810477E-1,-1.266588187E0,4.331610339E0,4.518919224E0
6.640885958E0,3.783405805E-1,-7.794490492E-1,4.821003870E0,4.898240575E0
6.650894958E0,1.807962880E0,-2.608501375E-1,5.098321813E0,5.415686280E0
6.660903958E0,3.330975739E0,4.554098064E-1,5.131732219E0,6.134938715E0
6.670913958E0,4.188079321E0,1.192472389E0,4.981341248E0,6.616325220E0
6.680922958E0,4.660830799E0,1.763544799E0,5.015942731E0,7.070580986E0
6.690931958E0,5.005679113E0,2.263961209E0,5.190236535E0,7.557836928E0
6.700941958E0,5.289697089E0,2.734372047E0,5.197830899E0,7.904121193E0
6.710950958E0,5.498621612E0,3.023848983E0,5.089273832E0,8.079555089E0
6.720960958E0,5.578032063E0,3.284041309E0,4.835755226E0,8.079845148E0
6.730969958E0,5.658235981E0,3.548400945E0,4.603688300E0,8.111764891E0
6.740978958E0,5.763951886E0,3.751702201E0,4.567730555E0,8.256062813E0
6.750988958E0,6.010402671E0,3.964889345E0,4.526588376E0,8.505015585E0
6.760997958E0,6.221532764E0,4.087928796E0,4.567253422E0,8.733752664E0
6.771006958E0,6.355807639E0,4.199567930E0,4.518881453E0,8.857367054E0
6.781016958E0,6.378090209E0,4.324520005E0,4.352859413E0,8.850361182E0
6.791025958E0,6.136128917E0,4.505243407E0,4.115218044E0,8.653572429E0
6.801034958E0,5.794043412E0,4.682147993E0,3.534076144E0,8.245189087E0
6.811044917E0,5.388803301E0,4.672127620E0,2.701960931E0,7.626832264E0
6.821053917E0,5.058314579E0,4.204429305E0,1.357949469E0,6.716233984E0
6.831063917E0,4.525433258E0,3.171274247E0,-6.062996913E-1,5.559147942E0
6.841072917E0,3.054648607E0,1.484626765E0,-3.675814698E0,5.004658673E0
6.851081917E0,-6.858976918E-1,-7.345728385E-1,-8.823012217E0,8.880067426E0
6.861091917E0,-7.448368655E0,-3.326600268E0,-1.507560831E1,1.714113272E1
6.871100917E0,-1.406912124E1,-6.586449891E0,-1.784270840E1,2.365763592E1
6.881109917E0,-1.603921659E1,-9.698753799E0,-1.189646898E1,2.220018622E1
6.891119917E0,-1.502026559E1,-9.838737895E0,-3.713219336E0,1.833567941E1
6.901128917E0,-1.140560458E1,-6.123528167E0,-2.012995059E0,1.310105195E1
6.911137917E0,-6.225274397E0,-1.809493974E0,-3.129630961E0,7.198812382E0
6.921147917E0,-3.090607229E0,1.216540698E0,-2.968169457E0,4.454419630E0
6.931156917E0,-3.395402116E-1,4.344302305E0,-1.883127376E0,4.747043162E0
6.941165917E0,2.657428536E0,6.555798787E0,3.021117456E-1,7.080373978E0
6.951175917E0,5.701425855E0,6.727253183E0,3.770753015E0,9.590660586E0
6.961184917E0,9.207425131E0,3.944056885E0,7.959638082E0,1.279406506E1
6.971194917E0,1.113919491E1,-2.776725769E-2,1.003200825E1,1.499078463E1
6.981203917E0,9.282211019E0,-2.632246333E0,8.283907120E0,1.271657498E1
6.991212917E0,5.421685118E0,-6.100517035E0,3.129599386E0,8.741016527E0
7.001222917E0,-2.020186111E0,-1.256829768E1,-8.623073695E0,1.537532629E1
7.011231917E0,-1.296043535E1,-1.675754820E1,-1.744289684E1,2.744162817E1
7.021240917E0,-1.461264800E1,-1.431804422E1,-8.590854367E0,2.218870548E1
7.031250917E0,-4.457043639E0,-4.916666365E0,6.730715904E0,9.452057063E0
7.041259917E0,6.373431732E0,3.091109505E0,1.287997065E1,1.469929366E1
7.051268917E0,1.145491298E1,5.531868296E0,1.128197105E1,1.700292531E1
7.061278917E0,1.388931117E1,6.390058874E0,2.910234075E0,1.556326699E1
7.071287917E0,1.412485222E1,6.709558924E0,-7.808254838E-1,1.565692561E1
7.081297917E0,9.797406267E0,5.286432003E0,4.527647599E0,1.201811656E1
7.091306917E0,6.781924065E0,3.182267597E0,6.639646690E0,1.001030615E1
7.101315917E0,5.543924085E0,5.241385639E-1,5.737694964E0,7.995683773E0
7.111325917E0,4.423389990E0,-1.842099218E0,4.969677222E0,6.903433944E0
7.121334917E0,3.078245046E0,-3.397325265E0,3.952858114E0,6.053304782E0
7.131343917E0,1.403681420E0,-4.279053810E0,2.421143721E0,5.112979558E0
7.141353917E0,5.065092087E-2,-4.671919459E0,1.956744990E0,5.065397112E0
7.151362917E0,-1.246905289E0,-4.644298967E0,2.543973842E0,5.440228727E0
7.161371917E0,-2.425903063E0,-3.794333081E0,2.494688830E0,5.148343574E0
7.171381917E0,-3.317438850E0,-2.197928603E0,1.245777361E0,4.169922290E0
7.181390917E0,-4.115103731E0,-2.970221829E-1,-3.292040884E-1,4.138922109E0
7.191399917E0,-4.906599798E0,1.287275636E0,1.045330040E-1,5.073729131E0
7.201409917E0,-5.190348802E0,1.600968815E0,1.447485251E0,5.621212981E0
7.211418917E0,-4.164731389E0,8.062842607E-1,1.338348141E0,4.448174636E0
7.221428917E0,-2.873412988E0,3.142855024E-1,1.172156239E0,3.119171016E0
7.231437917E0,-1.398014299E0,3.084330243E-1,5.311236477E-1,1.526979777E0
7.241446917E0,-1.507742563E-1,3.782914639E-1,2.156499179E-1,4.608060276E-1
7.251456917E0,4.787761572E-1,6.664785039E-1,-7.117998339E-2,8.237030988E-1
7.261465917E0,1.155013079E0,9.463303381E-1,-7.208109049E-1,1.658060518E0
7.271474917E0,1.561933388E0,8.036840039E-1,-1.519465646E0,2.322567488E0
7.281484917E0,1.147688857E0,6.711223626E-1,-2.106049988E0,2.490590590E0
7.291493917E0,9.231174767E-1,1.263749363E0,-1.816052211E0,2.397343105E0
7.301502917E0,7.727843928E-1,1.663552734E0,-1.082830664E0,2.130052972E0
7.311512917E0,9.730708247E-1,1.689700313E0,-3.127038306E-1,1.974775345E0
7.321521917E0,8.220925006E-1,1.706458433E0,2.540604968E-1,1.911120927E0
7.331530917E0,8.970614067E-1,1.606791472E0,7.154581444E-1,1.974431148E0
7.341540917E0,1.317217473E0,1.549263057E0,9.066809535E-1,2.226510328E0
7.351549917E0,1.537916242E0,1.102756805E0,3.055023998E-3,1.892423915E0
7.361558917E0,6.632388541E-1,2.178397733E-1,-8.191814643E-1,1.076289095E0
7.371568917E0,-8.884671691E-1,-4.521096379E-1,-9.663425799E-1,1.388378557E0
7.381577917E0,-1.882140366E0,-5.883029848E-1,-8.185555199E-1,2.135084518E0
7.391586917E0,-2.402707743E0,-4.543385965E-1,-1.058113899E0,2.664401073E0
7.401596917E0,-2.277321512E0,4.664733231E-2,-2.325411353E0,3.255135512E0
7.411605917E0,-1.580384277E0,6.010662872E-1,-4.873958009E0,5.158910914E0
7.421615917E0,-1.265022302E0,6.239429337E-1,-6.956135423E0,7.097704293E0
7.431624917E0,-2.445751728E0,8.556289136E-2,-6.145192101E0,6.614560339E0
7.441633917E0,-3.278895174E0,-2.658038986E-1,-3.972620534E0,5.157859942E0
7.451643917E0,-3.595088623E0,2.748729300E-1,-2.667559130E0,4.485096325E0
7.461652917E0,-4.726718102E0,7.464806932E-1,-2.090230492E0,5.221892469E0
7.471661917E0,-6.417467113E0,6.730168605E-1,-1.706528892E0,6.674509473E0
7.481671917E0,-7.244756911E0,5.250752878E-1,-1.458900186E0,7.408818834E0
7.491680917E0,-6.261664544E0,1.535519761E-1,-2.035456407E0,6.585977820E0
7.501689917E0,-4.813700990E0,-7.332455206E-1,-3.248610690E0,5.853446646E0
7.511699917E0,-3.915388572E0,-1.533187891E0,-4.667022708E0,6.281881385E0
7.521708917E0,-3.942258866E0,-2.159832239E0,-5.390046419E0,7.018467117E0
7.531717917E0,-4.594423971E0,-3.008276094E0,-5.355060189E0,7.670405876E0
7.541727917E0,-5.159601218E0,-3.197087365E0,-5.124076459E0,7.943488649E0
7.551736917E0,-5.837695801E0,-2.589301457E0,-5.386771978E0,8.354668554E0
7.561745917E0,-6.357136711E0,-1.840845575E0,-5.897017558E0,8.864350832E0
7.571755917E0,-5.821897209E0,-1.351466369E0,-5.624088242E0,8.206784816E0
7.581764917E0,-4.725817924E0,-1.173743173E0,-4.761901091E0,6.810780431E0
7.591773917E0,-3.466890759E0,-1.380634035E0,-4.525615107E0,5.865720243E0
7.601783917E0,-2.074115565E0,-2.129975771E0,-5.512574823E0,6.263164802E0
7.611792917E0,-1.612876377E0,-3.541517603E0,-5.141940873E0,6.448509369E0
7.621802917E0,-1.892934034E0,-5.524682068E0,-2.933912959E0,6.535530312E0
7.631811917E0,-1.133799381E0,-7.099914948E0,-3.839609241E-1,7.200119394E0
7.641820917E0,2.616912594E-1,-7.657906551E0,2.788972178E0,8.154163407E0
7.651830917E0,9.482116798E-1,-7.731120123E0,5.532374665E0,9.553873203E0
7.661839917E0,7.099478745E-1,-6.956333059E0,6.985763265E0,9.884102590E0
7.671848917E0,4.974366689E-1,-5.638221547E0,6.702121850E0,8.772423995E0
7.681858917E0,6.320869356E-1,-3.660995514E0,5.284393079E0,6.459661931E0
7.691867917E0,4.303173575E-1,-1.757162563E0,3.383292532E0,3.836595061E0
7.701876917E0,-3.202145791E-1,-1.208828806E0,2.506259301E0,2.800917732E0
7.711886917E0,-8.841881767E-1,-2.032603258E0,2.487292103E0,3.331649252E0
7.721895917E0,-1.031011762E0,-2.922754133E0,2.462624162E0,3.958534417E0
7.731904917E0,-1.158438963E0,-3.353828412E0,2.413400838E0,4.291229364E0
7.741914917E0,-1.430686201E0,-2.966387810E0,2.885431648E0,4.378588293E0
7.751923917E0,-9.312898377E-1,-2.200185628E0,2.897004164E0,3.755096628E0
7.761932917E0,-2.052770305E-1,-1.729833847E0,3.440303177E0,3.856183313E0
7.771942917E0,2.131166849E-1,-1.364082322E0,4.154864212E0,4.378245759E0
7.781951917E0,9.968637300E-1,-8.703586346E-1,4.814011477E0,4.992591306E0
7.791960917E0,2.076446266E0,-1.957115704E-1,5.207594579E0,5.609721331E0
7.801970917E0,3.439731612E0,4.981383348E-1,5.226192234E0,6.276382766E0
7.811979667E0,4.677833918E0,1.281924264E0,5.251688433E0,7.148824475E0
7.821988667E0,5.440733008E0,2.047984359E0,5.191812944E0,7.794275928E0
7.831998667E0,5.738387859E0,2.501828281E0,5.274208399E0,8.185689599E0
7.842007667E0,5.713696822E0,2.762626963E0,5.393886870E0,8.329012827E0
7.852016667E0,5.603316593E0,2.915818166E0,5.284633985E0,8.235685082E0
7.862026667E0,5.474377887E0,2.934806998E0,5.148969226E0,8.068072227E0
7.872035667E0,5.261008894E0,2.986681741E0,4.996464486E0,7.846218183E0
7.882044667E0,5.171415517E0,3.176073056E0,4.833563689E0,7.758499626E0
7.892054667E0,5.242338150E0,3.385927287E0,4.784973035E0,7.864005329E0
7.902063667E0,5.571772619E0,3.804468060E0,4.765134894E0,8.259850961E0
7.912072667E0,5.975565544E0,4.200047987E0,4.760296908E0,8.718268940E0
7.922082667E0,6.472030406E0,4.420259975E0,4.780267196E0,9.180241298E0
7.932091667E0,6.861312296E0,4.625065720E0,4.481649892E0,9.410314825E0
7.942101667E0,6.954306999E0,4.755259239E0,3.951571727E0,9.305363796E0
7.952110667E0,6.709262470E0,4.628877520E0,3.294796385E0,8.791836737E0
7.962119667E0,6.242973334E0,4.114791489E0,2.420822271E0,7.859173336E0
7.972129667E0,5.689233826E0,2.967470130E0,1.150119545E0,6.518898332E0
7.982138667E0,4.748629374E0,1.272809624E0,-1.783875568E0,5.229888843E0
7.992147667E0,1.125731978E0,-8.973838806E-1,-9.834681097E0,9.939493076E0
8.002157667E0,-8.401253137E0,-3.822454095E0,-2.307953789E1,2.485673507E1
8.012166667E0,-1.880574131E1,-8.761187852E0,-2.705456162E1,3.409345426E1
8.022175667E0,-1.906430752E1,-1.364196810E1,-1.231738197E1,2.648148435E1
8.032185667E0,-1.722391628E1,-1.273077543E1,1.037321784E0,2.144322671E1
8.042194667E0,-1.186996004E1,-6.425434529E0,-2.019790839E0,1.364777327E1
8.052203667E0,-5.294012918E0,1.039950693E-1,-4.351628866E0,6.853762583E0
8.062213667E0,-2.588587512E0,2.727959991E0,-3.235456502E0,4.960920257E0
8.072222667E0,5.024427626E-1,3.726110693E0,-1.621477193E0,4.094574204E0
8.082231667E0,4.739929594E0,2.677653471E0,1.590136263E0,5.671445495E0
8.092241667E0,8.482238828E0,1.136298773E0,5.196196017E0,1.001199298E1
8.102250667E0,1.013615886E1,-5.207582885E-1,7.232636218E0,1.246290224E1
8.112259667E0,8.616719525E0,-3.015871627E0,7.501720405E0,1.181605459E1
8.122269667E0,5.558559666E0,-6.256770424E0,2.509500997E0,8.737411342E0
8.132278667E0,-7.616051012E-1,-1.015978278E1,-9.077334523E0,1.364548389E1
8.142287667E0,-8.065315980E0,-7.263025367E0,-7.361132290E0,1.311438630E1
8.152297667E0,-3.612068645E0,-7.219317430E-1,6.673700874E0,7.622762537E0
8.162306667E0,2.768168954E0,3.203466092E0,1.204119926E1,1.276383304E1
8.172315667E0,5.810406260E0,4.739022106E0,9.911124086E0,1.242777261E1
8.182325667E0,7.934637727E0,4.716793331E0,5.611535439E0,1.080258974E1
8.192334667E0,8.436380285E0,3.697135985E0,3.869743452E0,9.990807835E0
8.202343667E0,7.669840719E0,1.586183546E0,4.494474006E0,9.030101410E0
8.212353667E0,5.839194442E0,-6.965945882E-1,4.357963740E0,7.319377276E0
8.222362667E0,3.401079470E0,-2.586442169E0,3.634364955E0,5.609423614E0
8.232371667E0,1.952388815E0,-3.085764565E0,3.019640157E0,4.738353270E0
8.242381667E0,1.578312316E0,-2.858651108E0,2.890737119E0,4.361114194E0
8.252390667E0,9.485958418E-1,-2.521660867E0,2.821721263E0,3.901373923E0
8.262399667E0,-3.509352654E-2,-2.156315138E0,2.819650179E0,3.549838541E0
8.272409667E0,-1.069930244E0,-1.852939371E0,3.131889156E0,3.793002073E0
8.282418667E0,-2.101644549E0,-1.632608684E0,2.817377951E0,3.875556663E0
8.292427667E0,-2.928415699E0,-1.266950129E0,1.710728070E0,3.620410428E0
8.302437667E0,-3.098498339E0,-5.220692343E-1,6.898637851E-1,3.217011079E0
8.312446667E0,-2.713016261E0,2.792484015E-1,8.551740003E-1,2.858279111E0
8.322455667E0,-2.211618396E0,4.680854005E-1,1.555181608E0,2.743893166E0
8.332465667E0,-1.812487748E0,2.449012721E-1,1.820986676E0,2.580907001E0
8.342474667E0,-1.099058734E0,8.428644419E-2,1.412246422E0,1.791500561E0
8.352483667E0,-9.713687003E-2,3.677723229E-1,6.469148898E-1,7.504604771E-1
8.362493667E0,7.808269456E-1,8.338468659E-1,-1.872962942E-1,1.157614451E0
8.372502667E0,1.017676309E0,9.441469878E-1,-7.327397364E-1,1.569708931E0
8.382511667E0,1.063110929E0,8.452612156E-1,-1.309438337E0,1.886610752E0
8.392521667E0,8.946818823E-1,8.020239794E-1,-1.930188691E0,2.273615297E0
8.402530667E0,4.613195872E-1,8.689149570E-1,-1.640077917E0,1.912507396E0
8.412539667E0,-6.755054355E-2,1.099239120E0,-1.227804190E0,1.649361346E0
8.422549667E0,-2.496895570E-1,1.319092090E0,-9.237419593E-1,1.629615913E0
8.432558667E0,-1.587887424E-1,1.532035990E0,-3.325755930E-1,1.575739402E0
8.442567667E0,-3.110332811E-1,1.569384495E0,5.405619308E-2,1.600822122E0
8.452577667E0,8.317284197E-2,1.535794580E0,4.746763819E-1,1.609627404E0
8.462586667E0,7.011027914E-1,1.462422549E0,2.848716688E-1,1.646625854E0
8.472595667E0,9.603662869E-1,1.222784355E0,-5.965998915E-1,1.665363749E0
8.482605667E0,9.186121970E-2,3.788539660E-1,-7.617501122E-1,8.557055829E-1
8.492614667E0,-9.377966192E-1,-4.578562814E-1,-1.271047273E-1,1.051308939E0
8.502623667E0,-1.259415407E0,-6.455747080E-1,3.101398265E-1,1.448820411E0
8.512633667E0,-1.300905203E0,-4.270765382E-1,3.578118834E-1,1.415195414E0
8.522642667E0,-1.224176285E0,1.979574859E-1,-6.772622314E-1,1.412968108E0
8.532651667E0,-1.044769091E0,9.872848213E-1,-3.485515603E0,3.770290809E0
8.542661667E0,-1.452448076E0,1.134428834E0,-6.829598168E0,7.073891809E0
8.552670667E0,-2.989855902E0,5.683370823E-1,-7.616528145E0,8.202057446E0
8.562679667E0,-3.317608420E0,5.141924500E-2,-5.433815167E0,6.366750885E0
8.572688667E0,-2.808882239E0,2.834730148E-3,-3.110542726E0,4.191098128E0
8.582698667E0,-3.378489629E0,1.369914919E-1,-1.929783771E0,3.893202313E0
8.592707667E0,-4.885501290E0,2.106997383E-1,-1.558546388E0,5.132405292E0
8.602716667E0,-5.761892497E0,-1.296965057E-1,-1.749327002E0,6.022986908E0
8.612726667E0,-5.103543962E0,-7.960873014E-1,-2.803410122E0,5.876991090E0
8.622735667E0,-3.914189015E0,-1.252606325E0,-4.732175601E0,6.267645824E0
8.632744667E0,-3.458563447E0,-1.788227066E0,-6.138729758E0,7.269347990E0
8.642754667E0,-3.825088851E0,-2.048638077E0,-6.493002614E0,7.809436960E0
8.652763667E0,-4.292998250E0,-1.791020865E0,-5.962924449E0,7.562675300E0
8.662772667E0,-5.149320059E0,-1.825189070E0,-5.552894298E0,7.789829735E0
8.672782667E0,-6.929873239E0,-1.704804255E0,-5.526191819E0,9.025978987E0
8.682791667E0,-7.446102859E0,-1.197002227E0,-5.920701120E0,9.588115762E0
8.692800667E0,-6.817778606E0,-7.917960298E-1,-5.497664423E0,8.793938832E0
8.702810667E0,-5.703415078E0,-9.231671780E-1,-3.782949137E0,6.905931173E0
8.712819667E0,-4.607960860E0,-1.579762133E0,-3.174741645E0,5.814459236E0
8.722828667E0,-3.474390982E0,-2.508361375E0,-4.379293798E0,6.127110547E0
8.732838667E0,-2.393049020E0,-3.471074442E0,-4.631636821E0,6.263154240E0
8.742847667E0,-1.571373133E0,-5.200410106E0,-3.848441461E0,6.657625738E0
8.752856667E0,8.260098428E-2,-7.046501217E0,-2.009210887E0,7.327818961E0
8.762866667E0,1.545410326E0,-7.869958751E0,2.302163993E0,8.344129844E0
8.772875667E0,1.837177616E0,-7.968545145E0,6.858222628E0,1.067277616E1
8.782884667E0,1.181812623E0,-7.426051587E0,8.762062011E0,1.154628312E1
8.792894667E0,6.619132903E-1,-5.963403921E0,7.964866662E0,9.971931431E0
8.802903667E0,2.502956209E-1,-3.501471777E0,5.522209865E0,6.543527664E0
8.812912417E0,-1.016719705E-1,-1.444785007E0,2.825100954E0,3.174734053E0
8.822922417E0,-5.551217902E-1,-1.224471277E0,1.480287985E0,1.999685632E0
8.832931417E0,-5.532039034E-1,-2.335574398E0,9.162857361E-1,2.569148084E0
8.842940417E0,-6.885859492E-1,-3.384297084E0,1.190216095E0,3.652975734E0
8.852950417E0,-6.483041883E-1,-3.654380559E0,2.129473933E0,4.278954875E0
8.862959417E0,-4.211816677E-1,-3.183382661E0,2.865112573E0,4.303508943E0
8.872968417E0,2.292710799E-1,-2.521252146E0,3.362122103E0,4.208698451E0
8.882978417E0,1.016395184E0,-1.875364612E0,3.907448637E0,4.451764420E0
8.892987417E0,1.383302996E0,-1.314192708E0,4.335568027E0,4.736853361E0
8.902996417E0,1.544357243E0,-6.126385117E-1,4.917847502E0,5.190914110E0
8.913005417E0,2.050608881E0,2.389230788E-2,5.103487244E0,5.500104515E0
8.923015417E0,2.922501533E0,6.093745959E-1,5.098251647E0,5.908004948E0
8.933024417E0,3.620964014E0,1.270215799E0,5.003427351E0,6.305482838E0
8.943033417E0,4.122762414E0,1.838114925E0,4.912553433E0,6.671507898E0
8.953043417E0,4.376448542E0,2.235667702E0,5.010502481E0,7.018307989E0
8.963052417E0,4.572925513E0,2.556960508E0,5.053568394E0,7.279302735E0
8.973061417E0,4.739730788E0,2.788704375E0,4.957123250E0,7.403714673E0
8.983071417E0,4.962720789E0,3.140433108E0,4.739780197E0,7.546948659E0
8.993080417E0,5.191392530E0,3.552179416E0,4.587970692E0,7.785756872E0
9.003089417E0,5.333004491E0,3.944595999E0,4.641642576E0,8.096024969E0
9.013099417E0,5.589455768E0,4.214723328E0,4.658509455E0,8.408782246E0
9.023108417E0,5.928861494E0,4.382057776E0,4.569942849E0,8.673996000E0
9.033117417E0,6.216403002E0,4.507967625E0,4.538618730E0,8.919893405E0
9.043127417E0,6.383609396E0,4.592020181E0,4.510263827E0,9.065296357E0
9.053136417E0,6.364695407E0,4.751484861E0,4.181088974E0,8.975937891E0
9.063145417E0,6.220663283E0,4.807850851E0,3.682674651E0,8.681830111E0
9.073155417E0,5.956960289E0,4.649491294E0,2.772157339E0,8.049099421E0
9.083164417E0,5.427421237E0,4.161551673E0,1.649413289E0,7.035337789E0
9.093173417E0,4.705472537E0,3.025296754E0,1.187832624E-2,5.594107019E0
9.103183417E0,3.078840877E0,1.180168093E0,-3.631527886E0,4.905104756E0
9.113192417E0,-1.929794296E0,-1.170602049E0,-1.267255354E1,1.287198619E1
9.123201417E0,-1.236084666E1,-4.261234421E0,-2.420663080E1,2.751199054E1
9.133210417E0,-1.927185561E1,-9.555268974E0,-2.441108688E1,3.253626817E1
9.143220417E0,-1.778810008E1,-1.320166574E1,-7.916400261E0,2.352381508E1
9.153229417E0,-1.529623312E1,-1.145606254E1,8.060758075E-1,1.912762073E1
9.163238417E0,-8.947704676E0,-5.252869570E0,-3.288457711E0,1.088430116E1
9.173248417E0,-3.968489476E0,-1.847158813E-1,-4.723205095E0,6.171846972E0
9.183257417E0,-1.706988483E0,2.404364551E0,-3.531404551E0,4.600608294E0
9.193266417E0,1.703702640E0,3.502904345E0,-1.156549143E0,4.063317297E0
9.203276417E0,6.253521711E0,2.072709310E0,2.118645913E0,6.920355351E0
9.213285417E0,1.004398686E1,-1.652072310E-1,4.948854117E0,1.119821961E1
9.223294417E0,1.080875589E1,-2.660941544E0,5.552326534E0,1.243937875E1
9.233304417E0,7.114117835E0,-5.757448028E0,4.024629178E0,9.997825783E0
9.243313417E0,1.625866259E0,-8.982877432E0,6.794387113E-1,9.154079146E0
9.253322417E0,-5.243999344E0,-8.062372491E0,-5.425717358E0,1.104263502E1
9.263332417E0,-4.717569256E0,-9.834110409E-1,7.329803494E-1,4.874404287E0
9.273341417E0,1.387615026E0,3.593675351E0,9.567936966E0,1.031432963E1
9.283350417E0,4.431258003E0,5.243184242E0,1.155132655E1,1.343726808E1
9.293359417E0,6.943277396E0,5.134235412E0,8.737225378E0,1.228448540E1
9.303369417E0,8.303050320E0,4.213671999E0,4.922504225E0,1.053217566E1
9.313378417E0,7.858646142E0,2.187839817E0,4.421059874E0,9.278509184E0
9.323387417E0,5.974481471E0,-9.052822995E-1,4.254614203E0,7.390244035E0
9.333397417E0,3.361258762E0,-3.432810262E0,3.316586326E0,5.837978385E0
9.343406417E0,9.302706680E-1,-4.238434957E0,3.409286914E0,5.518421121E0
9.353415417E0,5.325056371E-1,-3.801831551E0,3.207221174E0,5.002374741E0
9.363425417E0,2.747065768E-1,-2.774948800E0,2.297266949E0,3.612926789E0
9.373434417E0,-5.473578572E-3,-1.688450178E0,1.684554909E0,2.385082641E0
9.383443417E0,-1.884329563E-1,-9.910188532E-1,2.237299075E0,2.454207102E0
9.393453417E0,-4.731751093E-1,-6.601009458E-1,2.987740088E0,3.096161942E0
9.403462417E0,-8.840294248E-1,-4.678485882E-1,2.870308117E0,3.039582045E0
9.413471417E0,-1.264000209E0,-7.823282182E-2,1.882650243E0,2.268962062E0
9.423481417E0,-1.382794289E0,3.997694564E-1,1.064293821E0,1.790155580E0
9.433490417E0,-1.259903650E0,7.674248350E-1,1.108248510E0,1.845132202E0
9.443499417E0,-1.139303365E0,6.865151578E-1,1.498350180E0,2.003588901E0
9.453508417E0,-1.149804964E0,4.863497633E-1,1.980933752E0,2.341513630E0
9.463518417E0,-9.815753075E-1,4.082011414E-1,1.894572716E0,2.172446554E0
9.473527417E0,-6.598319739E-1,5.525051612E-1,7.873860598E-1,1.166454883E0
9.483536417E0,-2.922260043E-1,8.251625812E-1,-6.479218534E-1,1.089078533E0
9.493546417E0,-4.576118678E-2,8.115871006E-1,-1.277704328E0,1.514363252E0
9.503555417E0,7.672745615E-2,7.607689494E-1,-1.314302051E0,1.520541475E0
9.513564417E0,-1.880677977E-1,7.914130372E-1,-1.212381062E0,1.459990388E0
9.523574417E0,-5.557883728E-1,9.009816724E-1,-1.328095633E0,1.698383555E0
9.533583417E0,-5.587385854E-1,1.031010885E0,-1.330353974E0,1.773418717E0
9.543592417E0,-5.964215514E-1,9.402708685E-1,-9.973386700E-1,1.494828551E0
9.553602417E0,-2.219842798E-1,8.446840954E-1,-3.743985339E-1,9.502328681E-1
9.563611417E0,2.699010426E-1,1.171161627E0,-1.208946919E-1,1.207924524E0
9.573620417E0,4.188141301E-1,1.329656839E0,-7.719823010E-1,1.593533576E0
9.583629417E0,6.034326553E-1,1.498791645E0,-1.074886783E0,1.940589849E0
9.593639417E0,9.933241180E-1,1.669998704E0,-1.001156902E0,2.185841627E0
9.603648417E0,9.112584463E-1,1.407425977E0,-8.177117667E-1,1.865446963E0
9.613657417E0,-4.872139817E-1,2.915912890E-1,-4.216164082E-1,7.072222703E-1
9.623667417E0,-1.710245090E0,-5.205296624E-1,-4.583456933E-2,1.788292539E0
9.633676417E0,-1.797398424E0,-3.696282291E-1,-8.465803474E-2,1.836963011E0
9.643685417E0,-1.328307302E0,2.452287161E-1,-1.332233415E0,1.897204070E0
9.653695417E0,-3.004118139E-1,1.000194304E0,-4.115734645E0,4.246163866E0
9.663704417E0,-2.170354888E-1,8.465312308E-1,-6.921407640E0,6.976360315E0
9.673713417E0,-1.163581297E0,1.854128695E-1,-7.070998127E0,7.168494534E0
9.683723417E0,-1.881176306E0,-4.367659593E-1,-4.825236669E0,5.197354877E0
9.693732417E0,-2.483510708E0,-2.922613800E-1,-2.715213060E0,3.691290305E0
9.703741417E0,-4.023122351E0,5.762419331E-1,-1.739866207E0,4.420939112E0
9.713750417E0,-6.234411256E0,1.068640641E0,-1.346277550E0,6.467019389E0
9.723760417E0,-7.453680850E0,9.467653710E-1,-1.415896254E0,7.645814874E0
9.733769417E0,-6.932765272E0,2.420244420E-1,-2.729132065E0,7.454526945E0
9.743778417E0,-5.877716483E0,-8.204883170E-1,-4.769907976E0,7.613985437E0
9.753788417E0,-5.244049630E0,-1.303777648E0,-6.241112165E0,8.255384530E0
9.763797417E0,-5.573505149E0,-1.819732448E0,-6.597083053E0,8.825921518E0
9.773806417E0,-7.072045364E0,-3.004050311E0,-6.378634000E0,9.986246322E0
9.783816417E0,-8.084939235E0,-3.550431683E0,-6.351291250E0,1.087707259E1
9.793825417E0,-7.935725893E0,-3.207791278E0,-6.202889501E0,1.057078561E1
9.803834417E0,-7.012085091E0,-3.081892539E0,-5.322053241E0,9.326931416E0
9.813843708E0,-4.809519061E0,-3.393059136E0,-5.698237953E0,8.192328099E0
9.823853708E0,-1.686527613E0,-3.669252952E0,-7.467493143E0,8.489478574E0
9.833862708E0,4.590312794E-1,-3.802541403E0,-7.034281121E0,8.009440788E0
9.843871708E0,1.040881569E0,-4.454516473E0,-5.403635348E0,7.079931244E0
9.853881708E0,-2.795846164E-2,-6.464388095E0,-3.431615092E0,7.318816657E0
9.863890708E0,-5.053663704E-1,-7.922955574E0,1.106021891E0,8.015728577E0
9.873899708E0,-4.711931956E-1,-8.418964938E0,5.693653736E0,1.017441333E1
9.883909708E0,-6.836494374E-1,-8.612120106E0,7.693445928E0,1.156827989E1
9.893918708E0,-1.767344320E-1,-7.543023967E0,7.534993401E0,1.066323455E1
9.903927708E0,6.874852109E-1,-5.262208158E0,6.176568260E0,8.143308056E0
9.913936708E0,6.599687988E-1,-3.464105145E0,4.637327331E0,5.825837970E0
9.923946708E0,-7.885525793E-2,-3.089360018E0,3.526315427E0,4.688844630E0
9.933955708E0,-7.646491617E-1,-3.316819046E0,2.645815966E0,4.311185341E0
9.943964708E0,-1.294364507E0,-3.225732874E0,2.061316741E0,4.041009622E0
9.953974708E0,-2.257995295E0,-2.720945671E0,2.019977950E0,4.072149188E0
9.963983708E0,-2.855805852E0,-2.138669411E0,2.024537609E0,4.102229448E0
9.973992708E0,-2.254479657E0,-1.342739400E0,2.576616508E0,3.677578041E0
9.984002708E0,-1.209917557E0,-8.479409945E-1,3.830742524E0,4.105787709E0
9.994011708E0,-8.716163707E-1,-9.699530894E-1,4.988007073E0,5.155651138E0
1.000402071E1,-2.954700395E-1,-9.337354356E-1,5.539588959E0,5.625496444E0
1.001402971E1,8.666979852E-1,-6.424189657E-1,5.552506628E0,5.656341342E0
1.002403971E1,2.161328833E0,-2.214896053E-1,5.539001314E0,5.949868530E0
1.003404871E1,3.418589834E0,3.352471858E-1,5.607695573E0,6.576123232E0
1.004405771E1,4.290504120E0,1.048926753E0,5.625798553E0,7.152501821E0
1.005406771E1,4.734788429E0,1.794871842E0,5.555139045E0,7.516605364E0
1.006407671E1,5.017298115E0,2.404106689E0,5.656527425E0,7.934060238E0
1.007408571E1,5.319416147E0,2.954719691E0,5.556021974E0,8.239899075E0
1.008409571E1,5.701000763E0,3.512627095E0,5.152348917E0,8.449062561E0
1.009410471E1,6.129580035E0,3.901801397E0,4.741321231E0,8.676170386E0
1.010411371E1,6.405435297E0,4.203354587E0,4.573238047E0,8.922572352E0
1.011412271E1,6.671939108E0,4.406023175E0,4.435535241E0,9.143401148E0
1.012413271E1,6.942311436E0,4.662725882E0,4.326637866E0,9.415757853E0
1.013414171E1,7.134233426E0,4.904452116E0,4.341921319E0,9.685206135E0
1.014415071E1,6.951130207E0,5.069826577E0,4.395291487E0,9.661259749E0
1.015416071E1,6.392261521E0,5.184567659E0,4.187040855E0,9.234287211E0
1.016416971E1,5.647126272E0,5.028202003E0,3.638738380E0,8.391261378E0
1.017417871E1,5.160777678E0,4.466514375E0,2.632859998E0,7.315417190E0
1.018418771E1,4.607581376E0,3.527419381E0,1.036399679E0,5.894626190E0
1.019419771E1,3.749194331E0,2.156251988E0,-1.607040856E0,4.613942033E0
1.020420671E1,1.435624759E0,4.262696224E-1,-6.960091065E0,7.119381424E0
1.021421571E1,-4.482688358E0,-1.862002555E0,-1.526445350E1,1.601764930E1
1.022422571E1,-1.049409616E1,-5.549705227E0,-2.003022194E1,2.328379422E1
1.023423471E1,-1.098970032E1,-9.696809015E0,-1.416660719E1,2.038367919E1
1.024424371E1,-1.078061909E1,-1.018991348E1,-4.953537737E0,1.563948915E1
1.025425271E1,-1.040507815E1,-5.901064416E0,-2.199498288E0,1.216248352E1
1.026426271E1,-5.309222696E0,-1.100607954E0,-2.692715021E0,6.053915897E0
1.027427171E1,-2.076739796E0,1.440266279E0,-1.935409670E0,3.183241386E0
1.028428071E1,-8.691003138E-1,3.527785417E0,-5.543230605E-1,3.675306703E0
1.029429071E1,7.696140325E-1,5.372371455E0,3.052880993E-1,5.435796320E0
1.030429971E1,2.669260377E0,5.957438006E0,1.482669117E0,6.694350325E0
1.031430871E1,5.191177937E0,3.400657593E0,4.861464263E0,7.883313721E0
1.032431871E1,7.889824081E0,-2.344174483E0,7.803916204E0,1.134220376E1
1.033432771E1,6.427574025E0,-7.476842841E0,4.931187340E0,1.102422312E1
1.034433671E1,1.043090647E-1,-1.249038471E1,-4.360551133E0,1.323007924E1
1.035434571E1,-8.874547237E0,-1.692037211E1,-1.335744960E1,2.331261549E1
1.036435571E1,-1.389277389E1,-1.520386465E1,-1.035927107E1,2.305387524E1
1.037436471E1,-5.061842789E0,-5.329521305E0,7.847625310E0,1.075226826E1
1.038437371E1,6.548634778E0,3.711096797E0,1.800509025E1,1.951512572E1
1.039438371E1,1.070251198E1,7.136657097E0,1.505091201E1,1.979913103E1
1.040439271E1,1.305095493E1,8.760514838E0,4.234097493E0,1.627887055E1
1.041440171E1,1.337117653E1,8.917689164E0,-1.368527667E-1,1.607271820E1
1.042441071E1,1.082385340E1,6.370310488E0,4.712535388E0,1.341434486E1
1.043442071E1,8.835487837E0,1.713342944E0,6.382365693E0,1.103340297E1
1.044442971E1,6.621529677E0,-2.649864578E0,5.967316293E0,9.299209713E0
1.045443871E1,3.820937912E0,-5.283275676E0,6.120981120E0,8.943096683E0
1.046444871E1,1.176527617E0,-6.342909266E0,6.384885843E0,9.076534714E0
1.047445771E1,-8.572608715E-1,-5.952395368E0,4.770718693E0,7.676305339E0
1.048446671E1,-2.074947917E0,-5.213112597E0,2.611982807E0,6.189055339E0
1.049447571E1,-2.361077029E0,-4.319838139E0,1.304664670E0,5.092920203E0
1.050448571E1,-2.130402325E0,-3.146444045E0,9.506123272E-1,3.916936047E0
1.051449471E1,-2.326860877E0,-1.766481856E0,7.617542052E-1,3.019107344E0
1.052450371E1,-2.726588818E0,-3.003872555E-1,6.681636715E-1,2.823289178E0
1.053451371E1,-2.993546373E0,1.119119069E0,9.934805310E-1,3.346752298E0
1.054452271E1,-2.992172277E0,1.926631830E0,1.493592886E0,3.859510960E0
1.055453171E1,-2.763430078E0,1.598842183E0,1.756337521E0,3.643839130E0
1.056454171E1,-2.507639828E0,1.003919565E0,1.555838835E0,3.117169627E0
1.057455071E1,-2.012798154E0,7.788918096E-1,1.521253724E0,2.640500284E0
1.058455971E1,-9.760979283E-1,8.140096021E-1,1.061267887E0,1.655798395E0
1.059456871E1,3.595879751E-1,8.400466686E-1,1.184528947E-2,9.138502220E-1
1.060457871E1,1.005842130E0,8.021765918E-1,-1.173419237E0,1.741297901E0
1.061458771E1,9.732988662E-1,6.671088338E-1,-1.920841917E0,2.254324411E0
1.062459671E1,8.158815882E-1,5.023606092E-1,-1.745661675E0,1.991322081E0
1.063460671E1,4.946045700E-1,3.335462308E-1,-1.471743010E0,1.588053606E0
1.064461571E1,2.861671194E-1,5.192999929E-1,-1.372005883E0,1.494645191E0
1.065462471E1,-3.225116578E-1,8.708328438E-1,-1.446490202E0,1.718923359E0
1.066463371E1,-5.508729109E-1,1.266053751E0,-1.360109138E0,1.938104727E0
1.067464371E1,-3.332690728E-1,1.442360752E0,-9.859880550E-1,1.778663897E0
1.068465271E1,-8.016649604E-2,1.553682382E0,-5.200618851E-1,1.640371902E0
1.069466171E1,2.566226006E-1,1.769601345E0,2.044728921E-1,1.799764774E0
1.070467071E1,3.606159157E-1,1.676621845E0,5.892658751E-1,1.813377766E0
1.071468071E1,4.712674552E-1,1.264652174E0,2.835089752E-1,1.379063259E0
1.072468971E1,5.542759904E-1,5.894712585E-1,-4.850395484E-1,9.433777619E-1
1.073469871E1,-3.175780696E-1,-1.442291754E-1,-7.432343191E-1,8.210086104E-1
1.074470871E1,-1.318298915E0,-3.561480582E-1,-4.204335165E-1,1.428816927E0
1.075471771E1,-1.967059479E0,-4.378979802E-3,-4.845783493E-1,2.025872243E0
1.076472671E1,-2.065997291E0,4.868111086E-1,-1.800184622E0,2.783162686E0
1.077473571E1,-2.079018456E0,8.131313503E-1,-4.078732880E0,4.649684101E0
1.078474571E1,-2.662932521E0,6.218946540E-1,-5.820563459E0,6.430934734E0
1.079475471E1,-2.885989180E0,-2.495065391E-2,-5.854074436E0,6.526847906E0
1.080476371E1,-2.489856691E0,-3.047241354E-1,-4.054687375E0,4.767885574E0
1.081477342E1,-3.138398277E0,-1.105784494E-1,-2.052872339E0,3.751807055E0
1.082478242E1,-4.809969882E0,7.458006620E-2,-1.126343596E0,4.940649992E0
1.083479142E1,-6.009329706E0,6.251258254E-3,-1.510871408E0,6.196354978E0
1.084480042E1,-5.716076639E0,-2.634673512E-1,-3.170250107E0,6.541668971E0
1.085481042E1,-4.860033157E0,-9.737198657E-1,-4.979732679E0,7.026079292E0
1.086481942E1,-4.360759878E0,-1.933295317E0,-5.556386256E0,7.323065323E0
1.087482842E1,-4.384843975E0,-2.251275090E0,-5.192897018E0,7.159698014E0
1.088483842E1,-5.055105042E0,-2.321531725E0,-4.578840264E0,7.204816077E0
1.089484742E1,-5.909328870E0,-2.359224631E0,-4.118385773E0,7.579393771E0
1.090485642E1,-6.728057175E0,-2.016952016E0,-4.079346837E0,8.122556211E0
1.091486542E1,-7.134507076E0,-1.838883834E0,-4.734318021E0,8.757651060E0
1.092487542E1,-6.307584482E0,-1.701300604E0,-5.343978546E0,8.440269690E0
1.093488442E1,-4.665923139E0,-1.385393084E0,-4.931324165E0,6.928788549E0
1.094489342E1,-3.323193680E0,-1.492711126E0,-4.287755052E0,5.626423920E0
1.095490342E1,-1.648468379E0,-1.884217297E0,-5.136225804E0,5.713889947E0
1.096491242E1,-5.149560964E-1,-2.568072556E0,-5.895321280E0,6.450968101E0
1.097492142E1,-9.469589138E-1,-3.732679455E0,-4.797841587E0,6.152146860E0
1.098493042E1,-1.145007324E0,-5.821159290E0,-3.595904310E0,6.937396129E0
1.099494042E1,-1.066441503E-1,-7.497297571E0,-4.153639805E-1,7.509551989E0
1.100494942E1,4.700845635E-1,-8.127205834E0,4.947427397E0,9.526252779E0
1.101495842E1,-7.034200430E-4,-7.796301960E0,8.859469607E0,1.180137816E1
1.102496742E1,-5.832977682E-2,-6.478050699E0,9.314174824E0,1.134558927E1
1.103497742E1,5.883301744E-1,-4.429095118E0,7.015319771E0,8.317314918E0
1.104498642E1,9.533557677E-1,-2.292932993E0,3.781803668E0,4.524209092E0
1.105499542E1,3.439326400E-1,-1.330911067E0,1.740360589E0,2.217762140E0
1.106500542E1,-7.757091701E-2,-1.632128627E0,1.428776500E0,2.170544492E0
1.107501442E1,1.244825435E-1,-2.251215448E0,1.828769466E0,2.903078480E0
1.108502342E1,-1.261776513E-1,-2.875890453E0,2.119689495E0,3.574877656E0
1.109503242E1,-8.154187810E-1,-2.889082357E0,2.047448461E0,3.633696445E0
1.110504242E1,-7.528009486E-1,-2.283731230E0,2.444702007E0,3.429096893E0
1.111505142E1,4.504010814E-1,-1.647682221E0,3.219712289E0,3.644758573E0
1.112506042E1,1.280575604E0,-1.302561427E0,4.357480760E0,4.724846952E0
1.113507042E1,1.452253948E0,-9.823164421E-1,4.784663425E0,5.095781708E0
1.114507942E1,1.660971773E0,-4.586713833E-1,4.946811100E0,5.238334347E0
1.115508842E1,2.185242191E0,1.294082379E-1,4.946567856E0,5.409303419E0
1.116509742E1,3.079467698E0,6.802013344E-1,5.076091869E0,5.975993961E0
1.117510742E1,3.881655400E0,1.286526607E0,5.097983844E0,6.535429491E0
1.118511642E1,4.418252626E0,1.943308674E0,5.002105880E0,6.951148689E0
1.119512542E1,4.532039735E0,2.393981066E0,5.042779112E0,7.190281683E0
1.120513442E1,4.622922131E0,2.566276292E0,5.018123742E0,7.289632976E0
1.121514442E1,4.927391328E0,2.591244487E0,4.825744500E0,7.367600917E0
1.122515342E1,5.281487598E0,2.796855978E0,4.445696533E0,7.448538935E0
1.123516242E1,5.687151048E0,3.076989648E0,4.264798006E0,7.745970202E0
1.124517242E1,5.926958225E0,3.505432681E0,4.286360199E0,8.111089682E0
1.125518142E1,6.253266773E0,3.924667518E0,4.251372799E0,8.519420821E0
1.126519042E1,6.660139427E0,4.169744791E0,4.289457176E0,8.952299798E0
1.127519942E1,6.914302104E0,4.250807666E0,4.475382554E0,9.268548343E0
1.128520942E1,6.845852258E0,4.301957354E0,4.403816143E0,9.206852168E0
1.129521842E1,6.574023973E0,4.444900142E0,4.140009069E0,8.950676151E0
1.130522742E1,6.197166247E0,4.595559500E0,3.595523071E0,8.511863648E0
1.131523642E1,5.928007801E0,4.501068496E0,2.540926273E0,7.864934864E0
1.132524642E1,5.666222109E0,3.891975735E0,1.204636791E0,6.978875118E0
1.133525542E1,4.961739627E0,2.555196987E0,-6.166391766E-1,5.614992043E0
1.134526442E1,2.906726038E0,6.370196468E-1,-4.432107604E0,5.338391902E0
1.135527442E1,-2.674174962E0,-1.615332500E0,-1.267369258E1,1.305308371E1
1.136528342E1,-1.268607698E1,-4.500239360E0,-2.322395008E1,2.684288659E1
1.137529242E1,-1.951508575E1,-9.371901460E0,-2.225693521E1,3.104903016E1
1.138530142E1,-1.850517805E1,-1.257740180E1,-7.282339890E0,2.353008978E1
1.139531142E1,-1.531979856E1,-1.014479753E1,-4.097179091E-1,1.837881971E1
1.140532042E1,-8.826508268E0,-3.622387519E0,-3.517921164E0,1.016881059E1
1.141532942E1,-4.474452555E0,6.593700439E-1,-4.131194683E0,6.125541938E0
1.142533842E1,-1.566854405E0,2.498539807E0,-2.659691701E0,3.971359193E0
1.143534842E1,2.337911530E0,1.819952304E0,-3.822909594E-2,2.963025173E0
1.144535742E1,6.344214950E0,-1.045109691E0,2.996277315E0,7.093588326E0
1.145536642E1,8.431513063E0,-3.176717420E0,4.810527706E0,1.021386914E1
1.146537642E1,6.962881356E0,-4.295928290E0,3.968449130E0,9.093146053E0
1.147538542E1,2.778354219E0,-4.467862743E0,7.720800957E-1,5.317627039E0
1.148539442E1,-5.435372865E-1,-4.056436277E0,-1.021742317E0,4.218301247E0
1.149540342E1,-1.687010009E0,-1.470354881E0,-2.961007787E0,3.711537870E0
1.150541342E1,1.625861582E0,1.939861155E0,2.755231989E0,3.741362118E0
1.151542242E1,4.772406784E0,3.919593889E0,7.698386825E0,9.869358767E0
1.152543142E1,6.042184042E0,4.235078655E0,8.585835117E0,1.132079696E1
1.153544042E1,7.706237882E0,3.436796894E0,8.679212812E0,1.210480938E1
1.154545042E1,7.708338786E0,2.198090571E0,7.221528847E0,1.078890949E1
1.155545942E1,6.152464283E0,2.134081686E-1,4.716359468E0,7.755153540E0
1.156546842E1,3.865210983E0,-2.583065402E0,3.369133207E0,5.741353619E0
1.157547742E1,1.915011658E0,-4.464418733E0,3.219419636E0,5.827775481E0
1.158548742E1,1.119329569E0,-4.199431690E0,3.306764174E0,5.461026872E0
1.159549642E1,1.036054108E0,-2.927087504E0,2.574936018E0,4.033800301E0
1.160550542E1,5.210854402E-1,-1.706129234E0,2.040949574E0,2.710697726E0
1.161551542E1,2.224096647E-1,-9.148840123E-1,2.352454140E0,2.533874365E0
1.162552442E1,-7.320450872E-2,-7.863031554E-1,2.781576619E0,2.891504806E0
1.163553342E1,-8.471410954E-1,-1.039259552E0,3.005995095E0,3.291460916E0
1.164554242E1,-1.694441820E0,-1.316426929E0,2.082201680E0,2.989929226E0
1.165555242E1,-1.564871322E0,-1.065528168E0,8.631507719E-1,2.080673397E0
1.166556142E1,-5.493184286E-1,-3.110350353E-1,6.373359811E-1,8.970455295E-1
1.167557042E1,-1.299531984E-1,2.497223014E-1,1.282916536E0,1.313439721E0
1.168557942E1,-6.442497289E-1,2.348469847E-1,1.767828469E0,1.896161469E0
1.169558942E1,-1.019848258E0,-2.424892956E-1,1.590506977E0,1.904889490E0
1.170559842E1,-7.495689002E-1,-3.789960533E-1,1.992871428E0,2.162643769E0
1.171560742E1,-3.418785131E-1,2.789636421E-1,1.769165143E0,1.823361438E0
1.172561642E1,-2.823301765E-1,7.687492293E-1,2.041181854E-1,8.440082581E-1
1.173562642E1,-3.567260554E-1,1.041028334E0,-1.046701961E0,1.518742396E0
1.174563542E1,-2.044584203E-1,1.121640973E0,-1.516345571E0,1.897151973E0
1.175564442E1,-2.219056347E-1,7.912867373E-1,-1.349737347E0,1.580242930E0
1.176565442E1,-3.644701079E-1,5.088679755E-1,-1.135160174E0,1.296292288E0
1.177566342E1,-6.197060412E-1,2.334916002E-1,-1.050834115E0,1.242097517E0
1.178567242E1,-6.447385561E-1,2.382611740E-1,-8.237418540E-1,1.072849866E0
1.179568142E1,-4.668972462E-2,4.926811284E-1,-3.575747788E-1,6.105524933E-1
1.180569142E1,3.215930602E-1,8.920722699E-1,-3.076939362E-1,9.969406148E-1
1.181570079E1,7.704022372E-1,1.472107877E0,-5.372696561E-1,1.746218741E0
1.182570979E1,1.359230594E0,1.575346316E0,-7.378830935E-1,2.207644737E0
1.183571879E1,1.144900612E0,1.324225945E0,-9.279385060E-1,1.981272732E0
1.184572879E1,-8.402653545E-2,8.793282634E-1,-9.596808471E-1,1.304325873E0
1.185573779E1,-1.639850460E0,2.796629691E-1,-7.171836577E-1,1.811538933E0
1.186574679E1,-2.188366651E0,9.574523270E-2,-3.844263625E-1,2.223937809E0
1.187575579E1,-1.912865145E0,1.470615667E-1,-1.026607347E0,2.175914247E0
1.188576579E1,-1.459535193E0,3.854706752E-1,-3.616007914E0,3.918461925E0
1.189577479E1,-1.177775120E0,5.970422333E-1,-7.178825462E0,7.299256721E0
1.190578379E1,-1.829362228E0,5.002515185E-1,-8.815379847E0,9.017080436E0
1.191579279E1,-2.932666333E0,2.020616466E-1,-6.756948853E0,7.368698564E0
1.192580279E1,-3.714323875E0,2.892939180E-1,-3.255089698E0,4.947272153E0
1.193581179E1,-4.715005252E0,6.807498032E-1,-1.009976696E0,4.869779025E0
1.194582079E1,-5.990953077E0,8.748498809E-1,-4.679824895E-1,6.072552074E0
1.195582979E1,-6.447593138E0,7.108939540E-1,-1.449798410E0,6.646709179E0
1.196583979E1,-5.870896291E0,1.979311734E-1,-3.614012552E0,6.896933140E0
1.197584879E1,-5.097274577E0,-7.646228492E-1,-5.809137415E0,7.766140207E0
1.198585779E1,-4.786124352E0,-1.725001708E0,-6.446466379E0,8.212158424E0
1.199586779E1,-5.308756673E0,-2.727232597E0,-6.019537191E0,8.476763713E0
1.200587679E1,-6.334848880E0,-4.025030882E0,-5.735608678E0,9.446078066E0
1.201588579E1,-7.037009432E0,-3.851812965E0,-5.921769991E0,9.971124545E0
1.202589479E1,-6.890239642E0,-2.348646433E0,-5.718652922E0,9.257134202E0
1.203590479E1,-6.627621306E0,-1.909272616E0,-4.933295846E0,8.479864032E0
1.204591379E1,-5.323804482E0,-2.231160668E0,-4.035290406E0,7.043049109E0
1.205592279E1,-2.532342268E0,-2.273026732E0,-4.583731753E0,5.708765599E0
1.206593179E1,8.341667086E-2,-2.446037073E0,-6.244210020E0,6.706729045E0
1.207594179E1,-2.759722066E-1,-3.644839073E0,-6.226577157E0,7.220199140E0
1.208595079E1,-1.115367495E0,-5.824058340E0,-4.645830937E0,7.533090023E0
1.209595979E1,-5.534117720E-1,-7.566692911E0,-3.342104745E-1,7.594261178E0
1.210596879E1,-2.030188358E-1,-8.110948235E0,5.199437714E0,9.636537265E0
1.211597879E1,-6.553573921E-1,-7.922870205E0,8.603514758E0,1.171417226E1
1.212598779E1,-7.496329272E-1,-6.886860536E0,9.310530839E0,1.160503262E1
1.213599679E1,8.386719882E-2,-5.120311437E0,7.669951816E0,9.222406615E0
1.214600579E1,6.418567559E-1,-3.209373534E0,4.643999004E0,5.681442188E0
1.215601579E1,2.726202902E-1,-2.021546758E0,2.557373321E0,3.271258385E0
1.216602479E1,-1.316117612E-1,-1.818081779E0,2.335946281E0,2.963003213E0
1.217603379E1,-5.511234641E-2,-2.449589256E0,2.066291406E0,3.205165373E0
1.218604279E1,-8.028782576E-2,-3.188470323E0,1.993914571E0,3.761447122E0
1.219605279E1,-7.542183137E-1,-3.193324097E0,2.543782053E0,4.151745559E0
1.220606179E1,-1.062660694E0,-2.638531505E0,2.380095244E0,3.708901404E0
1.221607079E1,-4.004155737E-1,-1.831387119E0,3.219620780E0,3.725623354E0
1.222607979E1,-3.635360152E-2,-1.058810887E0,3.928965222E0,4.069295982E0
1.223608979E1,1.894152886E-1,-6.800709414E-1,4.345963791E0,4.402928107E0
1.224609879E1,1.116315329E0,-3.126190460E-1,5.121632323E0,5.251191126E0
1.225610779E1,2.379564756E0,1.392830157E-1,5.450739933E0,5.949142291E0
1.226611679E1,3.478778441E0,5.239923835E-1,5.401405220E0,6.446056609E0
1.227612679E1,4.310873188E0,1.064652840E0,5.295790472E0,6.911042616E0
1.228613579E1,4.832064463E0,1.616963874E0,5.249646585E0,7.315887397E0
1.229614479E1,5.029551541E0,2.052404269E0,5.319631324E0,7.603106563E0
1.230615379E1,5.069810205E0,2.373997622E0,5.465461468E0,7.823688981E0
1.231616379E1,5.213520148E0,2.694938425E0,5.372814674E0,7.956797281E0
1.232617279E1,5.433780084E0,3.098481089E0,5.064745932E0,8.048490692E0
1.233618179E1,5.630755822E0,3.555507066E0,4.826305541E0,8.224370298E0
1.234619079E1,5.671221478E0,4.029329755E0,4.808679986E0,8.457047625E0
1.235620079E1,5.665432150E0,4.431473765E0,4.724142989E0,8.605382511E0
1.236620979E1,5.689450173E0,4.685431205E0,4.613481216E0,8.695246850E0
1.237621879E1,5.882959097E0,4.847770377E0,4.577541013E0,8.891792119E0
1.238622779E1,6.159120753E0,4.941784249E0,4.504201434E0,9.090865227E0
1.239623779E1,6.238987872E0,5.027776326E0,4.220091949E0,9.056085275E0
1.240624679E1,6.172664659E0,4.961480010E0,3.630199107E0,8.711855051E0
1.241625579E1,6.012926329E0,4.615654042E0,2.546260395E0,7.996435910E0
1.242626579E1,5.722680484E0,3.886350714E0,8.871582699E-1,6.974227096E0
1.243627479E1,4.775350564E0,2.509832534E0,-1.846737522E0,5.702076099E0
1.244628379E1,2.242686700E0,2.364000052E-1,-8.007906847E0,8.319381027E0
1.245629279E1,-4.649595082E0,-3.210497369E0,-1.875226852E1,1.958503516E1
1.246630179E1,-1.357879361E1,-9.970672131E0,-2.358719549E1,2.898540546E1
1.247631179E1,-1.468744675E1,-1.736507742E1,-1.416091668E1,2.679176304E1
1.248632079E1,-1.554842236E1,-1.541228281E1,-3.785185697E0,2.221755004E1
1.249632979E1,-1.325850185E1,-7.368334306E0,-4.314668616E0,1.577011690E1
1.250633879E1,-6.068876581E0,-5.019238222E-1,-4.564803146E0,7.610559654E0
1.251634879E1,-2.634213921E0,3.365266151E0,-2.950757910E0,5.193368030E0
1.252635779E1,-3.440530926E-1,6.706697881E0,-1.320528166E0,6.844118909E0
1.253636679E1,1.939321457E0,9.181503255E0,1.607284100E-1,9.385457014E0
1.254637579E1,4.030372898E0,1.002711530E1,1.850496404E0,1.096409066E1
1.255638579E1,6.015740009E0,8.787981548E0,6.959478861E0,1.272211042E1
1.256639479E1,6.654131413E0,4.926259307E0,1.316349980E1,1.555066631E1
1.257640379E1,4.750233557E0,1.116981912E0,1.350001992E1,1.435489134E1
1.258641279E1,2.471891121E0,-3.892824751E0,6.783428553E0,8.202391919E0
1.259642279E1,-3.271356944E0,-1.314179727E1,-5.619798725E0,1.466256286E1
1.260643179E1,-1.330793421E1,-2.074504171E1,-1.817143418E1,3.062121632E1
1.261644079E1,-1.702767202E1,-1.936612793E1,-1.471111277E1,2.968847191E1
1.262644979E1,-5.524641722E0,-7.877049084E0,3.575401633E0,1.026416413E1
1.263645979E1,7.945929285E0,2.012312250E0,1.413057547E1,1.633586104E1
1.264646879E1,1.370317208E1,5.828719155E0,1.435513428E1,2.068382876E1
1.265647779E1,1.734148507E1,8.123069513E0,4.084007653E0,1.958035958E1
1.266648679E1,1.758719911E1,9.003652005E0,-9.632549576E-1,1.978138473E1
1.267649679E1,1.238429984E1,7.531272233E0,5.873076718E0,1.563918074E1
1.268650579E1,9.275903628E0,4.803945495E0,7.958569211E0,1.313236857E1
1.269651479E1,7.349619123E0,8.353642184E-1,6.506814322E0,9.851566741E0
1.270652379E1,5.270317662E0,-2.825476345E0,4.695148108E0,7.602892909E0
1.271653379E1,3.169590248E0,-5.313577117E0,3.836119623E0,7.279850128E0
1.272654279E1,4.320475486E-1,-6.428082148E0,3.279064744E0,7.229050476E0
1.273655179E1,-1.837365312E0,-6.551885245E0,2.541728511E0,7.263848524E0
1.274656079E1,-2.969306155E0,-6.163752333E0,2.552424238E0,7.302293568E0
1.275657079E1,-3.782161810E0,-5.304658359E0,3.425355062E0,7.360516664E0
1.276657979E1,-4.535254534E0,-3.601957932E0,2.626024311E0,6.359138174E0
1.277658879E1,-4.868827370E0,-8.860701030E-1,5.176575100E-1,4.975798376E0
1.278659779E1,-4.713890773E0,1.672875534E0,-2.768492889E-1,5.009583246E0
1.279660779E1,-4.331198110E0,2.872630631E0,3.050550878E-1,5.206183095E0
1.280661679E1,-3.775063582E0,2.294272006E0,1.099891670E0,4.552422517E0
1.281662583E1,-3.244168561E0,1.068183973E0,1.739633195E0,3.833010606E0
1.282663483E1,-2.284331739E0,5.881386781E-1,1.761351508E0,2.943881406E0
1.283664483E1,-8.131357357E-1,5.161290479E-1,1.231363829E0,1.563277262E0
1.284665383E1,4.969940346E-1,3.241567719E-1,1.172624016E-1,6.048397755E-1
1.285666283E1,1.162243746E0,2.719148237E-1,-1.115814661E0,1.633949374E0
1.286667183E1,1.300881522E0,3.485209501E-1,-1.931605471E0,2.354752489E0
1.287668183E1,1.252832319E0,5.185883868E-1,-2.173925929E0,2.562123471E0
1.288669083E1,1.085898406E0,9.864334667E-1,-1.835260461E0,2.349554700E0
1.289669983E1,7.104413795E-1,1.880203183E0,-1.030344448E0,2.258650182E0
1.290670883E1,3.395440122E-1,2.606637867E0,-4.483775063E-1,2.666625863E0
1.291671883E1,7.935259286E-1,2.773133240E0,-2.701140274E-1,2.897052459E0
1.292672783E1,1.158738633E0,2.498578983E0,-6.940750229E-1,2.840301444E0
1.293673683E1,1.433635536E0,1.805376949E0,-1.649627005E0,2.834777952E0
1.294674583E1,1.294965894E0,5.906658447E-1,-2.596758119E0,2.961245605E0
1.295675583E1,3.232367125E-1,-5.884772319E-1,-2.681872237E0,2.764638515E0
1.296676483E1,-1.137905296E0,-1.062466566E0,-2.216503014E0,2.708606520E0
1.297677383E1,-2.325598756E0,-8.966336828E-1,-1.991861906E0,3.190591698E0
1.298678283E1,-3.017828690E0,-2.520839918E-1,-2.220202401E0,3.755014653E0
1.299679183E1,-3.365571960E0,6.849171138E-1,-3.085330409E0,4.616865799E0
1.300680183E1,-3.384890868E0,1.532809576E0,-4.543666923E0,5.869574133E0
1.301681083E1,-2.995770069E0,1.572616251E0,-5.729663229E0,6.654081522E0
1.302681983E1,-2.564905120E0,5.109764814E-1,-5.518737788E0,6.107069838E0
1.303682883E1,-2.316347730E0,-2.729480267E-1,-4.431685435E0,5.007973964E0
1.304683883E1,-3.091279659E0,-1.182441491E-1,-3.309069146E0,4.529892959E0
1.305684783E1,-5.192671316E0,6.063504159E-1,-1.922402831E0,5.570200074E0
1.306685683E1,-7.060295969E0,1.204596591E0,-7.928704557E-1,7.206072139E0
1.307686583E1,-7.330334421E0,1.106779105E0,-1.224146464E0,7.513807109E0
1.308687583E1,-6.506664634E0,5.668150520E-1,-3.170960836E0,7.260368901E0
1.309688483E1,-5.714706051E0,-4.078701890E-1,-5.499168912E0,7.941352659E0
1.310689383E1,-5.803261548E0,-1.571918678E0,-6.756198655E0,9.044058447E0
1.311690283E1,-6.704616272E0,-2.734297203E0,-6.376439540E0,9.648172975E0
1.312691283E1,-7.832336596E0,-3.829494143E0,-6.092011675E0,1.063593570E1
1.313692183E1,-7.851033068E0,-3.999169232E0,-5.856495768E0,1.057972672E1
1.314693083E1,-6.598239632E0,-3.441504487E0,-5.105968217E0,9.025055724E0
1.315693983E1,-4.788203622E0,-3.198156236E0,-4.770966614E0,7.477781734E0
1.316694983E1,-2.782083280E0,-3.238107921E0,-5.833605673E0,7.228850907E0
1.317695883E1,-8.308133304E-1,-3.369408318E0,-6.674356931E0,7.522646054E0
1.318696783E1,5.494453132E-2,-3.923516786E0,-4.984233280E0,6.343467842E0
1.319697683E1,-3.554238805E-1,-5.708301011E0,-3.073839753E0,6.493036069E0
1.320698683E1,-8.550748900E-1,-7.616003065E0,-8.496006170E-2,7.664324756E0
1.321699583E1,-1.133981522E0,-8.336693444E0,4.734455431E0,9.654089284E0
1.322700483E1,-1.291099715E0,-8.061488977E0,8.470283611E0,1.176436345E1
1.323701383E1,-5.801253614E-1,-7.132138953E0,9.690127401E0,1.204585076E1
1.324702283E1,6.426739043E-1,-5.593390360E0,8.562152724E0,1.024741454E1
1.325703283E1,7.754343510E-1,-3.510665939E0,5.979156904E0,6.976846784E0
1.326704183E1,-4.478031635E-1,-2.249808024E0,3.660215496E0,4.319645968E0
1.327705083E1,-1.098789762E0,-2.297544692E0,2.663235991E0,3.684952713E0
1.328705983E1,-9.694709864E-1,-2.872154083E0,2.098582216E0,3.686894409E0
1.329706983E1,-5.684435016E-1,-3.175028159E0,2.603969198E0,4.145429701E0
1.330707883E1,-6.803551161E-1,-2.548772652E0,3.706608474E0,4.549513325E0
1.331708783E1,-5.537801465E-1,-1.531140196E0,3.589223281E0,3.941267120E0
1.332709683E1,-9.812849933E-1,-9.680889970E-1,3.361828865E0,3.633457013E0
1.333710683E1,-1.465861881E0,-1.045233652E0,3.462603873E0,3.902677289E0
1.334711583E1,-9.870132181E-1,-1.032809488E0,3.942260621E0,4.193126439E0
1.335712483E1,1.410216853E-1,-7.682083619E-1,4.809845921E0,4.872848139E0
1.336713383E1,1.719499185E0,-4.093588901E-1,5.533530074E0,5.808976436E0
1.337714283E1,3.112032012E0,1.676227158E-1,5.686910727E0,6.484889686E0
1.338715283E1,3.927785254E0,1.043613973E0,5.349201279E0,6.717929848E0
1.339716183E1,4.203582628E0,1.962983385E0,5.345285983E0,7.077816960E0
1.340717083E1,4.709918759E0,2.661988780E0,5.623737994E0,7.803585587E0
1.341717983E1,5.504100453E0,3.157210523E0,5.547414873E0,8.428339804E0
1.342718983E1,6.359767374E0,3.529077652E0,5.183858392E0,8.931596607E0
1.343719883E1,7.025997956E0,3.988479352E0,4.727736980E0,9.360775169E0
1.344720783E1,7.495035868E0,4.417705327E0,4.446284178E0,9.770420974E0
1.345721683E1,7.796457496E0,4.735909048E0,4.202641811E0,1.004369365E1
1.346722683E1,7.876298302E0,4.902569312E0,4.110557520E0,1.014731215E1
1.347723583E1,7.871931016E0,4.964448057E0,4.059658970E0,1.015351532E1
1.348724483E1,7.661417220E0,4.933250822E0,4.001953676E0,9.952382163E0
1.349725383E1,7.282631081E0,4.859090002E0,3.752034031E0,9.524979290E0
1.350726383E1,6.827845173E0,4.621092537E0,3.122599685E0,8.816155326E0
1.351727283E1,6.511139508E0,4.157399565E0,2.165052925E0,8.022865012E0
1.352728183E1,6.292793366E0,3.306927311E0,5.085393620E-1,7.126964913E0
1.353729083E1,5.301587986E0,1.734368362E0,-2.077314577E0,5.952319266E0
1.354729983E1,2.445697057E0,-2.822942162E-1,-7.456305081E0,7.852235960E0
1.355730983E1,-3.748820986E0,-2.570621942E0,-1.586017485E1,1.649869395E1
1.356731883E1,-1.145933815E1,-5.883047390E0,-2.070433106E1,2.438433928E1
1.357732783E1,-1.564450381E1,-9.764674138E0,-1.663144715E1,2.483353367E1
1.358733683E1,-1.672491957E1,-9.894978755E0,-6.073615165E0,2.035982172E1
1.359734683E1,-1.460737615E1,-5.797980343E0,-8.090485319E-1,1.573679045E1
1.360735583E1,-8.301944026E0,-3.713133967E-1,-1.568489871E0,8.456968058E0
1.361736483E1,-4.945168033E0,2.963986943E0,-1.668765234E0,6.002056554E0
1.362737383E1,-2.240401608E0,4.632427365E0,-8.897149649E-1,5.222104496E0
1.363738383E1,1.740811409E0,4.521496328E0,7.137965119E-1,4.897331811E0
1.364739283E1,5.715200726E0,1.971393435E0,4.478293591E0,7.523631098E0
1.365740183E1,8.031612629E0,-1.600444905E0,7.716612597E0,1.125230355E1
1.366741083E1,6.806816831E0,-5.979980777E0,6.275528877E0,1.102157830E1
1.367741983E1,1.146243133E0,-1.086763150E1,3.981319436E-1,1.093516332E1
1.368742983E1,-6.384245573E0,-1.531099734E1,-9.618238224E0,1.917539406E1
1.369743883E1,-1.029046103E1,-1.314570906E1,-1.093679471E1,1.995787397E1
1.370744783E1,-1.715019926E0,-2.866503333E0,4.197669632E0,5.364565690E0
1.371745683E1,7.194466764E0,4.452658812E0,1.544862676E1,1.761381819E1
1.372746683E1,1.134009705E1,6.748493779E0,1.391754270E1,1.917910228E1
1.373747583E1,1.393462943E1,7.572724314E0,4.771906262E0,1.656173724E1
1.374748483E1,1.422042262E1,7.355692626E0,-5.128212780E-2,1.601028617E1
1.375749383E1,1.130713045E1,4.538945589E0,4.252212167E0,1.290482601E1
1.376750283E1,9.136487296E0,4.773508984E-1,6.676444387E0,1.132599548E1
1.377751283E1,6.689792411E0,-3.013715174E0,6.216498896E0,9.616686549E0
1.378752183E1,4.108736113E0,-4.880679091E0,4.972060547E0,8.088518215E0
1.379753083E1,1.936863872E0,-5.302576166E0,4.435976121E0,7.179598861E0
1.380753983E1,4.461440161E-1,-5.134408489E0,3.581929464E0,6.276257938E0
1.381755017E1,-3.242169982E-1,-4.663113552E0,3.306780546E0,5.725778745E0
1.382755917E1,-9.905428898E-1,-4.077565191E0,4.756822200E0,6.343112055E0
1.383756817E1,-2.299536546E0,-3.539982124E0,5.294576590E0,6.771401851E0
1.384757717E1,-4.326810067E0,-2.511007240E0,3.503388494E0,6.107386811E0
1.385758717E1,-5.950660499E0,-7.837333041E-1,5.355418038E-1,6.025894397E0
1.386759617E1,-6.200304447E0,1.209700626E0,-5.126674962E-1,6.337979079E0
1.387760517E1,-5.442517578E0,2.471076019E0,5.663800192E-1,6.003998718E0
1.388761417E1,-4.525215157E0,2.058943795E0,1.715467823E0,5.259244396E0
1.389762317E1,-3.865289336E0,6.669977367E-1,2.147895148E0,4.472001922E0
1.390763317E1,-2.597659175E0,-2.634696901E-2,1.661562341E0,3.083718010E0
1.391764217E1,-8.270597103E-1,-2.361386347E-1,7.645170146E-1,1.150771691E0
1.392765117E1,9.126500836E-1,-1.911571741E-2,-4.873584445E-1,1.034801353E0
1.393766017E1,1.978952715E0,3.971101427E-1,-1.800129658E0,2.704517905E0
1.394767017E1,2.569805671E0,8.083763945E-1,-2.425490541E0,3.624965924E0
1.395767917E1,2.553370902E0,1.030126786E0,-2.211828604E0,3.531720534E0
1.396768817E1,2.063934394E0,1.080324547E0,-1.849658498E0,2.974586168E0
1.397769717E1,1.532861617E0,1.175000324E0,-1.063039593E0,2.204618714E0
1.398770617E1,1.211096064E0,1.424374716E0,-1.632815968E-1,1.876767936E0
1.399771617E1,1.253202741E0,1.309236023E0,1.694166416E-1,1.820252200E0
1.400772517E1,1.450467624E0,1.253482822E0,3.756704494E-2,1.917416699E0
1.401773417E1,1.505280593E0,1.161007352E0,-4.179709616E-1,1.946408863E0
1.402774317E1,1.340912437E0,1.099256077E0,-1.040755416E0,2.022271476E0
1.403775317E1,8.474319944E-1,5.173639798E-1,-1.287524435E0,1.625892260E0
1.404776217E1,-1.592158815E-1,-4.717007339E-1,-9.374247363E-1,1.061421884E0
1.405777117E1,-1.575314156E0,-8.816326511E-1,-4.623402187E-1,1.863504575E0
1.406778017E1,-2.599791362E0,-4.486352223E-1,-8.988924623E-2,2.639747860E0
1.407778917E1,-2.646010386E0,6.687466389E-1,-1.543115586E0,3.135250986E0
1.408779917E1,-2.552471308E0,1.618346740E0,-4.919773575E0,5.773935225E0
1.409780817E1,-2.930252310E0,1.671751699E0,-7.739492751E0,8.442800506E0
1.410781717E1,-3.276413031E0,8.559809160E-1,-7.206855844E0,7.962810863E0
1.411782617E1,-2.836780182E0,1.826038671E-1,-4.328271871E0,5.178281893E0
1.412783617E1,-3.482861259E0,3.063683724E-1,-2.195168717E0,4.128310771E0
1.413784517E1,-5.790185419E0,8.010591888E-1,-1.388786515E0,6.008050516E0
1.414785417E1,-7.665530151E0,9.522728634E-1,-1.468061019E0,7.862720856E0
1.415786317E1,-7.246480086E0,3.322066337E-1,-2.458965851E0,7.659526613E0
1.416787217E1,-5.886296103E0,-7.892764646E-1,-4.233643749E0,7.293502488E0
1.417788217E1,-5.024568543E0,-1.580937424E0,-5.303083119E0,7.474512878E0
1.418789117E1,-4.262500635E0,-2.058267272E0,-5.802270445E0,7.488105110E0
1.419790017E1,-4.280960295E0,-2.717736719E0,-5.986268873E0,7.845261559E0
1.420790917E1,-5.162890277E0,-3.043945279E0,-5.756991946E0,8.310475024E0
1.421791817E1,-6.463830271E0,-2.877455168E0,-5.935238467E0,9.235145136E0
1.422792817E1,-7.001675878E0,-2.214471545E0,-6.216745064E0,9.621604258E0
1.423793717E1,-6.119716952E0,-1.505863268E0,-5.764697991E0,8.541094934E0
1.424794617E1,-5.153967426E0,-1.420734825E0,-4.803260202E0,7.187014417E0
1.425795517E1,-4.386002308E0,-2.067004182E0,-4.934475814E0,6.917989166E0
1.426796517E1,-3.208189766E0,-2.858213736E0,-5.744268404E0,7.173457105E0
1.427797417E1,-1.902022361E0,-3.451430136E0,-4.432389439E0,5.930947242E0
1.428798317E1,-1.289311928E0,-4.869715562E0,-2.840859200E0,5.783332594E0
1.429799217E1,-5.781864247E-1,-6.771547011E0,-7.372379994E-1,6.836056490E0
1.430800117E1,4.533355066E-1,-7.623534864E0,3.723863608E0,8.496526176E0
1.431801117E1,6.431408045E-1,-7.688676354E0,7.553483466E0,1.079742963E1
1.432802017E1,1.906630844E-1,-7.011491598E0,8.628841388E0,1.111999418E1
1.433802917E1,1.668771958E-1,-5.684182416E0,7.051275469E0,9.058601629E0
1.434803817E1,7.810353988E-1,-4.185936316E0,4.109391586E0,5.917700427E0
1.435804817E1,1.094901656E0,-3.046908647E0,2.053894140E0,3.834180888E0
1.436805717E1,1.173970922E0,-2.858487970E0,1.506921029E0,3.438018643E0
1.437806617E1,9.009290475E-1,-3.162035061E0,1.638132548E0,3.673365912E0
1.438807517E1,7.184739920E-1,-3.508067436E0,1.764585750E0,3.992055220E0
1.439808417E1,4.956316334E-1,-3.319479529E0,2.254435949E0,4.043151803E0
1.440809417E1,4.977524185E-1,-2.669237573E0,3.329854828E0,4.296570710E0
1.441810317E1,5.053184232E-1,-2.273040181E0,3.898194249E0,4.540702234E0
1.442811217E1,6.539619541E-1,-1.761155627E0,4.073814787E0,4.486123304E0
1.443812117E1,1.169509496E0,-1.335195322E0,3.962571801E0,4.341943607E0
1.444813017E1,1.604263721E0,-9.362175786E-1,4.483280388E0,4.852830976E0
1.445814017E1,1.764928835E0,-4.178648347E-1,5.105136158E0,5.417748611E0
1.446814917E1,2.160869827E0,1.814928961E-1,5.390632310E0,5.810440154E0
1.447815817E1,2.924712950E0,9.855657399E-1,5.038750380E0,5.908831616E0
1.448816717E1,3.657942683E0,1.779001329E0,4.677523431E0,6.198759218E0
1.449817717E1,4.058575189E0,2.221260163E0,4.923514624E0,6.756258248E0
1.450818617E1,4.635602110E0,2.554849078E0,4.946949095E0,7.244885512E0
1.451819517E1,5.070568004E0,2.832430438E0,4.935199699E0,7.621647994E0
1.452820417E1,5.332691081E0,3.169694329E0,4.956647286E0,7.940586164E0
1.453821317E1,5.508436748E0,3.622819628E0,4.866435274E0,8.194503630E0
1.454822317E1,5.645275628E0,4.078753345E0,4.762119485E0,8.437010593E0
1.455823217E1,5.759912630E0,4.375794824E0,4.706386749E0,8.629846469E0
1.456824117E1,5.946456351E0,4.546129478E0,4.840097368E0,8.913707360E0
1.457825017E1,6.128816974E0,4.601819530E0,4.986297348E0,9.143429429E0
1.458825917E1,6.024717824E0,4.621432845E0,4.993045619E0,9.087649363E0
1.459826917E1,5.575028933E0,4.734316851E0,4.894463610E0,8.800595303E0
1.460827817E1,5.056924111E0,4.941477855E0,4.669491988E0,8.473183598E0
1.461828717E1,4.720080051E0,5.095249686E0,4.039052213E0,8.034591951E0
1.462829617E1,4.469548495E0,4.713834055E0,2.752449591E0,7.055003473E0
1.463830617E1,4.219063132E0,3.484513097E0,5.682911816E-1,5.501388925E0
1.464831517E1,3.149247200E0,1.474728014E0,-3.706725419E0,5.082557818E0
1.465832417E1,-6.740304753E-1,-1.182795247E0,-1.182560540E1,1.190370803E1
1.466833317E1,-9.177692624E0,-4.965805780E0,-2.211635412E1,2.445449628E1
1.467834217E1,-1.640114521E1,-9.727632612E0,-2.258187902E1,2.955614421E1
1.468835217E1,-1.667484168E1,-1.282792341E1,-9.742455888E0,2.318450799E1
1.469836117E1,-1.447715281E1,-1.117689425E1,-1.396022591E0,1.834284050E1
1.470837017E1,-9.201092012E0,-6.426288807E0,-3.170797698E0,1.166238569E1
1.471837917E1,-4.068135971E0,-2.163487918E0,-4.173665349E0,6.216903787E0
1.472838817E1,-1.076525904E0,1.513613752E0,-3.917253249E0,4.335297871E0
1.473839817E1,1.857278590E0,4.497425095E0,-2.996218550E0,5.714336519E0
1.474840717E1,5.135609508E0,4.850868816E0,-4.577083468E-1,7.079188528E0
1.475841617E1,8.176918277E0,2.303374951E0,3.221935400E0,9.085614805E0
1.476842517E1,8.605657178E0,-6.164368629E-1,5.874699905E0,1.043788431E1
1.477843417E1,5.235775820E0,-2.839339508E0,7.063387392E0,9.239406838E0
1.478844417E1,1.135235749E0,-5.105247256E0,6.040159736E0,7.989733374E0
1.479845317E1,-2.701176234E0,-8.103156821E0,-1.047870162E0,8.605552590E0
1.480846217E1,-6.193371989E0,-7.613944260E0,-7.131772918E0,1.213227879E1
1.481847083E1,-3.156386651E0,-2.898653664E0,-2.687824410E0,5.058593659E0
1.482847983E1,2.997958682E0,1.249248269E0,5.016560197E0,5.976140368E0
1.483848983E1,7.290567507E0,3.902317121E0,9.158169941E0,1.233906521E1
1.484849883E1,1.057298446E1,4.837186332E0,8.111017233E0,1.417656420E1
1.485850783E1,1.126594968E1,5.007083030E0,5.733695469E0,1.359660864E1
1.486851683E1,9.602995117E0,4.319623547E0,5.538983188E0,1.189777280E1
1.487852683E1,7.185100694E0,2.137382439E0,5.877101941E0,9.525460771E0
1.488853583E1,4.434915144E0,-1.241101928E0,4.644974320E0,6.540993255E0
1.489854483E1,2.310930138E0,-3.668337863E0,3.600100272E0,5.635407949E0
1.490855383E1,1.768622521E0,-4.368148420E0,3.677976998E0,5.977981351E0
1.491856283E1,1.083748092E0,-4.026366971E0,3.302956467E0,5.319366723E0
1.492857283E1,7.552556098E-3,-3.661196074E0,3.159145367E0,4.835763971E0
1.493858183E1,-1.201394071E0,-3.274550693E0,3.513250408E0,4.950652319E0
1.494859083E1,-2.601086813E0,-3.081615965E0,3.442076930E0,5.301877324E0
1.495859983E1,-3.986348334E0,-2.490847794E0,2.556869291E0,5.350969664E0
1.496860883E1,-4.650908074E0,-1.224919174E0,1.456487625E0,5.025209359E0
1.497861883E1,-4.047329531E0,2.600631022E-1,9.238787842E-1,4.159574637E0
1.498862783E1,-3.040315035E0,1.211422046E0,1.295969861E0,3.520027949E0
1.499863683E1,-2.413959247E0,1.003047161E0,1.782322547E0,3.163854693E0
1.500864583E1,-2.194005706E0,2.125158834E-1,1.704532360E0,2.786441208E0
1.501865483E1,-1.817666627E0,-4.920841277E-2,1.676544077E0,2.473283946E0
1.502866483E1,-6.524542496E-1,9.895593882E-2,1.323883299E0,1.479241635E0
1.503867383E1,6.903974167E-1,1.510020053E-1,5.704842164E-1,9.082413995E-1
1.504868283E1,1.603995919E0,2.970753926E-1,-8.013820282E-1,1.817489987E0
1.505869183E1,1.773206738E0,4.352597165E-1,-2.016591243E0,2.720359057E0
1.506870083E1,1.678949330E0,3.708684236E-1,-2.038991195E0,2.667189407E0
1.507871083E1,1.403092021E0,4.423711002E-1,-1.771006431E0,2.302351665E0
1.508871983E1,9.312559238E-1,6.544466883E-1,-1.060170364E0,1.555473968E0
1.509872883E1,2.424866644E-1,1.104519156E0,3.747582838E-2,1.131444557E0
1.510873783E1,6.744985449E-1,1.548528646E0,9.831251121E-1,1.954334731E0
1.511874683E1,1.244240128E0,1.587367607E0,8.813725962E-1,2.201064985E0
1.512875683E1,1.374344185E0,1.371589562E0,-2.714039232E-1,1.960545831E0
1.513876583E1,1.658772343E0,1.194835249E0,-1.777259151E0,2.708838690E0
1.514877483E1,1.634771861E0,7.639071500E-1,-2.633239482E0,3.192175331E0
1.515878383E1,7.129980746E-1,1.115239441E-2,-2.490303419E0,2.590386409E0
1.516879283E1,-9.794045287E-1,-4.908766776E-1,-2.141369655E0,2.405339299E0
1.517880283E1,-2.582583591E0,-5.036206841E-2,-2.236178749E0,3.416543537E0
1.518881183E1,-3.511900871E0,8.951081443E-1,-3.632242416E0,5.131067266E0
1.519882083E1,-4.165030181E0,1.543677796E0,-5.789587249E0,7.297241812E0
1.520882983E1,-4.538726611E0,1.494354778E0,-6.839416813E0,8.343306166E0
1.521883883E1,-4.519874310E0,4.707031989E-1,-5.704603232E0,7.293375304E0
1.522884883E1,-4.461974889E0,-1.779541612E-1,-3.522068594E0,5.687341626E0
1.523885783E1,-4.779471974E0,1.123776376E-2,-1.937519930E0,5.157272741E0
1.524886683E1,-5.408876792E0,3.876616269E-1,-1.783380893E0,5.708474148E0
1.525887583E1,-6.046208680E0,4.250142252E-1,-2.347836009E0,6.499970033E0
1.526888483E1,-5.838689243E0,1.799416298E-1,-3.023045283E0,6.577345502E0
1.527889483E1,-5.296378117E0,-2.214779109E-1,-3.976687857E0,6.626818236E0
1.528890383E1,-4.852503113E0,-7.701081222E-1,-5.053660780E0,7.048357274E0
1.529891283E1,-4.072528692E0,-1.617558535E0,-6.237217920E0,7.622655242E0
1.530892183E1,-4.368031768E0,-2.256232944E0,-6.929560997E0,8.496417141E0
1.531893083E1,-5.075327053E0,-2.342807404E0,-6.204976373E0,8.351612001E0
1.532894083E1,-6.712253906E0,-2.672501489E0,-6.290817007E0,9.579717914E0
1.533894983E1,-6.534016154E0,-1.429003957E0,-6.445609762E0,9.288773042E0
1.534895883E1,-5.206523370E0,-7.097350359E-2,-5.758529179E0,7.763606194E0
1.535896783E1,-4.606073671E0,3.739411354E-2,-4.655588186E0,6.549184250E0
1.536897683E1,-4.775059373E0,-8.659422326E-1,-4.780113414E0,6.811793612E0
1.537898683E1,-4.865988547E0,-2.563895890E0,-5.518553601E0,7.791395287E0
1.538899583E1,-3.872971115E0,-4.670351821E0,-4.471080465E0,7.536753407E0
1.539900483E1,-1.527553807E0,-7.060922205E0,-1.884423119E0,7.465995815E0
1.540901383E1,3.658903965E-1,-8.543596001E0,3.592999413E0,9.275589102E0
1.541902283E1,4.688905621E-1,-8.788443478E0,9.306420246E0,1.280882723E1
1.542903283E1,-2.674987140E-1,-8.323558259E0,1.109419123E1,1.387206750E1
1.543904183E1,-6.346699432E-1,-7.424628959E0,9.321256971E0,1.193372334E1
1.544905083E1,2.131207779E-1,-5.502684842E0,5.240674617E0,7.601949183E0
1.545905983E1,3.284550601E-1,-3.674120175E0,1.143785694E0,3.862031525E0
1.546906883E1,-2.183236304E-1,-3.344448894E0,-3.689347494E-1,3.371812044E0
1.547907883E1,-3.203104734E-1,-3.833175550E0,4.885744826E-1,3.877439699E0
1.548908783E1,-7.929876924E-2,-4.531830697E0,1.569074593E0,4.796433346E0
1.549909683E1,1.024055037E-1,-4.466082850E0,2.929084328E0,5.341902088E0
1.550910583E1,7.236169106E-1,-3.704732103E0,4.499115525E0,5.872878502E0
1.551911483E1,7.672979504E-1,-2.916101755E0,4.707236934E0,5.590212442E0
1.552912483E1,6.489216542E-1,-1.961588239E0,4.530061622E0,4.978994480E0
1.553913383E1,9.421870011E-1,-1.147399127E0,4.316856352E0,4.565029010E0
1.554914283E1,1.442976756E0,-3.166004151E-1,4.894986643E0,5.113053097E0
1.555915183E1,1.559506501E0,3.666689533E-1,5.237731129E0,5.477256067E0
1.556916083E1,1.949985024E0,9.519986290E-1,5.087642459E0,5.531080254E0
1.557917083E1,2.963605120E0,1.608206499E0,4.683327377E0,5.770861181E0
1.558917983E1,3.740852108E0,2.354818754E0,4.514825532E0,6.318448816E0
1.559918883E1,4.526747712E0,3.016513651E0,4.638790305E0,7.149068118E0
1.560919783E1,5.184367100E0,3.207059206E0,4.899475258E0,7.820981319E0
1.561920683E1,5.646230478E0,3.302201591E0,4.989528519E0,8.226776331E0
1.562921683E1,6.064923863E0,3.648906396E0,4.872978601E0,8.593238028E0
1.563922583E1,6.488358756E0,4.171990707E0,4.736455763E0,9.051978734E0
1.564923483E1,6.768209420E0,4.781520254E0,4.724109659E0,9.538805312E0
1.565924383E1,6.871185905E0,5.197020475E0,4.760213585E0,9.842857864E0
1.566925283E1,6.811906832E0,5.329285077E0,4.875823271E0,9.928595404E0
1.567926283E1,6.604700221E0,5.214997154E0,4.947979374E0,9.762210826E0
1.568927183E1,6.285407163E0,5.017578197E0,4.865321087E0,9.399669326E0
1.569928083E1,5.965134696E0,4.888802628E0,4.468738948E0,8.913632866E0
1.570928983E1,5.721890525E0,4.745350547E0,3.785692943E0,8.342053348E0
1.571929883E1,5.484231030E0,4.249737625E0,2.697959974E0,7.444195584E0
1.572930783E1,5.010863839E0,3.210412000E0,1.174083773E0,6.065803684E0
1.573931783E1,3.793848639E0,1.494880443E0,-1.250680690E0,4.265226515E0
1.574932683E1,1.236872637E0,-6.275360477E-1,-6.326706047E0,6.476948727E0
1.575933583E1,-4.082565730E0,-3.261186297E0,-1.590494815E1,1.674126801E1
1.576934483E1,-1.164575674E1,-6.653781164E0,-2.338682778E1,2.695997343E1
1.577935383E1,-1.641002946E1,-1.004676078E1,-1.836844208E1,2.660124309E1
1.578936383E1,-1.723914243E1,-1.037987432E1,-6.240161408E0,2.106820915E1
1.579937283E1,-1.446349956E1,-6.361291743E0,-4.498698619E-1,1.580699956E1
1.580938183E1,-7.106077913E0,-9.720428842E-1,-1.412939901E0,7.310103271E0
1.581939142E1,-2.933018335E0,1.843470390E0,-1.850823848E0,3.927661970E0
1.582940042E1,-6.699640292E-1,3.335093933E0,-1.266128888E0,3.629708763E0
1.583941042E1,2.276430981E0,3.670549280E0,3.042358929E-1,4.329853289E0
1.584941942E1,5.806572826E0,2.122814686E0,3.121412115E0,6.925737778E0
1.585942842E1,8.384469289E0,8.119502127E-2,6.037201045E0,1.033216891E1
1.586943742E1,8.749205738E0,-2.183264371E0,6.898010591E0,1.135331645E1
1.587944642E1,5.792577515E0,-5.466551389E0,5.218340592E0,9.521985974E0
1.588945642E1,1.615533060E0,-1.019756749E1,-2.495339041E0,1.062200766E1
1.589946542E1,-4.776668234E0,-1.441544714E1,-1.258809168E1,1.972515470E1
1.590947442E1,-8.223860893E0,-1.166564078E1,-9.792718554E0,1.730943094E1
1.591948342E1,-8.383416206E-1,-1.657158803E0,6.327330530E0,6.594247766E0
1.592949242E1,5.692744494E0,4.801783195E0,1.593260080E1,1.758727466E1
1.593950142E1,8.994466614E0,6.758863816E0,1.482433709E1,1.861031004E1
1.594951142E1,1.096244527E1,7.203007792E0,6.894999275E0,1.481889141E1
1.595952042E1,1.148433968E1,6.683503146E0,1.556293602E0,1.337839011E1
1.596952942E1,9.628105985E0,4.410959979E0,4.025664135E0,1.132973806E1
1.597953842E1,7.195739118E0,1.014995361E0,5.536740196E0,9.135883593E0
1.598954742E1,4.551446351E0,-2.117424138E0,4.934619656E0,7.039149097E0
1.599955742E1,2.922224960E0,-3.919686275E0,4.369565785E0,6.557167404E0
1.600956642E1,1.728911448E0,-4.627004657E0,3.515362422E0,6.062679263E0
1.601957542E1,4.423313391E-1,-4.938962967E0,2.367488501E0,5.494908007E0
1.602958442E1,-1.033111497E0,-4.757084740E0,2.270952140E0,5.371629009E0
1.603959342E1,-2.578032411E0,-4.164573514E0,3.275854622E0,5.892465288E0
1.604960242E1,-4.091024897E0,-2.882503070E0,3.732874167E0,6.243369138E0
1.605961242E1,-4.996076231E0,-9.050659525E-1,1.978042889E0,5.449089443E0
1.606962142E1,-4.954622980E0,1.309968680E0,-2.182344969E-1,5.129515875E0
1.607963042E1,-4.346227208E0,2.718857045E0,-4.735554707E-1,5.148410372E0
1.608963942E1,-3.605881999E0,2.412172338E0,5.926720244E-1,4.378609426E0
1.609964842E1,-3.083139165E0,9.774521434E-1,1.018606017E0,3.390975969E0
1.610965842E1,-2.493044009E0,2.093735898E-1,1.302732750E0,2.820676931E0
1.611966742E1,-1.244918990E0,9.730760872E-2,1.099343786E0,1.663685313E0
1.612967642E1,2.037245947E-1,3.889363199E-1,4.625241137E-1,6.377332728E-1
1.613968542E1,1.074332321E0,8.823781711E-1,-8.248339677E-1,1.616518557E0
1.614969442E1,1.470840785E0,1.045494438E0,-1.975281833E0,2.675475576E0
1.615970442E1,1.580728678E0,9.941669941E-1,-2.320827574E0,2.978810466E0
1.616971342E1,1.158261792E0,1.010088378E0,-2.226040846E0,2.705015112E0
1.617972242E1,8.215557262E-1,1.147205585E0,-1.850526810E0,2.327119236E0
1.618973142E1,6.710866946E-1,1.054865770E0,-1.259390849E0,1.774588531E0
1.619974042E1,5.659221822E-1,1.117345024E0,-5.924200094E-1,1.385528522E0
1.620974942E1,6.328111133E-1,1.504137754E0,-1.363782652E-1,1.637522311E0
1.621975942E1,6.544572133E-1,1.738678345E0,1.257168907E-1,1.862020775E0
1.622976842E1,4.666677430E-1,1.947184208E0,3.446750902E-1,2.031774112E0
1.623977742E1,2.312895387E-1,1.803637403E0,4.321525061E-1,1.869052840E0
1.624978642E1,-5.230059582E-1,1.032574430E0,8.519510150E-2,1.160604752E0
1.625979542E1,-1.610671392E0,1.283586627E-1,-7.354430504E-1,1.775278784E0
1.626980542E1,-2.125177253E0,-3.294923562E-1,-1.854928301E0,2.840018059E0
1.627981442E1,-2.358374154E0,-4.345101035E-1,-3.916668235E0,4.592495807E0
1.628982342E1,-2.207944006E0,3.731435752E-1,-7.210189927E0,7.549906731E0
1.629983242E1,-2.784906901E0,9.531897068E-1,-9.177389739E0,9.637881483E0
1.630984142E1,-4.084975952E0,3.140457666E-1,-7.037430432E0,8.143161570E0
1.631985042E1,-4.216716059E0,-2.159996545E-1,-3.044641974E0,5.205496607E0
1.632986042E1,-4.098682118E0,1.738786519E-2,-8.214779583E-1,4.180230075E0
1.633986942E1,-5.181309591E0,2.339810121E-1,-7.557689953E-1,5.241364609E0
1.634987842E1,-6.327884846E0,9.967163801E-2,-1.870054171E0,6.599179014E0
1.635988742E1,-6.165122920E0,-3.001761711E-1,-3.288201018E0,6.993647996E0
1.636989642E1,-5.340786551E0,-1.016469444E0,-4.511027181E0,7.064458743E0
1.637990642E1,-4.637115954E0,-1.604164903E0,-5.372590726E0,7.276051163E0
1.638991542E1,-4.665739829E0,-1.525120488E0,-5.655874876E0,7.488927912E0
1.639992442E1,-5.475633869E0,-1.994599280E0,-5.426034277E0,7.962590064E0
1.640993342E1,-6.933174577E0,-2.592330315E0,-5.069925395E0,8.971801920E0
1.641994242E1,-7.915513823E0,-2.071235812E0,-4.851240992E0,9.512093147E0
1.642995142E1,-7.368374652E0,-1.129562196E0,-4.885405396E0,8.912689922E0
1.643996142E1,-5.972384074E0,-1.122404619E0,-4.623752435E0,7.635983908E0
1.644997042E1,-4.164895695E0,-1.855926713E0,-5.228141111E0,6.937166539E0
1.645997942E1,-1.553257582E0,-2.257197150E0,-6.602543183E0,7.148505059E0
1.646998842E1,1.401054266E-1,-3.498522441E0,-7.442792165E0,8.225232156E0
1.647999742E1,-5.523826620E-1,-6.312056433E0,-5.937661554E0,8.683490528E0
1.649000742E1,-1.385655039E0,-8.801182222E0,-1.990507983E0,9.129237122E0
1.650001642E1,-8.254061177E-1,-9.574331481E0,3.673153045E0,1.028791387E1
1.651002542E1,-2.198114544E-1,-9.179347971E0,8.066249195E0,1.222182975E1
1.652003442E1,-1.167604181E-1,-8.176511310E0,9.113484349E0,1.224436879E1
1.653004342E1,-4.110592604E-4,-6.521894292E0,7.123076938E0,9.657811884E0
1.654005242E1,-4.579670861E-1,-4.396290484E0,3.058591969E0,5.375136157E0
1.655006242E1,-9.880309260E-1,-2.969991449E0,-1.159784261E-1,3.132172619E0
1.656007142E1,-9.088461775E-1,-3.065533199E0,-3.624228515E-2,3.197625474E0
1.657008042E1,-4.885684893E-1,-4.273714718E0,8.930382299E-1,4.393273715E0
1.658008942E1,1.893132547E-1,-5.231343046E0,2.203429663E0,5.679603142E0
1.659009842E1,7.249000821E-1,-4.886504672E0,4.957429644E0,6.998536755E0
1.660010842E1,2.208771095E-1,-4.033499404E0,4.366459744E0,5.948434654E0
