"Time (s)","Linear Acceleration x (m/s^2)","Linear Acceleration y (m/s^2)","Linear Acceleration z (m/s^2)","Absolute acceleration (m/s^2)"
1.520999998E-3,1.304491593E0,-2.254265356E-1,-4.054047689E0,4.264717823E0
1.153100003E-2,1.377574187E0,-2.356196212E-1,-4.580381883E0,4.788854293E0
2.154200000E-2,1.323284544E0,-2.947103401E-1,-5.607723640E0,5.769272102E0
3.155199997E-2,2.236354165E0,-6.501340744E-1,-5.943405858E0,6.383418164E0
4.156200000E-2,1.581821523E0,-7.584800568E-1,-5.402680498E0,5.680352796E0
5.157299998E-2,1.444452301E0,-6.331532485E-1,-4.550752287E0,4.816292336E0
6.158300000E-2,2.551033770E0,-9.433960591E-1,-5.040083545E0,5.727146896E0
7.159299997E-2,2.242104317E0,-1.245416003E0,-6.152853123E0,6.666010377E0
8.160300000E-2,1.831933249E0,-9.972437259E-1,-6.430120488E0,6.759949997E0
9.161399998E-2,1.665188200E0,-6.941948909E-1,-6.283841863E0,6.537692777E0
1.016240000E-1,1.490220212E0,-6.080290054E-1,-6.382366278E0,6.582177060E0
1.116340000E-1,1.822333875E0,-8.017542766E-1,-6.734003209E0,7.022144251E0
1.216450000E-1,2.000760491E0,-1.162369754E0,-7.030480431E0,7.401472899E0
1.316550000E-1,2.011243379E0,-1.069031820E0,-6.721064490E0,7.096522870E0
1.416650000E-1,2.103419471E0,-1.033188972E0,-6.543552378E0,6.950534559E0
1.516760000E-1,2.116782698E0,-1.101677117E0,-6.040668443E0,6.494931617E0
1.616860000E-1,2.143686322E0,-1.074902717E0,-5.292898439E0,5.810815845E0
1.716960000E-1,2.180964661E0,-1.130005123E0,-4.552684792E0,5.173051057E0
1.817070000E-1,1.831209363E0,-1.266531761E0,-3.923860018E0,4.511552712E0
1.917170000E-1,1.597317229E0,-1.187977927E0,-3.461612477E0,3.993178537E0
2.017270000E-1,1.407345285E0,-8.322315726E-1,-3.067379165E0,3.475923630E0
2.117370000E-1,9.466595364E-1,-6.920381454E-1,-2.983145345E0,3.205345102E0
2.217480000E-1,1.434187514E-1,-9.293698313E-1,-2.780135280E0,2.934867867E0
2.317580000E-1,-1.064188571E0,-1.212661071E0,-1.724922186E0,2.361863826E0
2.417680000E-1,-2.442503015E0,-1.863953771E0,-6.799282694E-1,3.146815389E0
2.517790000E-1,-4.908106041E0,-2.484688045E0,9.650730032E-1,5.585207739E0
2.617890000E-1,-7.702339543E0,-2.452744998E0,3.378624115E0,8.761112565E0
2.717990000E-1,-1.009072716E1,-2.077460465E0,5.495473471E0,1.167642263E1
2.818100000E-1,-1.113380962E1,-1.878830842E0,6.530494961E0,1.304373744E1
2.918200000E-1,-1.115595186E1,-2.689085947E0,6.302800291E0,1.309243051E1
3.018300000E-1,-1.171847506E1,-4.413707585E0,5.701856210E0,1.375916555E1
3.118400000E-1,-1.201931196E1,-6.025597830E0,5.460336968E0,1.451161497E1
3.218510000E-1,-1.240814713E1,-7.586980995E0,5.585193148E0,1.557943446E1
3.318602083E-1,-1.281463737E1,-9.206443384E0,5.824355963E0,1.681953189E1
3.418702083E-1,-1.271394013E1,-1.037292548E1,6.045514616E0,1.748685517E1
3.518812083E-1,-1.243725456E1,-1.085213989E1,6.392442784E0,1.770077869E1
3.618912083E-1,-1.235436444E1,-1.070839896E1,6.944068524E0,1.776288874E1
3.719012083E-1,-1.194925296E1,-1.005255069E1,7.530777558E0,1.733640771E1
3.819122083E-1,-1.121057421E1,-9.023441906E0,8.140488369E0,1.653381471E1
3.919222083E-1,-1.049673560E1,-7.374991361E0,8.458693260E0,1.536624377E1
4.019322083E-1,-9.991267194E0,-5.697648554E0,8.354857820E0,1.421591602E1
4.119432083E-1,-9.404953431E0,-3.693112516E0,7.767809647E0,1.274484585E1
4.219532083E-1,-8.687816405E0,-1.133557599E0,6.832034703E0,1.111034675E1
4.319632083E-1,-7.520939618E0,1.211111559E0,6.082090119E0,9.747981543E0
4.419732083E-1,-6.541636831E0,2.923947842E0,5.086443195E0,8.787171774E0
4.519842083E-1,-5.382946145E0,4.213103065E0,3.966185673E0,7.902972569E0
4.619942083E-1,-3.751659517E0,5.488407696E0,2.870592876E0,7.241399839E0
4.720042083E-1,-2.179567761E0,6.544392039E0,1.788796585E0,7.125964917E0
4.820152083E-1,-6.967179644E-1,7.072744106E0,8.357629985E-1,7.155950314E0
4.920252083E-1,1.219866595E0,7.333159795E0,1.521796346E-2,7.433945028E0
5.020352083E-1,3.275090976E0,7.487114645E0,-6.914964008E-1,8.201297085E0
5.120462083E-1,5.083338908E0,7.385662529E0,-1.237539804E0,9.050958525E0
5.220562083E-1,6.573819906E0,7.236468483E0,-1.603669644E0,9.907236779E0
5.320662083E-1,7.797557357E0,7.080619136E0,-1.869662408E0,1.069732236E1
5.420762083E-1,8.886725233E0,7.103602202E0,-1.965778354E0,1.154553308E1
5.520872083E-1,9.626074662E0,7.256358372E0,-2.040068983E0,1.222611679E1
5.620972083E-1,1.014026711E1,7.341342974E0,-2.278967503E0,1.272454426E1
5.721072083E-1,1.042405588E1,7.345581036E0,-2.658588039E0,1.302638062E1
5.821182083E-1,1.052771532E1,7.378429524E0,-2.889032655E0,1.317651402E1
5.921282083E-1,1.037898788E1,7.336118487E0,-2.980603561E0,1.305473176E1
6.021382083E-1,1.002022377E1,7.320851991E0,-3.068912889E0,1.278350440E1
6.121492083E-1,9.398186449E0,7.323504873E0,-3.166618693E0,1.232830508E1
6.221592083E-1,8.830955075E0,7.353630313E0,-3.038383407E0,1.188669088E1
6.321692083E-1,8.485378783E0,7.324376108E0,-2.906661426E0,1.158001810E1
6.421802083E-1,7.950696520E0,7.249593143E0,-2.785592487E0,1.111439163E1
6.521902083E-1,7.699572056E0,7.079688259E0,-2.479189031E0,1.074950110E1
6.622002083E-1,7.391465306E0,6.710606745E0,-2.017195845E0,1.018504204E1
6.722102083E-1,7.444518848E0,6.160725814E0,-1.388213196E0,9.762301947E0
6.822212083E-1,7.996908234E0,5.544069681E0,-4.446912023E-1,9.740893193E0
6.922312083E-1,8.475680591E0,5.007754290E0,5.014987296E-1,9.857295039E0
7.022412083E-1,8.578284023E0,4.554817856E0,1.123553597E0,9.777305107E0
7.122522083E-1,8.174793398E0,3.795235307E0,1.274112384E0,9.102440360E0
7.222622084E-1,7.650493451E0,2.926347247E0,9.439347339E-1,8.245275680E0
7.322722083E-1,6.540698352E0,2.107868325E0,2.475523631E-1,6.876418107E0
7.422832084E-1,5.060875075E0,1.274832761E0,-2.859563273E-1,5.226798840E0
7.522932083E-1,3.117611425E0,-8.229254365E-2,-6.362700337E-1,3.182940875E0
7.623032084E-1,3.054848582E-1,-2.447896195E0,-8.998367876E-1,2.625875668E0
7.723132083E-1,-2.743733439E0,-4.880564778E0,-9.261925274E-1,5.675017034E0
7.823242084E-1,-6.796309385E0,-6.908244388E0,-9.632065719E-1,9.738656410E0
7.923342083E-1,-1.123284275E1,-8.754760008E0,-6.071105540E-1,1.425451375E1
8.023442084E-1,-1.441112254E1,-9.805784158E0,3.678214395E-1,1.743471102E1
8.123552083E-1,-1.772538752E1,-1.085013313E1,1.512259537E0,2.083750658E1
8.223652084E-1,-2.189671399E1,-1.245938277E1,2.820972819E0,2.535074338E1
8.323752083E-1,-2.397788305E1,-1.315041256E1,3.804487356E0,2.761062024E1
8.423862084E-1,-2.401069061E1,-1.240397455E1,4.515474865E0,2.740002484E1
8.523962083E-1,-2.328724268E1,-1.154992439E1,4.946776017E0,2.646066926E1
8.624062084E-1,-2.171625956E1,-1.125163102E1,5.076007669E0,2.497921103E1
8.724162083E-1,-1.917101804E1,-1.110805615E1,5.075343425E0,2.273050714E1
8.824272084E-1,-1.623395694E1,-1.076918778E1,4.841503916E0,2.007378697E1
8.924372083E-1,-1.340313858E1,-9.816160626E0,4.143525292E0,1.712220590E1
9.024472084E-1,-1.132600994E1,-8.105041963E0,2.989710599E0,1.424459813E1
9.124582083E-1,-9.685013427E0,-5.874243822E0,1.485857019E0,1.142427226E1
9.224682084E-1,-7.973790683E0,-3.291667540E0,-1.296208939E-2,8.626504568E0
9.324782083E-1,-5.769412016E0,-4.929588711E-1,-1.080939674E0,5.890462973E0
9.424892083E-1,-3.806811624E0,2.069300968E0,-1.662074558E0,4.640723335E0
9.524992083E-1,-2.257305323E0,3.951106288E0,-1.993017608E0,4.967774895E0
9.625092084E-1,-1.030938964E0,5.328283449E0,-2.411732043E0,5.938845941E0
9.725192083E-1,2.814259046E-1,6.380276483E0,-3.151604798E0,7.121779366E0
9.825302083E-1,2.019838201E0,7.087166263E0,-4.031861014E0,8.400212810E0
9.925402083E-1,3.800704792E0,7.362286531E0,-4.610632453E0,9.481906533E0
1.002550208E0,5.632595356E0,7.368017972E0,-4.570437523E0,1.033937708E1
1.012561208E0,7.400371200E0,7.104758781E0,-4.099809169E0,1.104769326E1
1.022571208E0,8.820522473E0,6.713654898E0,-3.436746608E0,1.160543002E1
1.032581208E0,9.776769689E0,6.385640134E0,-2.580511923E0,1.195912485E1
1.042592208E0,1.054902023E1,5.877153397E0,-1.818209249E0,1.221182397E1
1.052602208E0,1.137121477E1,5.476676427E0,-1.269230543E0,1.268500911E1
1.062612208E0,1.188301687E1,5.232741115E0,-9.737859392E-1,1.302059632E1
1.072623208E0,1.217595068E1,5.004837699E0,-1.083299611E0,1.320892552E1
1.082633208E0,1.234911831E1,4.788027913E0,-1.236539930E0,1.330244208E1
1.092643208E0,1.238349994E1,4.572386985E0,-1.212091552E0,1.325620457E1
1.102653208E0,1.240931657E1,4.313357670E0,-1.075046850E0,1.318149907E1
1.112664208E0,1.231526527E1,3.944283465E0,-8.880832994E-1,1.296193746E1
1.122674208E0,1.195914177E1,3.604689167E0,-7.257692707E-1,1.251165844E1
1.132684208E0,1.142806958E1,3.433567185E0,-4.473587751E-1,1.194111753E1
1.142695208E0,1.065894555E1,3.266382425E0,-2.997282561E-1,1.115222898E1
1.152705208E0,9.774626099E0,3.053078922E0,-1.620439056E-1,1.024162412E1
1.162715208E0,9.048866769E0,3.026763528E0,1.128231955E-1,9.542327616E0
1.172726208E0,8.513915534E0,3.193611487E0,4.834360957E-1,9.106021223E0
1.182736208E0,8.198198633E0,3.227632635E0,8.786014545E-1,8.854378226E0
1.192746208E0,7.905246697E0,3.188911203E0,1.186672536E0,8.606408758E0
1.202756208E0,7.551377299E0,3.358553547E0,1.335956630E0,8.371855299E0
1.212767208E0,7.039543616E0,3.435981500E0,1.401312128E0,7.957689292E0
1.222777208E0,6.373277950E0,3.102688161E0,1.263614877E0,7.200143625E0
1.232787208E0,5.599998883E0,2.692751274E0,1.100220283E0,6.310418495E0
1.242798208E0,4.735165282E0,2.047321869E0,9.883922108E-1,5.252640883E0
1.252808208E0,3.886906784E0,9.659910160E-1,7.272439384E-1,4.070634685E0
1.262818208E0,2.927897344E0,-3.132561001E-1,5.102350545E-1,2.988486582E0
1.272829208E0,1.363657229E0,-1.629942061E0,-1.396775566E-2,2.125198169E0
1.282839208E0,-8.294404042E-1,-3.214660294E0,-9.635392054E-1,3.456937950E0
1.292849208E0,-3.671850286E0,-5.168651538E0,-1.752810334E0,6.577977449E0
1.302859208E0,-7.164297470E0,-6.987638467E0,-2.244748428E0,1.025637095E1
1.312870208E0,-1.085833560E1,-8.388339561E0,-2.310336646E0,1.391421388E1
1.322880208E0,-1.505447063E1,-9.948767291E0,-2.049811467E0,1.816085856E1
1.332890583E0,-2.001423799E1,-1.192511215E1,-1.755804255E0,2.336366561E1
1.342901583E0,-2.290163050E1,-1.364129684E1,-1.567989496E0,2.670258883E1
1.352911583E0,-2.298748868E1,-1.423115226E1,-1.273535410E0,2.706607143E1
1.362921583E0,-2.246128605E1,-1.416188030E1,1.150980547E-2,2.655312330E1
1.372932583E0,-2.156678133E1,-1.385887173E1,1.517433300E0,2.568067341E1
1.382942583E0,-2.036593632E1,-1.297155559E1,2.685953593E0,2.429499873E1
1.392952583E0,-1.896051126E1,-1.134338085E1,3.633954481E0,2.239149172E1
1.402963583E0,-1.751637997E1,-9.581939878E0,3.968923924E0,2.035655905E1
1.412973583E0,-1.599456023E1,-7.500677261E0,3.614041203E0,1.803184434E1
1.422983583E0,-1.384112427E1,-5.100566559E0,2.783965791E0,1.501142784E1
1.432993583E0,-1.094697822E1,-2.835588520E0,1.946265610E0,1.147453024E1
1.443004583E0,-8.284766076E0,-6.971646917E-1,1.200314090E0,8.400246512E0
1.453014583E0,-6.130081726E0,1.124771572E0,1.126758456E-1,6.233434760E0
1.463024583E0,-3.692851730E0,2.590213915E0,-1.181566747E0,4.662881299E0
1.473035583E0,-1.186498289E0,4.082476267E0,-2.517819246E0,4.941032728E0
1.483045583E0,1.543763165E0,5.456133989E0,-3.925770303E0,6.896685819E0
1.493055583E0,4.072398006E0,6.392288418E0,-4.661841198E0,8.898232414E0
1.503066583E0,5.990634404E0,6.627107336E0,-4.564404366E0,1.003195093E1
1.513076583E0,7.444459791E0,6.511278087E0,-4.019387734E0,1.067577640E1
1.523086583E0,8.444036629E0,6.332807617E0,-3.399622636E0,1.108889719E1
1.533096583E0,9.146741558E0,6.194830284E0,-3.051246697E0,1.146075520E1
1.543107583E0,9.662919137E0,6.183592520E0,-2.905549285E0,1.183431618E1
1.553117583E0,9.982550164E0,6.190071820E0,-2.926571195E0,1.210508636E1
1.563127583E0,1.025757629E1,6.246369982E0,-3.119254493E0,1.240825362E1
1.573138583E0,1.041874076E1,6.368520656E0,-3.263179028E0,1.263948384E1
1.583148583E0,1.049002884E1,6.433372709E0,-3.239643985E0,1.272494726E1
1.593158583E0,1.062374882E1,6.357291663E0,-3.009858935E0,1.274121058E1
1.603168583E0,1.076843817E1,6.066662825E0,-2.753339245E0,1.266272227E1
1.613179583E0,1.083051221E1,5.736278769E0,-2.296619078E0,1.246913582E1
1.623189583E0,1.062555794E1,5.546950019E0,-1.829486774E0,1.212510445E1
1.633199583E0,1.041028568E1,5.413493754E0,-1.568906193E0,1.183813454E1
1.643210583E0,1.015799119E1,5.181563945E0,-1.294686981E0,1.147648049E1
1.653220583E0,9.916005342E0,4.900721885E0,-1.086948273E0,1.111421133E1
1.663230583E0,9.774022667E0,4.747613420E0,-9.861434448E-1,1.091072093E1
1.673241583E0,9.604423007E0,4.638464907E0,-8.634337771E-1,1.070073903E1
1.683251583E0,9.375406281E0,4.512960270E0,-7.743175328E-1,1.043382102E1
1.693261583E0,9.093286897E0,4.510181966E0,-6.759088933E-1,1.017282954E1
1.703272583E0,8.777265941E0,4.569424201E0,-5.139351726E-1,9.908792272E0
1.713282583E0,8.503647823E0,4.562043260E0,-4.011681104E-1,9.658426418E0
1.723292583E0,8.248047316E0,4.476757819E0,-2.370168682E-1,9.387641988E0
1.733302583E0,7.963963852E0,4.380081418E0,1.596406817E-2,9.089009204E0
1.743313583E0,7.659415133E0,4.239142763E0,2.419624615E-1,8.757597694E0
1.753323583E0,7.129561501E0,4.005999657E0,2.849418537E-1,8.182901215E0
1.763333583E0,6.310791095E0,3.608933076E0,6.000997424E-2,7.270081388E0
1.773344583E0,5.645686687E0,2.982359772E0,-1.834972851E-1,6.387638001E0
1.783354583E0,5.021426834E0,2.197410539E0,-2.564799285E-1,5.487178008E0
1.793364583E0,3.508587838E0,8.526333851E-1,-4.277097917E-1,3.635946641E0
1.803375583E0,1.392499205E0,-7.747037414E-1,-6.450496280E-1,1.719101203E0
1.813385583E0,-1.062897506E0,-2.561526306E0,-9.640257668E-1,2.936071151E0
1.823395583E0,-4.104315618E0,-4.993462526E0,-1.509435186E0,6.637655404E0
1.833405583E0,-8.222650520E0,-7.888388590E0,-1.549273582E0,1.149951759E1
1.843416583E0,-1.250720831E1,-1.075053750E1,-7.202588546E-1,1.650827336E1
1.853426583E0,-1.664308311E1,-1.371113131E1,8.044997636E-1,2.157856707E1
1.863436583E0,-2.036938617E1,-1.668759211E1,2.629394938E0,2.646320732E1
1.873447583E0,-2.303005407E1,-1.852703728E1,4.368965861E0,2.987845986E1
1.883457583E0,-2.450626552E1,-1.851974814E1,5.724883715E0,3.124599838E1
1.893467583E0,-2.478285519E1,-1.671069212E1,6.218897424E0,3.053050651E1
1.903478583E0,-2.415331355E1,-1.485787555E1,6.157858340E0,2.901823979E1
1.913488583E0,-2.257850167E1,-1.361950076E1,6.154408482E0,2.707685880E1
1.923498583E0,-2.017340856E1,-1.223270259E1,7.082477381E0,2.463263915E1
1.933508583E0,-1.755151004E1,-1.038929301E1,7.996673176E0,2.190752601E1
1.943519583E0,-1.520278876E1,-8.336413363E0,8.238687093E0,1.919626367E1
1.953529583E0,-1.328112473E1,-6.151052765E0,7.869449458E0,1.661782052E1
1.963539583E0,-1.131433890E1,-4.121075200E0,7.009154466E0,1.393290249E1
1.973550583E0,-9.376709041E0,-2.335722917E0,5.797683889E0,1.126904665E1
1.983560583E0,-7.244824739E0,-7.460108694E-1,4.328842267E0,8.472478568E0
1.993570583E0,-4.525523890E0,6.822271022E-1,2.550159026E0,5.239189953E0
2.003581583E0,-1.516277744E0,2.175253977E0,5.603994870E-1,2.710143105E0
2.013591583E0,1.209714659E0,3.137286136E0,-1.969908827E0,3.896987894E0
2.023601583E0,3.410433553E0,3.591745185E0,-5.214917048E0,7.192151994E0
2.033611583E0,5.314469987E0,3.909650407E0,-8.594114190E0,1.083456304E1
2.043622583E0,7.369244133E0,4.433080288E0,-1.164198412E1,1.447389907E1
2.053632583E0,9.079528983E0,5.096284059E0,-1.415545421E1,1.757233171E1
2.063642583E0,9.847066669E0,5.842061917E0,-1.504757676E1,1.890830442E1
2.073653583E0,9.995922747E0,6.511848775E0,-1.383210201E1,1.826608037E1
2.083663583E0,9.894540213E0,7.005334480E0,-1.109392694E1,1.643325446E1
2.093673583E0,1.035847000E1,7.250578984E0,-8.347478049E0,1.515088070E1
2.103684583E0,1.126747230E1,7.401403234E0,-5.685675210E0,1.463091263E1
2.113694583E0,1.109587991E1,7.256828488E0,-4.707869310E0,1.406926238E1
2.123704583E0,1.141101208E1,6.761430743E0,-3.321717258E0,1.367340294E1
2.133715583E0,1.176810271E1,6.308905953E0,-1.485161785E0,1.343488896E1
2.143725583E0,1.157247944E1,6.010704972E0,-4.630339909E-1,1.304857291E1
2.153735583E0,1.152938195E1,5.731629063E0,2.658502378E-2,1.287551656E1
2.163745583E0,1.121461697E1,5.390533492E0,2.086133786E-1,1.244463759E1
2.173756583E0,1.079317423E1,5.067304673E0,-9.060260653E-3,1.192351746E1
2.183766583E0,1.029302796E1,4.854409598E0,-3.117788011E-1,1.138459148E1
2.193776583E0,9.694205834E0,4.726927433E0,-6.148844272E-1,1.080275671E1
2.203787583E0,9.133135672E0,4.579900365E0,-9.570330817E-1,1.026185007E1
2.213797583E0,8.460398893E0,4.455035413E0,-1.112947333E0,9.626231959E0
2.223807583E0,7.865524222E0,4.556051618E0,-1.160229673E0,9.163526097E0
2.233817583E0,7.314355735E0,4.727034144E0,-1.211499229E0,8.792745987E0
2.243828583E0,6.795031183E0,4.762057504E0,-1.191107064E0,8.382623485E0
2.253838583E0,6.530165178E0,4.610659935E0,-1.013863340E0,8.057863312E0
2.263848583E0,6.579434987E0,4.365428295E0,-8.964804858E-1,7.946672650E0
2.273859583E0,6.617414991E0,3.970450340E0,-6.624380779E-1,7.745545899E0
2.283869583E0,6.278138489E0,3.510135304E0,-4.655225658E-1,7.207827967E0
2.293879583E0,5.706643326E0,3.039035664E0,-6.035624635E-1,6.493520113E0
2.303890583E0,5.270158617E0,2.461399462E0,-7.763769221E-1,5.868204179E0
2.313900583E0,4.463521185E0,1.703846481E0,-1.097261592E0,4.902050306E0
2.323910583E0,2.948546786E0,6.313420004E-1,-1.411358814E0,3.329332451E0
2.333921500E0,7.525050795E-1,-9.268059003E-1,-1.798905251E0,2.159002819E0
2.343931500E0,-2.218347080E0,-3.021842511E0,-1.968956316E0,4.234310440E0
2.353941500E0,-5.860130982E0,-5.696889001E0,-1.959182110E0,8.404408007E0
2.363951500E0,-9.860235769E0,-8.935954111E0,-2.165109351E0,1.348195920E1
2.373962500E0,-1.376025493E1,-1.238980324E1,-2.220988852E0,1.864898474E1
2.383972500E0,-1.666402433E1,-1.546058315E1,-1.957492118E0,2.281558926E1
2.393982500E0,-1.890176077E1,-1.767447932E1,-1.364718937E0,2.591382329E1
2.403993500E0,-2.036692333E1,-1.877078080E1,-1.618159921E-1,2.769801369E1
2.414003500E0,-2.067919739E1,-1.837422849E1,1.792121458E0,2.772098801E1
2.424013500E0,-2.038354345E1,-1.680839676E1,3.861222889E0,2.670056343E1
2.434024500E0,-2.026266046E1,-1.550236267E1,5.626462212E0,2.612576763E1
2.444034500E0,-1.998034753E1,-1.480451619E1,7.116307032E0,2.586561062E1
2.454044500E0,-1.920302920E1,-1.341750636E1,8.028446946E0,2.476371878E1
2.464054500E0,-1.738121690E1,-1.057510466E1,7.837004428E0,2.180271033E1
2.474065500E0,-1.571732971E1,-7.400844825E0,6.665818827E0,1.860752799E1
2.484075500E0,-1.445364349E1,-4.871834885E0,5.076854346E0,1.607535491E1
2.494085500E0,-1.289842914E1,-2.820308576E0,3.467526351E0,1.365091036E1
2.504096500E0,-1.073742220E1,-8.841346747E-1,1.941570296E0,1.094731130E1
2.514106500E0,-7.877274787E0,1.060690474E0,2.837747677E-1,7.953430107E0
2.524116500E0,-4.733457311E0,2.772882394E0,-1.542082676E0,5.698465922E0
2.534127500E0,-1.421019584E0,4.022658959E0,-3.372659955E0,5.438374475E0
2.544137500E0,1.695252829E0,4.921380390E0,-5.001530514E0,7.218668477E0
2.554147500E0,4.344589988E0,5.780914074E0,-6.315361279E0,9.600948796E0
2.564157500E0,6.251512608E0,6.393702275E0,-7.049862782E0,1.138689615E1
2.574168500E0,7.744336585E0,6.763188416E0,-7.453116009E0,1.269899228E1
2.584178500E0,8.732557545E0,7.102548534E0,-7.436364906E0,1.349085913E1
2.594188500E0,9.164306009E0,7.607833335E0,-6.747653534E0,1.368920965E1
2.604199500E0,9.411326312E0,7.970730250E0,-5.745133792E0,1.360559319E1
2.614209500E0,9.559140415E0,8.157675090E0,-4.523758031E0,1.335624255E1
2.624219500E0,9.635072358E0,8.354478335E0,-3.156449801E0,1.313754554E1
2.634230500E0,9.656620517E0,8.501768528E0,-1.939296899E0,1.301119750E1
2.644240500E0,9.570818474E0,8.555068823E0,-1.104785789E0,1.288449923E1
2.654250500E0,9.509727350E0,8.493023432E0,-6.976733994E-1,1.276922509E1
2.664260500E0,9.679942136E0,8.495818986E0,-6.148347259E-1,1.289411656E1
2.674271500E0,1.001406081E1,8.312284827E0,-1.044854752E0,1.305630937E1
2.684281500E0,1.036707242E1,7.958529450E0,-1.806642871E0,1.319387510E1
2.694291500E0,1.044693369E1,7.491439830E0,-2.342585794E0,1.306705026E1
2.704302500E0,1.024190692E1,7.102509942E0,-2.630979241E0,1.273830274E1
2.714312500E0,1.005033226E1,6.778181847E0,-2.645815966E0,1.240779069E1
2.724322500E0,9.877166966E0,6.442125406E0,-2.206098332E0,1.199692781E1
2.734333500E0,9.484820550E0,6.291385356E0,-1.430299115E0,1.147122949E1
2.744343500E0,8.945622482E0,6.351889420E0,-5.528366983E-1,1.098527602E1
2.754353500E0,8.364073616E0,6.414337099E0,1.475615036E-1,1.054150000E1
2.764363500E0,7.743810335E0,6.472519233E0,6.477592278E-1,1.011334246E1
2.774374500E0,7.083299500E0,6.582243404E0,1.014581963E0,9.722573558E0
2.784384500E0,6.452252784E0,6.767343448E0,1.252437340E0,9.433827570E0
2.794394500E0,5.782630232E0,6.965958745E0,1.388925387E0,9.159285309E0
2.804405500E0,5.164293024E0,6.940317535E0,1.510134659E0,8.781710347E0
2.814415500E0,4.580679506E0,6.579843707E0,1.474049152E0,8.151673991E0
2.824425500E0,3.856302457E0,6.041668902E0,1.199378609E0,7.267141172E0
2.834436500E0,3.109932861E0,5.111745851E0,8.123981094E-1,6.038345695E0
2.844446500E0,2.200135927E0,3.443495172E0,6.170063087E-1,4.132669099E0
2.854456500E0,7.120417625E-1,1.066105288E0,1.808239746E-1,1.294712813E0
2.864466500E0,-1.590063758E0,-1.715296791E0,-3.743012508E-1,2.368680490E0
2.874477500E0,-5.205795976E0,-4.575704987E0,-1.122543564E0,7.021217268E0
2.884487500E0,-9.692320107E0,-7.857438108E0,-2.091448467E0,1.265126711E1
2.894497500E0,-1.302044182E1,-1.032639802E1,-2.878477846E0,1.686570591E1
2.904508500E0,-1.563148790E1,-1.155689310E1,-3.055002948E0,1.967836973E1
2.914518500E0,-1.905291831E1,-1.367749110E1,-2.171212528E0,2.355422729E1
2.924528500E0,-2.195219471E1,-1.632585412E1,-7.023625740E-1,2.736650651E1
2.934539500E0,-2.282727263E1,-1.758283942E1,8.854704711E-1,2.882749860E1
2.944549500E0,-2.280529412E1,-1.727538931E1,2.564221580E0,2.872447994E1
2.954559500E0,-2.305579117E1,-1.688693539E1,3.935910837E0,2.884838795E1
2.964569500E0,-2.262758788E1,-1.681734300E1,4.874698851E0,2.861107211E1
2.974580500E0,-2.072002499E1,-1.593119981E1,5.444604449E0,2.669768305E1
2.984590500E0,-1.801489954E1,-1.367407048E1,5.739250324E0,2.333357674E1
2.994600500E0,-1.590880965E1,-1.055293319E1,5.878982406E0,1.997541132E1
3.004611500E0,-1.449321511E1,-7.109278679E0,5.680138482E0,1.711312656E1
3.014621500E0,-1.310150996E1,-3.567320488E0,5.010234679E0,1.447334758E1
3.024631500E0,-1.139239221E1,-5.752259794E-1,3.822454680E0,1.203032190E1
3.034642500E0,-9.181269366E0,1.517904439E0,2.215459578E0,9.565981508E0
3.044652500E0,-6.329777005E0,2.650435851E0,3.520002627E-1,6.871302010E0
3.054662500E0,-2.812799581E0,3.037423587E0,-1.372934129E0,4.361505663E0
3.064672500E0,1.100795649E0,3.214066802E0,-2.971530436E0,4.513531832E0
3.074683500E0,4.302595285E0,3.383562673E0,-3.969091154E0,6.761250413E0
3.084693500E0,6.689074373E0,3.418851789E0,-4.317436688E0,8.664440148E0
3.094703500E0,8.744425639E0,3.446027016E0,-4.943135540E0,1.061954194E1
3.104714500E0,1.049514632E1,3.531698958E0,-5.559001715E0,1.239045980E1
3.114724500E0,1.189085097E1,3.902753323E0,-5.600114658E0,1.371076601E1
3.124734500E0,1.275758843E1,4.255153901E0,-5.154651550E0,1.440252859E1
3.134745500E0,1.318204132E1,4.380243678E0,-4.203593738E0,1.451285459E1
3.144755500E0,1.337030295E1,4.318262022E0,-3.066526641E0,1.438109779E1
3.154765500E0,1.406660460E1,4.370944558E0,-2.000952280E0,1.486533993E1
3.164775500E0,1.455084410E1,4.485607873E0,-9.222181749E-1,1.525444946E1
3.174786500E0,1.481163927E1,4.324028254E0,-4.352819359E-1,1.543604057E1
3.184796500E0,1.479527993E1,4.211337206E0,-4.806398110E-1,1.539047381E1
3.194806500E0,1.433639629E1,4.219899868E0,-7.344126248E-1,1.496259254E1
3.204817500E0,1.400684020E1,4.264075875E0,-8.878786469E-1,1.466840973E1
3.214827500E0,1.343048600E1,4.313916079E0,-9.071718273E-1,1.413544435E1
3.224837500E0,1.256678209E1,4.333650725E0,-7.936750326E-1,1.331669856E1
3.234848500E0,1.181084469E1,4.438136960E0,-5.722669959E-1,1.263014654E1
3.244858500E0,1.114657526E1,4.562278903E0,-2.023709643E-1,1.204580769E1
3.254868500E0,1.049416399E1,4.627436181E0,2.398235500E-1,1.147162407E1
3.264878500E0,9.833409913E0,4.631861354E0,7.131720293E-1,1.089305763E1
3.274889500E0,9.100277243E0,4.578277178E0,1.049422159E0,1.024094501E1
3.284899500E0,8.443920854E0,4.523225642E0,1.314621309E0,9.668898530E0
3.294909500E0,7.835615714E0,4.479773521E0,1.475184828E0,9.145568036E0
3.304920500E0,7.207671531E0,4.516174192E0,1.460017150E0,8.630064212E0
3.314930500E0,6.560871246E0,4.515286585E0,1.302612444E0,8.070293900E0
3.324940500E0,5.924915793E0,4.305807745E0,1.027352428E0,7.395948925E0
3.334950875E0,5.495944757E0,3.891190454E0,8.692858167E-1,6.789877006E0
3.344961875E0,5.070901880E0,3.229005561E0,9.201133235E-1,6.081704639E0
3.354971875E0,4.190446274E0,2.132682739E0,1.020075860E0,4.811312752E0
3.364981875E0,3.108694421E0,8.351116186E-1,1.122078345E0,3.408878442E0
3.374992875E0,1.490388612E0,-5.836570796E-1,7.535074385E-1,1.769092213E0
3.385002875E0,-9.624154437E-1,-2.781619304E0,-2.417203867E-1,2.953316472E0
3.395012875E0,-3.817564069E0,-5.332971747E0,-1.670004551E0,6.767813404E0
3.405023875E0,-6.892884922E0,-7.833296124E0,-3.094327812E0,1.088334762E1
3.415033875E0,-9.845920615E0,-1.047992719E1,-3.821168000E0,1.487858702E1
3.425043875E0,-1.288303108E1,-1.324971699E1,-3.144403367E0,1.874605993E1
3.435053875E0,-1.711002538E1,-1.634822323E1,-1.576309937E0,2.371712723E1
3.445064875E0,-2.130120548E1,-1.984524410E1,-2.835858661E-1,2.911452368E1
3.455074875E0,-2.295186744E1,-2.152309796E1,6.017664912E-1,3.147052728E1
3.465084875E0,-2.261790489E1,-2.005418149E1,1.248196647E0,3.025388920E1
3.475095875E0,-2.147604424E1,-1.735995759E1,1.645744746E0,2.766400332E1
3.485105875E0,-2.020554251E1,-1.495096322E1,2.513792561E0,2.526092640E1
3.495115875E0,-1.894100261E1,-1.348545334E1,3.569555587E0,2.352362129E1
3.505126875E0,-1.724172456E1,-1.243102377E1,3.964121021E0,2.162224949E1
3.515136875E0,-1.551272511E1,-1.097147221E1,3.624769382E0,1.934313304E1
3.525146875E0,-1.388204659E1,-9.200205574E0,2.606470052E0,1.685671042E1
3.535156875E0,-1.220629656E1,-6.868172250E0,8.259753442E-1,1.403024238E1
3.545167875E0,-1.029014762E1,-3.823204001E0,-1.549822050E0,1.108629673E1
3.555177875E0,-8.159588299E0,-1.138680929E-1,-4.076888376E0,9.122108636E0
3.565187875E0,-6.339427249E0,3.750553516E0,-6.376300961E0,9.742289437E0
3.575198875E0,-4.772345388E0,6.826193919E0,-8.264640545E0,1.173356243E1
3.585208875E0,-2.847296399E0,8.763678766E0,-9.135743530E0,1.297578407E1
3.595218875E0,-7.133345819E-1,9.726321666E0,-8.767404027E0,1.311402123E1
3.605229875E0,1.702824973E0,9.992786300E0,-7.909911021E0,1.285776354E1
3.615239875E0,3.968385980E0,9.670590684E0,-6.662647297E0,1.239593806E1
3.625249875E0,5.906837372E0,9.059987004E0,-5.250494431E0,1.202255314E1
3.635259875E0,7.733036841E0,8.402759380E0,-3.853849550E0,1.205231846E1
3.645270875E0,9.355325773E0,7.922075568E0,-2.417939301E0,1.249511233E1
3.655280875E0,1.072604585E1,7.746464971E0,-1.210470704E0,1.328612128E1
3.665290875E0,1.160070745E1,7.732768453E0,-2.610197067E-1,1.394418347E1
3.675301875E0,1.188216903E1,7.819695500E0,4.154984665E-1,1.423046793E1
3.685311875E0,1.190895980E1,7.939031324E0,8.756369162E-1,1.433939615E1
3.695321875E0,1.203369377E1,8.163238131E0,1.325576798E0,1.460155459E1
3.705332875E0,1.199111903E1,8.134003222E0,1.598077805E0,1.457747566E1
3.715342875E0,1.177498255E1,7.958474486E0,1.655232000E0,1.430829560E1
3.725352875E0,1.139645603E1,7.924294002E0,1.640881909E0,1.397734377E1
3.735362875E0,1.070328498E1,7.882924951E0,1.596873279E0,1.338845844E1
3.745373875E0,9.774664106E0,7.804914324E0,1.384072344E0,1.258476866E1
3.755383875E0,9.052680323E0,7.644138697E0,1.139448084E0,1.190303404E1
3.765393875E0,8.713383940E0,7.435936890E0,1.028207145E0,1.150101852E1
3.775404875E0,8.362092580E0,7.153665478E0,1.094818772E0,1.105884941E1
3.785414875E0,7.798250837E0,6.848841355E0,1.267510146E0,1.045590388E1
3.795424875E0,7.400706831E0,6.655399089E0,1.515060353E0,1.006778061E1
3.805434875E0,7.104043667E0,6.508269694E0,1.801937763E0,9.801632034E0
3.815445875E0,6.753313054E0,6.320064780E0,2.153503797E0,9.496738104E0
3.825455875E0,6.366651301E0,6.046885203E0,2.442018574E0,9.113864392E0
3.835465875E0,5.952718134E0,5.719945741E0,2.488244029E0,8.622296145E0
3.845476875E0,5.475199420E0,5.342041948E0,2.417107681E0,8.022320762E0
3.855486875E0,4.895221701E0,5.019397266E0,2.301162364E0,7.379220328E0
3.865496875E0,4.562343222E0,4.578592050E0,2.195181727E0,6.826221770E0
3.875507875E0,4.409161375E0,3.748031904E0,2.085110085E0,6.151108132E0
3.885517875E0,4.138953354E0,2.543632364E0,2.009815635E0,5.257409948E0
3.895527875E0,3.270497403E0,9.869553307E-1,1.877895287E0,3.898297680E0
3.905537875E0,1.458077483E0,-8.073399755E-1,1.775530568E0,2.435220027E0
3.915548875E0,-1.970867186E0,-3.019985435E0,1.461481147E0,3.891086819E0
3.925558875E0,-6.001500285E0,-5.341928512E0,6.577486110E-1,8.061441504E0
3.935568875E0,-1.026068935E1,-7.947243739E0,-3.942049536E-1,1.298444556E1
3.945579875E0,-1.346478343E1,-1.038950000E1,-1.128604715E0,1.704452557E1
3.955589875E0,-1.599196407E1,-1.291511476E1,-1.160591323E0,2.058859092E1
3.965599875E0,-1.784071333E1,-1.626437065E1,-4.877022243E-1,2.414660759E1
3.975610875E0,-1.737901601E1,-1.893836785E1,7.451115677E-1,2.571472663E1
3.985620875E0,-1.528904806E1,-1.882123526E1,2.755252162E0,2.440461640E1
3.995630875E0,-1.397423262E1,-1.643939067E1,4.574053441E0,2.205571826E1
4.005640875E0,-1.401410362E1,-1.385548970E1,5.533531244E0,2.046923699E1
4.015651875E0,-1.483385986E1,-1.222002933E1,5.650702429E0,2.003254735E1
4.025661875E0,-1.578510011E1,-1.196778045E1,4.997989440E0,2.042980795E1
4.035671875E0,-1.628522766E1,-1.191048358E1,3.846265712E0,2.053927991E1
4.045682875E0,-1.626825437E1,-1.057732309E1,2.333658850E0,1.954435539E1
4.055692875E0,-1.635171284E1,-8.510677346E0,3.183094101E-1,1.843668795E1
4.065702875E0,-1.619392924E1,-6.493398471E0,-1.531541315E0,1.751437086E1
4.075713875E0,-1.493132125E1,-4.105806658E0,-3.163500373E0,1.580537052E1
4.085723875E0,-1.276074826E1,-1.545265315E0,-5.211553144E0,1.387028577E1
4.095733875E0,-1.012682553E1,9.890305075E-1,-7.246582997E0,1.249174695E1
4.105743875E0,-7.293934334E0,3.287566010E0,-8.764915452E0,1.186732115E1
4.115754875E0,-4.525160193E0,5.154197806E0,-9.503094853E0,1.171971167E1
4.125764875E0,-2.190052403E0,6.218474670E0,-9.486122725E0,1.155215483E1
4.135774875E0,-2.537726676E-1,6.740409418E0,-8.491792009E0,1.084472458E1
4.145785875E0,1.389382639E0,7.121848438E0,-6.916888912E0,1.002469259E1
4.155795875E0,3.055066683E0,7.346271007E0,-5.263470572E0,9.539667322E0
4.165805875E0,4.634268653E0,7.145837810E0,-3.686116322E0,9.280457828E0
4.175816875E0,6.071647577E0,6.803344170E0,-2.090946776E0,9.355343639E0
4.185826875E0,7.190577196E0,6.549138224E0,-8.956601214E-1,9.767180706E0
4.195836875E0,7.971222001E0,6.431928447E0,-3.251671708E-1,1.024772255E1
4.205846875E0,8.457614449E0,6.518742642E0,-5.078672245E-2,1.067838130E1
4.215857875E0,8.908589142E0,6.620456128E0,-9.851615511E-2,1.109968942E1
4.225867875E0,9.489276713E0,6.671194757E0,-4.689863102E-1,1.160909816E1
4.235877875E0,9.963594661E0,6.766809597E0,-6.846632715E-1,1.206365179E1
4.245888875E0,1.026146820E1,6.809290788E0,-6.718379887E-1,1.233351276E1
4.255898875E0,1.073328822E1,6.890976391E0,-7.067271551E-1,1.277452523E1
4.265908875E0,1.099370566E1,6.967835702E0,-6.126641663E-1,1.303025924E1
4.275919875E0,1.103280950E1,7.032540990E0,-4.234753843E-1,1.309041060E1
4.285929875E0,1.102055958E1,7.055220001E0,-2.649830957E-1,1.308812740E1
4.295939875E0,1.085958340E1,7.108374115E0,-1.512813561E-1,1.298007782E1
4.305949875E0,1.055508379E1,7.176911668E0,-1.257806253E-1,1.276454761E1
4.315960875E0,1.017600997E1,7.234646491E0,-1.603399356E-1,1.248667280E1
4.325970875E0,9.901798947E0,7.170210174E0,-2.307428241E-1,1.222746002E1
4.335980375E0,9.633757904E0,7.166134665E0,-2.161237617E-1,1.200872545E1
4.345991375E0,9.068477746E0,7.197334238E0,-2.757042579E-1,1.158079970E1
4.356001375E0,8.246429976E0,7.071000466E0,-4.301422334E-1,1.087141561E1
4.366011375E0,7.477762023E0,7.024821496E0,-4.480136633E-1,1.026965229E1
4.376021375E0,6.904102805E0,6.989273933E0,-2.685213920E-1,9.827954487E0
4.386032375E0,6.485500052E0,6.761389228E0,2.592107244E-1,9.372581577E0
4.396042375E0,6.246809692E0,6.380730811E0,8.221253912E-1,8.967287615E0
4.406052375E0,5.931630735E0,5.991116799E0,1.207323732E0,8.516769005E0
4.416063375E0,5.363824580E0,5.554430947E0,1.554398081E0,7.876450385E0
4.426073375E0,5.035992249E0,5.043875465E0,1.921231488E0,7.381939316E0
4.436083375E0,4.476599067E0,4.308049276E0,2.025309733E0,6.534608427E0
4.446094375E0,3.286452116E0,3.154748261E0,1.668072631E0,4.851357583E0
4.456104375E0,1.392281104E0,1.790588756E0,1.260052023E0,2.594684155E0
4.466114375E0,-1.426056960E0,2.584732443E-2,6.895507398E-1,1.584230653E0
4.476124375E0,-5.169560781E0,-2.591208527E0,-1.802146947E-1,5.785429770E0
4.486135375E0,-8.786239663E0,-5.640942256E0,-9.944017598E-1,1.048842561E1
4.496145375E0,-1.166199563E1,-8.539571947E0,-1.497965434E0,1.453170092E1
4.506155375E0,-1.493385660E1,-1.153899945E1,-1.237764337E0,1.891297549E1
4.516166375E0,-1.912658738E1,-1.600189264E1,-3.007415968E-1,2.493947391E1
4.526176375E0,-2.239947162E1,-2.146197818E1,8.648175207E-1,3.103386450E1
4.536186375E0,-2.366877350E1,-2.470333072E1,1.861817198E0,3.426268745E1
4.546196375E0,-2.243941512E1,-2.375374758E1,2.320728317E0,3.275902402E1
4.556207375E0,-2.028333621E1,-2.072535531E1,2.451524392E0,2.910264683E1
4.566217375E0,-1.800634156E1,-1.819876641E1,2.940897166E0,2.576960052E1
4.576227375E0,-1.598131629E1,-1.647775426E1,4.125134921E0,2.332242684E1
4.586238375E0,-1.519634279E1,-1.449498448E1,5.931111503E0,2.182227057E1
4.596248375E0,-1.462850097E1,-1.132336817E1,7.003455770E0,1.978029575E1
4.606258375E0,-1.431066270E1,-7.775737302E0,6.293889134E0,1.746053258E1
4.616269375E0,-1.420735877E1,-4.727119221E0,3.705789864E0,1.542490123E1
4.626279375E0,-1.319774109E1,-2.057570869E0,8.860987544E-2,1.335746307E1
4.636289375E0,-1.118315778E1,3.122047707E-1,-3.628473301E0,1.176122053E1
4.646299375E0,-8.042296661E0,2.492112840E0,-7.027011863E0,1.096667943E1
4.656310375E0,-4.045412521E0,4.402161089E0,-9.701437086E0,1.139571263E1
4.666320375E0,-3.496670043E-1,5.618269678E0,-1.112794487E1,1.247070079E1
4.676330375E0,3.149452438E0,6.620982378E0,-1.167585821E1,1.378702735E1
4.686341375E0,5.752198398E0,7.328021847E0,-1.119018146E1,1.456048941E1
4.696351375E0,7.515947265E0,7.803369489E0,-9.433817042E0,1.436589512E1
4.706361375E0,8.884595093E0,8.305842365E0,-7.035487987E0,1.405066328E1
4.716371375E0,9.608793801E0,8.654552180E0,-4.665962316E0,1.374777786E1
4.726382375E0,1.029018855E1,8.631665593E0,-2.800214034E0,1.371986990E1
4.736392375E0,1.115153370E1,8.411227902E0,-1.609090598E0,1.406039229E1
4.746402375E0,1.171084327E1,7.775206960E0,-1.229546660E0,1.411061580E1
4.756413375E0,1.190589937E1,7.071684591E0,-1.450420554E0,1.392346517E1
4.766423375E0,1.178012576E1,6.572151110E0,-1.923330492E0,1.362584798E1
4.776433375E0,1.181260587E1,6.170449734E0,-2.257402972E0,1.351695142E1
4.786444375E0,1.166873630E1,5.796720268E0,-2.129257733E0,1.320208738E1
4.796454375E0,1.117885190E1,5.470868973E0,-1.598681384E0,1.254802451E1
4.806464375E0,1.077643482E1,5.402447194E0,-8.356454694E-1,1.208371989E1
4.816474375E0,1.012773770E1,5.357521867E0,-1.051317680E-1,1.145797382E1
4.826485375E0,9.160188984E0,5.218367490E0,6.272344045E-1,1.056095850E1
4.836495375E0,7.896125625E0,5.317935632E0,1.252506337E0,9.601979556E0
4.846505375E0,6.491920879E0,5.666455997E0,1.602333555E0,8.764772279E0
4.856516375E0,5.350947842E0,6.022000038E0,1.698598605E0,8.233004584E0
4.866526375E0,4.446948422E0,6.322703628E0,1.695368603E0,7.913672102E0
4.876536375E0,3.989375730E0,6.549780833E0,1.599287156E0,7.834058149E0
4.886547375E0,3.949851476E0,6.587726339E0,1.327879286E0,7.795045118E0
4.896557375E0,4.117451388E0,6.514160764E0,9.571729032E-1,7.765557054E0
4.906567375E0,4.477646888E0,6.346903499E0,6.608768713E-1,7.795464318E0
4.916577375E0,4.655299918E0,6.115261374E0,4.877349687E-1,7.701046967E0
4.926588375E0,4.728752641E0,5.844519501E0,2.474471498E-1,7.522017006E0
4.936598375E0,5.003240824E0,5.576594818E0,1.933805779E-2,7.492075978E0
4.946608375E0,5.336780623E0,5.390379125E0,-7.401975676E-2,7.585703228E0
4.956619375E0,5.486656455E0,5.085417008E0,-1.435900748E-1,7.482344774E0
4.966629375E0,5.406652511E0,4.569233289E0,-3.885473339E-1,7.089481875E0
4.976639375E0,5.257758427E0,3.925676748E0,-5.391365989E-1,6.583739809E0
4.986649375E0,5.015525240E0,3.039491747E0,-5.644480991E-1,5.891740419E0
4.996660375E0,4.473683646E0,1.909547143E0,-6.731770742E-1,4.910537957E0
5.006670375E0,3.444845002E0,5.800566566E-1,-1.088260535E0,3.658925225E0
5.016680375E0,1.710827472E0,-1.053988396E0,-1.773736642E0,2.680291748E0
5.026691375E0,-9.616751862E-1,-3.207127034E0,-2.931751828E0,4.450354116E0
5.036701375E0,-5.131055696E0,-6.507622408E0,-3.902260988E0,9.159941199E0
5.046711375E0,-1.030793134E1,-1.057217988E1,-4.543126348E0,1.544876801E1
5.056722375E0,-1.596837640E1,-1.470965331E1,-4.799723221E0,2.223511386E1
5.066732375E0,-2.111962838E1,-1.842758316E1,-5.063579997E0,2.848252739E1
5.076742375E0,-2.383520631E1,-2.091652418E1,-5.533578022E0,3.219065904E1
5.086752375E0,-2.471350020E1,-2.033352871E1,-4.939879811E0,3.238227747E1
5.096763375E0,-2.445985032E1,-1.747119269E1,-2.966993874E0,3.020479936E1
5.106773375E0,-2.350351949E1,-1.499905657E1,-6.505308080E-1,2.788925092E1
5.116783375E0,-2.190673845E1,-1.435430632E1,2.351744434E0,2.629604536E1
5.126794375E0,-1.937103959E1,-1.444842778E1,5.744526851E0,2.483936048E1
5.136804375E0,-1.692406404E1,-1.355339799E1,8.116275634E0,2.315151120E1
5.146814375E0,-1.502184784E1,-1.044609169E1,8.508644854E0,2.017854756E1
5.156824375E0,-1.383884385E1,-6.672885187E0,7.701842530E0,1.718602264E1
5.166835375E0,-1.298104679E1,-4.011433182E0,7.158149707E0,1.535702703E1
5.176845375E0,-1.160242069E1,-1.985510660E0,7.226017170E0,1.381208683E1
5.186855375E0,-9.570905013E0,1.275558400E-1,5.967461303E0,1.127958721E1
5.196866375E0,-6.909085802E0,2.129584007E0,3.190242029E0,7.902419811E0
5.206876375E0,-4.032761486E0,3.669157058E0,4.497982335E-1,5.470666976E0
5.216886375E0,-1.407099702E0,4.687436800E0,-2.021589296E0,5.295169177E0
5.226897375E0,1.048143811E0,5.766567346E0,-4.070810487E0,7.136063511E0
5.236907375E0,3.678723688E0,6.663554785E0,-4.801193211E0,8.999301450E0
5.246917375E0,5.844782041E0,6.724821911E0,-4.537179730E0,9.998535230E0
5.256927375E0,7.237901636E0,6.323928620E0,-3.706951413E0,1.030149417E1
5.266938375E0,8.183284725E0,6.066179845E0,-2.798839939E0,1.056400453E1
5.276948375E0,9.023796832E0,5.867887314E0,-2.215152307E0,1.098944542E1
5.286958375E0,9.660636384E0,5.631005498E0,-1.868655663E0,1.133701867E1
5.296969375E0,1.033848655E1,5.675063099E0,-1.930831300E0,1.195068010E1
5.306979375E0,1.119460196E1,5.859678408E0,-2.292459369E0,1.284174108E1
5.316989375E0,1.169848693E1,5.750376406E0,-2.365389204E0,1.324826371E1
5.327000375E0,1.191943333E1,5.636245773E0,-2.340664984E0,1.339099959E1
5.337010958E0,1.191864864E1,5.701159807E0,-2.230601528E0,1.339899219E1
5.347020958E0,1.168335551E1,5.772011104E0,-1.944042353E0,1.317559140E1
5.357030958E0,1.163869448E1,5.889637202E0,-1.773604349E0,1.316406882E1
5.367041958E0,1.167711185E1,5.995367140E0,-1.858277879E0,1.325717033E1
5.377051958E0,1.172388607E1,5.979366235E0,-2.078714401E0,1.332378995E1
5.387061958E0,1.189018088E1,5.772722710E0,-2.315576921E0,1.341874157E1
5.397072958E0,1.228464691E1,5.424338000E0,-2.513292332E0,1.366208735E1
5.407082958E0,1.255188806E1,5.151186490E0,-2.762069138E0,1.384606955E1
5.417092958E0,1.287837670E1,5.110094597E0,-2.853780377E0,1.414601413E1
5.427102958E0,1.314075881E1,5.274202552E0,-2.759559513E0,1.442608482E1
5.437113958E0,1.276727376E1,5.475378345E0,-2.624143846E0,1.413750961E1
5.447123958E0,1.216479420E1,5.467574067E0,-1.962291659E0,1.348062211E1
5.457133958E0,1.152688285E1,5.300334928E0,-7.268615305E-1,1.270790723E1
5.467144958E0,1.074488441E1,5.147522625E0,8.856894493E-1,1.194713254E1
5.477154958E0,9.682611390E0,4.830801172E0,2.350055612E0,1.107304677E1
5.487164958E0,8.615024418E0,4.602724094E0,3.415371526E0,1.034738989E1
5.497175958E0,7.410114416E0,4.390344743E0,4.015384730E0,9.503064619E0
5.507185958E0,5.984779002E0,4.135476015E0,4.147497890E0,8.373856956E0
5.517195958E0,4.634152293E0,3.867439941E0,3.617564735E0,7.036990393E0
5.527205958E0,3.708881872E0,3.329392606E0,2.816335977E0,5.724719050E0
5.537216958E0,3.136033078E0,2.257170253E0,2.043128246E0,4.370800161E0
5.547226958E0,2.437711222E0,9.633495364E-1,1.635459201E0,3.089531539E0
5.557236958E0,1.353137503E0,-6.084793872E-1,1.280599869E0,1.959888847E0
5.567247958E0,-5.021325678E-1,-2.963913853E0,1.148851722E0,3.218195570E0
5.577257958E0,-3.635572990E0,-5.953775311E0,1.231452852E0,7.083876590E0
5.587267958E0,-8.430742400E0,-9.347205745E0,1.357141092E0,1.266054914E1
5.597277958E0,-1.439447786E1,-1.328915295E1,1.690378736E0,1.966367105E1
5.607288958E0,-1.977763626E1,-1.726654482E1,1.895605188E0,2.632264775E1
5.617298958E0,-2.294041859E1,-2.012754300E1,2.176339513E0,3.059603317E1
5.627308958E0,-2.349496151E1,-2.031823941E1,2.172743475E0,3.113783684E1
5.637319958E0,-2.212147394E1,-1.846091346E1,1.837047954E0,2.887108727E1
5.647329958E0,-2.114221033E1,-1.629603566E1,1.706813943E0,2.674821582E1
5.657339958E0,-2.088958488E1,-1.479988520E1,1.611518215E0,2.565167343E1
5.667350958E0,-2.042250462E1,-1.365262056E1,1.713002490E0,2.462533493E1
5.677360958E0,-1.935217063E1,-1.257091139E1,1.589731782E0,2.313139789E1
5.687370958E0,-1.800870149E1,-1.120201973E1,9.101775885E-1,2.122797680E1
5.697380958E0,-1.663536128E1,-9.444885821E0,-7.294109166E-1,1.914348853E1
5.707391958E0,-1.491806444E1,-7.383516601E0,-3.290348700E0,1.696736157E1
5.717401958E0,-1.250939517E1,-4.924720320E0,-5.957109393E0,1.470459078E1
5.727411958E0,-1.000284117E1,-2.218840292E0,-7.335120367E0,1.260095530E1
5.737422958E0,-7.926193178E0,7.175855076E-1,-7.864671113E0,1.118894629E1
5.747432958E0,-5.793444073E0,3.499513252E0,-8.459497837E0,1.083391392E1
5.757442958E0,-3.654920257E0,5.683393042E0,-8.758982867E0,1.106251235E1
5.767452958E0,-1.575788366E0,7.089794587E0,-8.430074648E0,1.112719438E1
5.777463958E0,4.828928894E-1,7.989454789E0,-7.241491241E0,1.079369116E1
5.787473958E0,2.400464458E0,8.443198723E0,-5.049338518E0,1.012648279E1
5.797483958E0,4.327703229E0,8.341839579E0,-2.470777227E0,9.716997628E0
5.807494958E0,6.020963327E0,7.990462849E0,1.576046813E-1,1.000621483E1
5.817504958E0,7.287404163E0,7.788040429E0,2.198308526E0,1.089001348E1
5.827514958E0,8.145198886E0,7.632604480E0,3.207743915E0,1.161423855E1
5.837525958E0,8.726018019E0,7.467093778E0,3.445047315E0,1.199038077E1
5.847535958E0,9.162605054E0,7.387822491E0,3.250846081E0,1.221070239E1
5.857545958E0,9.652371345E0,7.389139284E0,2.921605447E0,1.250213703E1
5.867555958E0,1.005450249E1,7.313080457E0,2.527499896E0,1.268709667E1
5.877566958E0,1.036195026E1,7.247464757E0,1.982107873E0,1.279939492E1
5.887576958E0,1.057550110E1,7.089578240E0,1.530372749E0,1.282362600E1
5.897586958E0,1.064212662E1,6.728896251E0,1.375313361E0,1.266587504E1
5.907597958E0,1.081812430E1,6.495291215E0,1.099218363E0,1.266605315E1
5.917607958E0,1.086509498E1,6.352756562E0,8.149863794E-1,1.261237518E1
5.927617958E0,1.041459040E1,6.394274132E0,7.980269690E-1,1.224692949E1
5.937627958E0,9.910816523E0,6.373766778E0,8.423802924E-1,1.181350040E1
5.947638958E0,9.324386986E0,6.295966065E0,9.455241533E-1,1.129058888E1
5.957648958E0,8.540518611E0,6.238478580E0,9.645391524E-1,1.062023582E1
5.967658958E0,7.908739239E0,6.268956022E0,1.016514906E0,1.014304040E1
5.977669958E0,7.305314185E0,6.363618350E0,1.160398365E0,9.757549806E0
5.987679958E0,6.834127421E0,6.299928723E0,1.355083895E0,9.393117262E0
5.997689958E0,6.528257232E0,6.062117200E0,1.632856021E0,9.057241645E0
6.007700958E0,6.329014528E0,5.853809558E0,2.025683663E0,8.855896653E0
6.017710958E0,6.193949693E0,5.669596537E0,2.404903811E0,8.734580702E0
6.027720958E0,6.079941267E0,5.417813677E0,2.492893735E0,8.516625507E0
6.037730958E0,5.700236531E0,5.101835405E0,2.478332999E0,8.041365274E0
6.047741958E0,5.155664288E0,4.860123205E0,2.494784725E0,7.511699051E0
6.057751958E0,4.487946174E0,4.549606817E0,2.249922044E0,6.775155516E0
6.067761958E0,3.799026057E0,3.950645235E0,1.859333886E0,5.787686866E0
6.077772958E0,2.825191585E0,3.173541797E0,1.235170512E0,4.424784879E0
6.087782958E0,1.789393001E0,2.260603738E0,6.609971778E-1,2.957900242E0
6.097792958E0,5.436016059E-1,8.726446036E-1,3.150297068E-1,1.075292996E0
6.107802958E0,-1.449827646E0,-5.500148320E-1,7.585578248E-2,1.552504627E0
6.117813958E0,-4.470054279E0,-2.065336556E0,-1.422438996E-1,4.926178404E0
6.127823958E0,-8.296771579E0,-4.176108901E0,-2.727799192E-1,9.292508438E0
6.137833958E0,-1.208646840E1,-6.754394789E0,-1.463612165E-1,1.384651541E1
6.147844958E0,-1.514596786E1,-9.666696439E0,2.857759407E-1,1.797017057E1
6.157854958E0,-1.795636190E1,-1.329429500E1,1.032178720E0,2.236592509E1
6.167864958E0,-1.995985187E1,-1.771259615E1,1.395518415E0,2.672226077E1
6.177874958E0,-2.018739042E1,-2.139298805E1,1.288732177E0,2.944234196E1
6.187885958E0,-1.878372888E1,-2.156560020E1,9.231487593E-1,2.861390896E1
6.197895958E0,-1.780457052E1,-1.895081190E1,4.899767911E-1,2.600723130E1
6.207905958E0,-1.705236131E1,-1.629043052E1,7.963371237E-1,2.359651045E1
6.217916958E0,-1.595536986E1,-1.448023429E1,1.755660706E0,2.161789437E1
6.227926958E0,-1.493271757E1,-1.332222364E1,3.455871096E0,2.030789850E1
6.237936958E0,-1.452832413E1,-1.178773416E1,4.788416460E0,1.931196030E1
6.247947958E0,-1.391791458E1,-9.385015011E0,4.877333314E0,1.748071032E1
6.257957958E0,-1.306770019E1,-6.890744256E0,3.910312604E0,1.528193997E1
6.267967958E0,-1.191903455E1,-4.429673992E0,2.321241703E0,1.292569377E1
6.277977958E0,-1.063126015E1,-1.667041475E0,1.374167307E-1,1.076204455E1
6.287988958E0,-9.348925996E0,1.275454027E0,-2.882704214E0,9.866062225E0
6.297998958E0,-7.648722330E0,3.949540404E0,-6.358097409E0,1.070173936E1
6.308008958E0,-5.441229436E0,6.143368939E0,-9.155424088E0,1.229511081E1
6.318019958E0,-2.640668662E0,7.574121798E0,-9.809011821E0,1.267111538E1
6.328029958E0,3.897958606E-1,7.577140131E0,-8.390667922E0,1.131230753E1
6.338039833E0,3.837338183E0,7.007138931E0,-6.456943420E0,1.027216037E1
6.348049833E0,7.222714663E0,6.432990301E0,-4.588605992E0,1.070543209E1
6.358060833E0,9.656656770E0,5.904023691E0,-3.065551325E0,1.172630038E1
6.368070833E0,1.120051466E1,5.379976344E0,-1.819375037E0,1.255809698E1
6.378080833E0,1.220960609E1,5.353772047E0,-3.361209060E-1,1.333605388E1
6.388091833E0,1.259455402E1,5.718050659E0,6.535573268E-1,1.384723913E1
6.398101833E0,1.264833671E1,6.174015366E0,1.184767221E0,1.412453754E1
6.408111833E0,1.259961537E1,6.414454628E0,1.584361846E0,1.422693706E1
6.418122833E0,1.251465767E1,6.625054379E0,1.861103253E0,1.428186638E1
6.428132833E0,1.168669895E1,6.775541829E0,1.701291102E0,1.361547982E1
6.438142833E0,1.058449178E1,6.748838180E0,1.338385855E0,1.262416570E1
6.448152833E0,1.014321645E1,6.527024054E0,1.288306207E0,1.213040048E1
6.458163833E0,1.030952062E1,6.230652081E0,1.438363303E0,1.213161694E1
6.468173833E0,1.051590394E1,6.089904338E0,1.581704578E0,1.225450774E1
6.478183833E0,1.061868513E1,6.134149050E0,1.304974573E0,1.233236462E1
6.488194833E0,1.088708636E1,6.110628040E0,8.268524265E-1,1.251207854E1
6.498204833E0,1.127194775E1,5.992977383E0,3.229139462E-1,1.277015495E1
6.508214833E0,1.127349610E1,6.042074114E0,-2.546506271E-1,1.279309270E1
6.518224833E0,1.079387473E1,5.944753057E0,-8.267965856E-1,1.235036085E1
6.528235833E0,1.005958021E1,5.997621827E0,-8.265284908E-1,1.174094421E1
6.538245833E0,9.113317704E0,6.279902594E0,-3.192003796E-1,1.107211023E1
6.548255833E0,8.109312769E0,6.254910425E0,-1.689307380E-1,1.024272403E1
6.558266833E0,7.200986409E0,6.214205618E0,-1.505973780E-1,9.512793296E0
6.568276833E0,6.734061681E0,6.190800383E0,-1.139473227E-1,9.148036953E0
6.578286833E0,6.952245271E0,5.847088183E0,1.550202119E-1,9.085493151E0
6.588296833E0,7.110335271E0,5.263815558E0,5.862538281E-1,8.866133060E0
6.598307833E0,6.930903518E0,4.703863383E0,8.650300670E-1,8.420928175E0
6.608317833E0,6.585523692E0,4.189253149E0,1.103925225E0,7.882741601E0
6.618327833E0,5.935957090E0,3.879641326E0,1.267333414E0,7.203703033E0
6.628338833E0,5.107842250E0,3.371479987E0,1.213154576E0,6.239284717E0
6.638348833E0,4.038224539E0,2.584850264E0,7.568799663E-1,4.854026741E0
6.648358833E0,2.659214861E0,1.627804319E0,2.524020803E-1,3.128078865E0
6.658369833E0,6.108966261E-1,1.958755848E-1,7.650496960E-3,6.415765446E-1
6.668379833E0,-2.240203972E0,-1.462849980E0,-6.788795713E-1,2.760311825E0
6.678389833E0,-5.807472128E0,-3.412189179E0,-2.216472462E0,7.091016689E0
6.688399833E0,-1.034453491E1,-6.113093226E0,-3.351961689E0,1.247457248E1
6.698410833E0,-1.477130167E1,-9.324658297E0,-3.687020009E0,1.785314319E1
6.708420833E0,-1.851894590E1,-1.228183440E1,-4.167400935E0,2.260889303E1
6.718430833E0,-2.152672323E1,-1.561731659E1,-4.723738946E0,2.701136983E1
6.728441833E0,-2.330379264E1,-1.894862738E1,-4.355019082E0,3.034935620E1
6.738451833E0,-2.426555436E1,-2.049655376E1,-2.794083521E0,3.188624699E1
6.748461833E0,-2.417490147E1,-2.004413597E1,-7.507029676E-1,3.141268538E1
6.758471833E0,-2.312083794E1,-1.863922430E1,1.536642719E0,2.973810855E1
6.768482833E0,-2.174873733E1,-1.723739995E1,3.639139792E0,2.798890621E1
6.778492833E0,-2.051582618E1,-1.543885606E1,5.465035790E0,2.625117172E1
6.788502833E0,-1.955488541E1,-1.242584899E1,7.233369459E0,2.427173047E1
6.798513833E0,-1.870566621E1,-8.591944288E0,7.098877652E0,2.177423980E1
6.808523833E0,-1.735520615E1,-4.894781406E0,4.834647763E0,1.866911579E1
6.818533833E0,-1.516875914E1,-2.170292323E0,1.609945461E0,1.540757434E1
6.828544833E0,-1.180852919E1,-3.148865962E-1,-1.650752009E0,1.192751011E1
6.838554833E0,-7.623992701E0,1.287364221E0,-4.250145761E0,8.823055611E0
6.848564833E0,-3.747433734E0,2.778052502E0,-6.336208942E0,7.868187787E0
6.858574833E0,-3.129096526E-1,4.042648543E0,-8.017810861E0,8.984776608E0
6.868585833E0,2.867186873E0,4.944624242E0,-9.188295965E0,1.082103748E1
6.878595833E0,5.679057916E0,5.629225021E0,-9.655805415E0,1.253692352E1
6.888605833E0,7.666871502E0,6.297141940E0,-9.285619361E0,1.358887936E1
6.898616833E0,8.720029301E0,6.387241101E0,-8.132218652E0,1.352659381E1
6.908626833E0,9.177963350E0,6.249285403E0,-6.560709279E0,1.289695645E1
6.918636833E0,9.599402003E0,5.994181910E0,-4.869491029E0,1.232033597E1
6.928646833E0,1.029884828E1,5.485178279E0,-3.322537622E0,1.213230039E1
6.938657833E0,1.142964131E1,5.023562822E0,-1.796575720E0,1.261350738E1
6.948667833E0,1.223002924E1,4.521134385E0,1.958948806E-2,1.303896680E1
6.958677833E0,1.256881224E1,4.046496888E0,1.431064223E0,1.328145786E1
6.968688833E0,1.286246643E1,3.795538192E0,2.205030777E0,1.359085404E1
6.978698833E0,1.284632811E1,3.711644096E0,2.347174251E0,1.357621725E1
6.988708833E0,1.245292042E1,3.667777992E0,2.189789279E0,1.316521931E1
6.998718833E0,1.197349084E1,3.599904390E0,1.955052368E0,1.265488144E1
7.008729833E0,1.166026018E1,3.527298051E0,1.666940318E0,1.229561666E1
7.018739833E0,1.132543107E1,3.621239710E0,1.303425353E0,1.196150841E1
7.028749833E0,1.112769928E1,3.783583852E0,1.372306577E0,1.183319160E1
7.038760833E0,1.093355418E1,3.932089974E0,1.695791065E0,1.174221640E1
7.048770833E0,1.072235275E1,4.092946292E0,2.106918007E0,1.166876863E1
7.058780833E0,1.028350402E1,4.375845402E0,2.334142123E0,1.141694781E1
7.068791833E0,9.587155595E0,4.648104334E0,2.433078181E0,1.092878290E1
7.078801833E0,9.020214828E0,4.936033512E0,2.530120326E0,1.058915536E1
7.088811833E0,8.622512947E0,5.166113262E0,2.780348704E0,1.042913202E1
7.098821833E0,8.238819825E0,5.306545841E0,2.926809762E0,1.022759973E1
7.108832833E0,7.786833563E0,5.492570329E0,2.851986451E0,9.946704604E0
7.118842833E0,7.439786696E0,5.648258293E0,3.000803060E0,9.811119550E0
7.128852833E0,7.047079507E0,5.579014395E0,3.291818398E0,9.571979919E0
7.138863833E0,6.652453262E0,5.360445474E0,3.441830177E0,9.210630003E0
7.148873833E0,6.376773416E0,5.168345729E0,3.421858428E0,8.892927070E0
7.158883833E0,6.080398520E0,4.672577856E0,3.376049001E0,8.378659608E0
7.168893833E0,5.354728652E0,3.851879624E0,3.089344230E0,7.283827520E0
7.178904833E0,4.280713835E0,3.110618447E0,2.655930772E0,5.920677860E0
7.188914833E0,3.145747057E0,2.087847751E0,2.186049399E0,4.362756555E0
7.198924833E0,1.040539507E0,5.857620773E-1,1.647925611E0,2.035067197E0
7.208935833E0,-1.261553149E0,-7.275561798E-1,1.077688622E0,1.811702821E0
7.218945833E0,-4.681124731E0,-2.287987711E0,1.698269700E-1,5.213123604E0
7.228955833E0,-9.671023963E0,-5.258142589E0,-5.674768107E-1,1.102264931E1
7.238965833E0,-1.539460199E1,-9.295573661E0,-1.319421873E0,1.803170359E1
7.248976833E0,-2.024242441E1,-1.348426752E1,-2.707107942E0,2.447263063E1
7.258986833E0,-2.232962546E1,-1.696982669E1,-3.807185261E0,2.830338939E1
7.268996833E0,-2.270297486E1,-1.856929394E1,-3.632783576E0,2.955403291E1
7.279007833E0,-2.197111396E1,-1.716847181E1,-3.263735975E0,2.807379998E1
7.289017833E0,-2.083833755E1,-1.446715290E1,-2.548852466E0,2.549571481E1
7.299027833E0,-1.968652260E1,-1.266339797E1,-1.077110625E0,2.343247720E1
7.309037833E0,-1.910417969E1,-1.233181523E1,3.468217492E-1,2.274123202E1
7.319048833E0,-1.821307338E1,-1.209236474E1,1.879764934E0,2.194253501E1
7.329058833E0,-1.710831682E1,-1.077957711E1,3.805992137E0,2.057618437E1
7.339068750E0,-1.629766352E1,-9.308872569E0,6.646699601E0,1.991099094E1
7.349079750E0,-1.518861862E1,-7.364235992E0,8.705228244E0,1.899229070E1
7.359089750E0,-1.449470030E1,-4.661121406E0,8.586405805E0,1.747995293E1
7.369099750E0,-1.412015340E1,-2.116209379E0,6.026412932E0,1.549757164E1
7.379110750E0,-1.289226033E1,1.516153783E-1,1.862476180E0,1.302697897E1
7.389120750E0,-9.680490021E0,1.996137390E0,-2.558816414E0,1.020999476E1
7.399130750E0,-5.326691253E0,3.231138918E0,-6.278514465E0,8.844978366E0
7.409140750E0,-7.347868466E-1,3.968164663E0,-9.055222692E0,9.913793447E0
7.419151750E0,3.286642150E0,4.730056863E0,-1.167355675E1,1.301719561E1
7.429161750E0,6.173411348E0,5.117963780E0,-1.373543000E1,1.590492371E1
7.439171750E0,8.144781979E0,4.921798466E0,-1.415660728E1,1.705787511E1
7.449182750E0,1.007204180E1,4.742951435E0,-1.279699866E1,1.696186278E1
7.459192750E0,1.193857478E1,4.381024866E0,-1.027798307E1,1.635114316E1
7.469202750E0,1.337207232E1,3.781387346E0,-7.271927168E0,1.568413635E1
7.479212750E0,1.433181792E1,3.418399799E0,-4.174280477E0,1.531375459E1
7.489223750E0,1.466265105E1,3.711491192E0,-4.110183299E-1,1.513067873E1
7.499233750E0,1.460825206E1,4.503903518E0,2.714776858E0,1.552598430E1
7.509243750E0,1.411025289E1,4.882419807E0,3.669117297E0,1.537529452E1
7.519254750E0,1.323313078E1,5.043561469E0,2.952327011E0,1.446615005E1
7.529264750E0,1.214913535E1,5.470260862E0,2.060037078E0,1.348217328E1
7.539274750E0,1.155021675E1,5.767084240E0,1.327590433E0,1.297803005E1
7.549284750E0,1.087639882E1,5.526861910E0,6.911654484E-1,1.221965480E1
7.559295750E0,1.050351837E1,5.110217389E0,5.277824025E-1,1.169259484E1
7.569305750E0,1.034047461E1,4.872114967E0,9.046319430E-1,1.146652861E1
7.579315750E0,1.027913615E1,4.699404881E0,1.587389388E0,1.141336283E1
7.589326750E0,1.015050793E1,4.282554246E0,2.251320844E0,1.124462216E1
7.599336750E0,1.007670554E1,4.203877620E0,3.180870112E0,1.137235755E1
7.609346750E0,1.005594675E1,4.262267916E0,3.758458074E0,1.155054111E1
7.619356750E0,9.900102085E0,4.339116409E0,3.782389266E0,1.145191779E1
7.629367750E0,9.535434049E0,4.686527850E0,3.556177157E0,1.120421536E1
7.639377750E0,8.963804984E0,4.994116244E0,3.170241628E0,1.073971270E1
7.649387750E0,8.232721764E0,5.192322822E0,2.641402488E0,1.008538205E1
7.659398750E0,7.410604997E0,5.216402825E0,1.988050983E0,9.277945439E0
7.669408750E0,6.431472364E0,5.119010432E0,1.301078573E0,8.322313982E0
7.679418750E0,5.506091430E0,5.013782769E0,7.585981706E-1,7.485354479E0
7.689429750E0,4.554599755E0,4.838863606E0,3.787136328E-1,6.656005103E0
7.699439750E0,4.078115414E0,4.466317031E0,8.667693213E-2,6.048679694E0
7.709449750E0,3.977458520E0,3.757620461E0,1.110283926E-1,5.472861693E0
7.719459750E0,3.525472843E0,2.725452997E0,4.970520683E-1,4.483761096E0
7.729470750E0,2.628644448E0,1.294261012E0,8.538466823E-1,3.051874401E0
7.739480750E0,9.704027402E-1,-6.701999643E-1,1.104831690E0,1.616014398E0
7.749490750E0,-1.741227146E0,-3.123236154E0,1.135188095E0,3.751683363E0
7.759501750E0,-5.770689048E0,-6.066169320E0,4.935415462E-1,8.387064181E0
7.769511750E0,-1.067184216E1,-8.563609266E0,-7.021509048E-1,1.370097204E1
7.779521750E0,-1.593557469E1,-1.043053459E1,-2.325300840E0,1.918712111E1
7.789531750E0,-2.179908420E1,-1.272219640E1,-3.560977721E0,2.548989830E1
7.799542750E0,-2.586650564E1,-1.526292504E1,-4.104036998E0,3.031296941E1
7.809552750E0,-2.699687066E1,-1.644456195E1,-3.834846392E0,3.184274941E1
7.819562750E0,-2.624442756E1,-1.571117610E1,-2.669955319E0,3.070406640E1
7.829573750E0,-2.482533872E1,-1.432902997E1,-1.489409495E0,2.870255883E1
7.839583750E0,-2.305459366E1,-1.313889939E1,-8.762956050E-1,2.655019511E1
7.849593750E0,-2.074514930E1,-1.211293056E1,-2.431064692E-1,2.402380917E1
7.859603750E0,-1.822848664E1,-1.081565093E1,9.197950888E-1,2.121560871E1
7.869614750E0,-1.571377226E1,-9.233904247E0,1.850821802E0,1.831974802E1
7.879624750E0,-1.361548489E1,-7.532923486E0,2.211015987E0,1.571670948E1
7.889634750E0,-1.185420413E1,-5.687563276E0,1.843396861E0,1.327662019E1
7.899645750E0,-1.008941388E1,-3.636081990E0,8.486928003E-1,1.075814315E1
7.909655750E0,-7.989684584E0,-1.296653692E0,-5.070496376E-1,8.110084456E0
7.919665750E0,-5.449246554E0,8.574269325E-1,-2.075098629E0,5.893683336E0
7.929675750E0,-2.560990993E0,2.714699967E0,-3.320155467E0,4.995167976E0
7.939686750E0,3.060953075E-1,4.258232168E0,-4.286486206E0,6.049809875E0
7.949696750E0,2.670566645E0,5.223032398E0,-4.896505165E0,7.641188158E0
7.959706750E0,4.247191163E0,5.677821230E0,-5.183835003E0,8.783418016E0
7.969717750E0,5.478451057E0,6.087419856E0,-5.337217995E0,9.775275056E0
7.979727750E0,6.734187396E0,6.542443746E0,-5.227573346E0,1.074617947E1
7.989737750E0,7.740095015E0,6.875517522E0,-4.545370510E0,1.130673273E1
7.999748750E0,8.735778776E0,7.053948816E0,-3.693924694E0,1.182019900E1
8.009758750E0,9.886156476E0,6.963055018E0,-2.985093638E0,1.245515994E1
8.019768750E0,1.119050890E1,6.731679525E0,-2.367955109E0,1.327215921E1
8.029778750E0,1.242317915E1,6.454555417E0,-1.894709541E0,1.412751181E1
8.039789750E0,1.302475005E1,6.222791669E0,-1.608019388E0,1.452422034E1
8.049799750E0,1.308677731E1,6.064513974E0,-1.496696442E0,1.450110928E1
8.059809750E0,1.278546444E1,5.901183114E0,-1.390094830E0,1.415006808E1
8.069820750E0,1.237252121E1,5.842778785E0,-1.134688377E0,1.372970731E1
8.079830750E0,1.201442603E1,5.845479029E0,-8.496588334E-1,1.338797886E1
8.089840750E0,1.160931573E1,5.844296138E0,-5.309612413E-1,1.300822543E1
8.099850750E0,1.124099143E1,5.761397238E0,-9.657027483E-2,1.263182141E1
8.109861750E0,1.093745661E1,5.662502110E0,3.799310231E-1,1.232218466E1
8.119871750E0,1.052597285E1,5.560152447E0,9.018382895E-1,1.193837141E1
8.129881750E0,9.837839763E0,5.436482667E0,1.292342248E0,1.131408783E1
8.139892750E0,9.128585953E0,5.490487550E0,1.548632580E0,1.076451568E1
8.149902750E0,8.510238220E0,5.743669649E0,1.698541157E0,1.040667755E1
8.159912750E0,7.752941932E0,5.888170720E0,1.606546913E0,9.867099676E0
8.169922750E0,6.851598902E0,5.980695891E0,1.466938646E0,9.212222308E0
8.179933750E0,6.383845623E0,6.193788895E0,1.322813112E0,8.992571398E0
8.189943750E0,6.262901230E0,6.273993983E0,1.350898458E0,8.967265969E0
8.199953750E0,6.214634219E0,6.081448095E0,1.428651516E0,8.811738453E0
8.209964750E0,5.923629990E0,5.807945752E0,1.364043291E0,8.407273055E0
8.219974750E0,5.675851303E0,5.778656464E0,1.368741968E0,8.214719297E0
8.229984750E0,5.509844173E0,5.599549817E0,1.601544327E0,8.017373959E0
8.239994750E0,5.128773528E0,5.104996995E0,1.828665094E0,7.463868182E0
8.250005750E0,4.233804547E0,4.433833117E0,1.693372510E0,6.360148387E0
8.260015750E0,3.440091215E0,3.741708433E0,1.331366565E0,5.254250327E0
8.270025750E0,2.923925330E0,2.854751015E0,1.203141804E0,4.259870056E0
8.280036750E0,1.836634995E0,1.183907388E0,1.182320746E0,2.484501389E0
8.290046750E0,-1.921506160E-1,-1.225782515E0,1.086917575E0,1.649501273E0
8.300056750E0,-4.015706912E0,-3.942520237E0,6.118896295E-1,5.660722281E0
8.310067750E0,-1.001886371E1,-7.446371246E0,-3.862857771E-1,1.248900683E1
8.320077750E0,-1.629896745E1,-1.204645591E1,-2.218527466E0,2.038860721E1
8.330087750E0,-2.034630371E1,-1.609545628E1,-3.668374701E0,2.620100686E1
8.340097583E0,-2.215278929E1,-1.811357715E1,-4.069395753E0,2.890342077E1
8.350108583E0,-2.220184977E1,-1.872375983E1,-3.365998515E0,2.923749752E1
8.360118583E0,-1.979919611E1,-1.747881278E1,-1.403296966E0,2.644780341E1
8.370128583E0,-1.708716160E1,-1.546533342E1,1.720425092E0,2.311076571E1
8.380138583E0,-1.621941374E1,-1.430884772E1,5.236180447E0,2.225376577E1
8.390149583E0,-1.677962144E1,-1.398636676E1,7.640679485E0,2.314204256E1
8.400159583E0,-1.790659741E1,-1.351202543E1,8.216644260E0,2.389004615E1
8.410169583E0,-1.810647396E1,-1.159534907E1,7.228531473E0,2.268365461E1
8.420180583E0,-1.726585835E1,-9.119668365E0,4.913437532E0,2.013504617E1
8.430190583E0,-1.604990413E1,-7.016640072E0,2.270835196E0,1.766322035E1
8.440200583E0,-1.456576035E1,-5.073448927E0,-4.315853262E-1,1.543008504E1
8.450210583E0,-1.295745561E1,-2.931306563E0,-3.423392737E0,1.371888596E1
8.460221583E0,-1.094567663E1,-7.392231292E-1,-6.767576752E0,1.289008855E1
8.470231583E0,-7.767827189E0,1.550849114E0,-9.683428831E0,1.251051822E1
8.480241583E0,-3.790450530E0,3.582852155E0,-1.119402191E1,1.234951300E1
8.490252583E0,-1.509523040E-1,5.009024305E0,-1.174497230E1,1.276939644E1
8.500262583E0,2.281056713E0,6.000478191E0,-1.126322956E1,1.296415436E1
8.510272583E0,3.380909792E0,6.785273935E0,-9.443183112E0,1.210967385E1
8.520282583E0,3.911807152E0,7.338576071E0,-6.098952320E0,1.031281501E1
8.530293583E0,4.219419812E0,7.549118519E0,-2.857117968E0,9.108008402E0
8.540303583E0,4.749753501E0,7.613060746E0,-4.878155141E-1,8.986479634E0
8.550313583E0,5.764056551E0,7.689485024E0,9.661752033E-1,9.658468946E0
8.560324583E0,6.438051651E0,7.487522196E0,1.630538331E0,1.000850403E1
8.570334583E0,7.288222189E0,7.404011092E0,1.822262392E0,1.054790041E1
8.580344583E0,8.561536428E0,7.196340212E0,1.216597416E0,1.125021456E1
8.590354583E0,9.745956616E0,6.691504476E0,4.673610766E-1,1.183124376E1
8.600365583E0,1.057027954E1,6.026590687E0,1.393227768E-1,1.216840235E1
8.610375583E0,1.135728436E1,5.640765671E0,-1.783437319E-1,1.268219034E1
8.620385583E0,1.195524636E1,5.639100384E0,-2.118142176E-1,1.322014500E1
8.630396583E0,1.223936958E1,5.562645115E0,-9.120720863E-2,1.344446010E1
8.640406583E0,1.243094308E1,5.323458327E0,1.550191887E-1,1.352374154E1
8.650416583E0,1.252934587E1,5.128500463E0,6.506395662E-1,1.355394248E1
8.660427583E0,1.244852449E1,5.133779329E0,1.120431915E0,1.351209902E1
8.670437583E0,1.210964560E1,5.237161610E0,1.365635927E0,1.326409966E1
8.680447583E0,1.156834429E1,5.229028133E0,1.549046710E0,1.278940462E1
8.690457583E0,1.090538814E1,5.319493915E0,1.660216605E0,1.224666588E1
8.700468583E0,9.919951043E0,5.651708150E0,1.605125016E0,1.152925236E1
8.710478583E0,9.016610019E0,5.871309689E0,1.426788447E0,1.085390524E1
8.720488583E0,8.106326011E0,5.916416280E0,1.246199530E0,1.011283918E1
8.730499583E0,7.446339086E0,5.866437204E0,1.010577790E0,9.533326740E0
8.740509583E0,6.904814411E0,5.831562656E0,7.545445883E-1,9.069339701E0
8.750519583E0,6.410434082E0,5.836470809E0,5.920770702E-1,8.689569143E0
8.760529583E0,6.007201320E0,5.581639795E0,6.094754604E-1,8.222690000E0
8.770540583E0,5.699777525E0,5.271599371E0,6.675978072E-1,7.792490654E0
8.780550583E0,5.353764446E0,4.907275736E0,8.460808490E-1,7.311634680E0
8.790560583E0,5.167482680E0,4.334036641E0,1.224891107E0,6.854714369E0
8.800571583E0,4.636253783E0,3.435837951E0,1.440136471E0,5.947589816E0
8.810581583E0,4.069312431E0,2.474479391E0,1.579128003E0,5.017568850E0
8.820591583E0,2.946883253E0,1.228128418E0,1.549684348E0,3.548794429E0
8.830601583E0,1.033003031E0,-3.173003268E-1,1.334105401E0,1.716861084E0
8.840612583E0,-1.791821349E0,-1.958645920E0,6.118508917E-1,2.724202471E0
8.850622583E0,-5.678625222E0,-3.780600311E0,-7.141765809E-1,6.859283586E0
8.860632583E0,-1.129345966E1,-6.292302200E0,-1.974096018E0,1.307793383E1
8.870643583E0,-1.730239760E1,-9.442923496E0,-2.943075254E0,1.992996385E1
8.880653583E0,-2.186223413E1,-1.264715207E1,-3.731214142E0,2.553095563E1
8.890663583E0,-2.394256820E1,-1.567474794E1,-3.700050530E0,2.885540971E1
8.900673583E0,-2.325539173E1,-1.783514561E1,-3.061401848E0,2.946655468E1
8.910684583E0,-2.160519286E1,-1.782960946E1,-2.135529164E0,2.809341234E1
8.920694583E0,-2.002237264E1,-1.541742602E1,-9.702799487E-1,2.528900698E1
8.930704583E0,-1.942598471E1,-1.286652556E1,1.975540280E-1,2.330140317E1
8.940715583E0,-1.895231931E1,-1.164278753E1,1.426812128E0,2.228857782E1
8.950725583E0,-1.843486996E1,-1.127870363E1,2.378297664E0,2.174189241E1
8.960735583E0,-1.755926813E1,-9.805494136E0,2.890012064E0,2.031816385E1
8.970745583E0,-1.618049234E1,-7.550837601E0,3.106910436E0,1.812391716E1
8.980756583E0,-1.442336661E1,-5.373157321E0,3.058070397E0,1.569254978E1
8.990766583E0,-1.200324849E1,-3.261965438E0,2.485254933E0,1.268443475E1
9.000776583E0,-9.106912664E0,-9.256195003E-1,9.930666943E-1,9.207540995E0
9.010787583E0,-6.315352508E0,1.238683519E0,-1.152626538E0,6.538085508E0
9.020797583E0,-3.453842112E0,2.871370848E0,-3.691167147E0,5.813648664E0
9.030807583E0,-3.205870467E-1,4.157905641E0,-5.887088985E0,7.214483495E0
9.040817583E0,2.491224355E0,5.073751813E0,-7.124662703E0,9.094502454E0
9.050828583E0,4.856210248E0,5.499159556E0,-7.583898343E0,1.055173198E1
9.060838583E0,7.041675510E0,5.655785998E0,-7.409141439E0,1.168197270E1
9.070848583E0,8.848027775E0,5.560803827E0,-6.670900058E0,1.239802574E1
9.080859583E0,1.029346416E1,5.348915350E0,-5.588046005E0,1.287604590E1
9.090869583E0,1.143928337E1,5.271432726E0,-3.856339295E0,1.317256846E1
9.100879583E0,1.207297771E1,5.262437954E0,-2.136137567E0,1.334215603E1
9.110889583E0,1.235990292E1,5.231528403E0,-7.699753904E-1,1.344354684E1
9.120900583E0,1.234409439E1,5.458217937E0,1.837407120E-1,1.349824322E1
9.130910583E0,1.200268599E1,6.082443291E0,3.486566055E-1,1.346039185E1
9.140920583E0,1.141724522E1,6.621501026E0,-8.543796560E-1,1.322602468E1
9.150931583E0,1.069002467E1,6.870510551E0,-2.784605477E0,1.300901881E1
9.160941583E0,9.842033386E0,7.071810890E0,-4.359840696E0,1.287960952E1
9.170951583E0,9.155846842E0,7.164148366E0,-5.026205764E0,1.266559503E1
9.180961583E0,8.875218498E0,6.936868848E0,-4.797436960E0,1.224357195E1
9.190972583E0,9.117858651E0,6.579491705E0,-3.940969555E0,1.191454147E1
9.200982583E0,9.699589366E0,5.977029102E0,-2.638651958E0,1.169484480E1
9.210992583E0,1.055434704E1,5.240319691E0,-1.032948067E0,1.182887035E1
9.221003583E0,1.114681149E1,4.669229740E0,5.148989399E-1,1.209620741E1
9.231013583E0,1.146740497E1,4.422927475E0,1.791417307E0,1.242066183E1
9.241023583E0,1.142537986E1,4.192488414E0,2.986705130E0,1.253142736E1
9.251033583E0,1.095670448E1,4.113031477E0,3.741913962E0,1.228691666E1
9.261044583E0,1.029033707E1,4.106154859E0,3.887570736E0,1.174158213E1
9.271054583E0,9.520869219E0,4.127822009E0,3.759188976E0,1.103709051E1
9.281064583E0,8.684479984E0,4.091683585E0,3.535956316E0,1.023059403E1
9.291075583E0,7.894380816E0,3.929028956E0,3.452187935E0,9.469747544E0
9.301085583E0,7.184811257E0,3.880264640E0,3.595495882E0,8.922194635E0
9.311095583E0,6.194474189E0,3.625342117E0,3.796724008E0,8.119712380E0
9.321106583E0,5.037485043E0,3.185028067E0,4.122708035E0,7.246887669E0
9.331116583E0,3.916962642E0,2.773067166E0,4.279325998E0,6.430017795E0
9.341126083E0,2.563918110E0,2.251304326E0,4.175624459E0,5.392391572E0
9.351136083E0,1.276431974E0,1.272331614E0,3.794058262E0,4.200355273E0
9.361147083E0,1.914261460E-2,1.077986830E-1,3.069720682E0,3.071672519E0
9.371157083E0,-1.552136963E0,-1.263350291E0,1.825123289E0,2.708552774E0
9.381167083E0,-3.535549935E0,-2.654236541E0,6.902874890E-1,4.474548220E0
9.391177083E0,-6.321764565E0,-3.735023019E0,-1.697534412E-1,7.344652504E0
9.401188083E0,-9.969652376E0,-4.780914775E0,-9.552023184E-1,1.109790638E1
9.411198083E0,-1.340205567E1,-6.573022345E0,-1.218743345E0,1.497681723E1
9.421208083E0,-1.635776354E1,-9.422117933E0,-9.413827166E-1,1.890076548E1
9.431219083E0,-1.811121956E1,-1.283447464E1,-1.511531559E-1,2.219826255E1
9.441229083E0,-1.890096555E1,-1.573613201E1,1.055811557E0,2.461680498E1
9.451239083E0,-1.892761950E1,-1.689057704E1,1.878675598E0,2.543768454E1
9.461250083E0,-1.885407439E1,-1.567673366E1,2.074206197E0,2.460769048E1
9.471260083E0,-1.911617583E1,-1.315823730E1,1.857088847E0,2.328124065E1
9.481270083E0,-1.986071116E1,-1.111368351E1,1.324330903E0,2.279727311E1
9.491280083E0,-2.107475919E1,-9.744240459E0,1.925675225E-1,2.321923296E1
9.501291083E0,-2.117333389E1,-8.272224383E0,-9.382860312E-1,2.275126688E1
9.511301083E0,-1.987057424E1,-6.722863094E0,-1.840139523E0,2.105760486E1
9.521311083E0,-1.801322022E1,-5.177119476E0,-2.513904828E0,1.891027198E1
9.531322083E0,-1.590467684E1,-3.656171561E0,-2.931673768E0,1.658074325E1
9.541332083E0,-1.336402070E1,-2.218556410E0,-3.367852667E0,1.395927912E1
9.551342083E0,-1.013198629E1,-7.543928531E-1,-3.791565009E0,1.084445572E1
9.561352083E0,-6.629929787E0,7.730916640E-1,-3.953150475E0,7.757643868E0
9.571363083E0,-3.305869550E0,2.022684918E0,-4.193278665E0,5.709957418E0
9.581373083E0,-2.437482011E-1,2.950811120E0,-4.588724982E0,5.461052684E0
9.591383083E0,2.360298180E0,3.540344067E0,-5.061795427E0,6.612625541E0
9.601394083E0,4.420636536E0,4.290097739E0,-5.714005555E0,8.402191706E0
9.611404083E0,5.636126490E0,4.638847023E0,-6.374059138E0,9.690895387E0
9.621414083E0,6.660396704E0,4.733337735E0,-7.154691664E0,1.086070823E1
9.631424083E0,7.854481171E0,4.702600092E0,-7.721019058E0,1.197586980E1
9.641435083E0,9.254498726E0,4.463290805E0,-7.428627870E0,1.267877058E1
9.651445083E0,1.044587769E1,4.259439618E0,-6.027492328E0,1.279022479E1
9.661455083E0,1.130906705E1,4.142415198E0,-4.048998034E0,1.270625776E1
9.671466083E0,1.183470484E1,4.224697509E0,-2.064668219E0,1.273464419E1
9.681476083E0,1.207266897E1,4.335379162E0,-2.997529788E-1,1.283100544E1
9.691486083E0,1.195639358E1,4.525147037E0,1.069304738E0,1.282870671E1
9.701496083E0,1.165460124E1,4.942722727E0,1.809406997E0,1.278804879E1
9.711507083E0,1.121991923E1,5.451307697E0,1.843656185E0,1.260961583E1
9.721517083E0,1.089511342E1,5.819696901E0,1.317028023E0,1.242203410E1
9.731527083E0,1.088157477E1,6.064109931E0,5.020793581E-1,1.246732459E1
9.741538083E0,1.086868868E1,6.229908900E0,-1.648974748E-1,1.252866113E1
9.751548083E0,1.076039240E1,6.415569692E0,-7.473747325E-1,1.255006566E1
9.761558083E0,1.062174673E1,6.373434656E0,-1.218289601E0,1.244694350E1
9.771568083E0,1.061463652E1,6.209959370E0,-1.313844799E0,1.236771167E1
9.781579083E0,1.062641164E1,6.068708181E0,-1.182303497E0,1.229421347E1
9.791589083E0,1.032817557E1,6.044239923E0,-9.601853156E-1,1.200524897E1
9.801599083E0,9.779590970E0,5.983071615E0,-7.978025821E-1,1.149234678E1
9.811610083E0,9.167081097E0,5.918681492E0,-6.968737927E-1,1.093397455E1
9.821620083E0,8.788708357E0,5.718292149E0,-5.148308198E-1,1.049787171E1
9.831630083E0,8.356812544E0,5.532282863E0,-2.419300094E-1,1.002501869E1
9.841640083E0,7.853622215E0,5.212813219E0,1.150954235E-1,9.426879150E0
9.851651083E0,7.386639014E0,4.806184394E0,6.517821121E-1,8.836665903E0
9.861661083E0,6.862192887E0,4.308220307E0,1.336903878E0,8.212050013E0
9.871671083E0,6.019752368E0,3.597757292E0,1.925362253E0,7.272433975E0
9.881682083E0,5.147677576E0,2.887083194E0,2.467280592E0,6.396976419E0
9.891692083E0,4.365828245E0,2.264228719E0,2.984741928E0,5.752901210E0
9.901702083E0,3.195722625E0,1.449311922E0,3.213069559E0,4.757831873E0
9.911712083E0,9.933460450E-1,6.707782540E-1,3.094434232E0,3.318463959E0
9.921723083E0,-2.218378655E0,-3.849260071E-1,2.629191163E0,3.461505172E0
9.931733083E0,-6.229772075E0,-2.328961782E0,2.463526972E0,7.092467006E0
9.941743083E0,-9.921422203E0,-4.152076260E0,2.584476335E0,1.106136853E1
9.951754083E0,-1.315354901E1,-5.139045331E0,2.714408484E0,1.438032169E1
9.961764083E0,-1.616693381E1,-6.324362483E0,2.584024638E0,1.755119634E1
9.971774083E0,-1.848019524E1,-8.470304661E0,2.389507069E0,2.046884025E1
9.981784083E0,-2.053093071E1,-1.216388437E1,2.086563995E0,2.395481054E1
9.991795083E0,-2.170664673E1,-1.592498071E1,1.771111681E0,2.697999925E1
1.000180508E1,-2.261541631E1,-1.732554556E1,1.056063865E0,2.850871542E1
1.001181508E1,-2.310953176E1,-1.634962773E1,-3.090376264E-1,2.831000334E1
1.002182608E1,-2.282607746E1,-1.453194473E1,-1.503786044E0,2.710108120E1
1.003183608E1,-2.169545282E1,-1.254169051E1,-1.163603224E0,2.508666272E1
1.004184608E1,-2.030973522E1,-1.051431467E1,2.246614274E-1,2.287108721E1
1.005185608E1,-1.883641463E1,-8.414443871E0,1.278893067E0,2.067000119E1
1.006186708E1,-1.725135375E1,-5.918175707E0,1.892308966E0,1.833616217E1
1.007187708E1,-1.506699770E1,-3.339577286E0,1.734217212E0,1.552980057E1
1.008188708E1,-1.230254407E1,-9.230005324E-1,8.784482574E-1,1.236835446E1
1.009189808E1,-9.327333983E0,1.158807630E0,-6.877774255E-1,9.424172756E0
1.010190808E1,-6.960195145E0,2.792801227E0,-2.680050244E0,7.964089682E0
1.011191808E1,-4.484814405E0,4.209403239E0,-5.306004388E0,8.123196320E0
1.012192808E1,-1.773613704E0,5.331574262E0,-7.786066993E0,9.601782590E0
1.013193908E1,9.872848213E-1,6.195714383E0,-9.088749458E0,1.104386593E1
1.014194908E1,3.102398724E0,6.231360179E0,-9.247972648E0,1.157496115E1
1.015195908E1,5.195000262E0,5.449124347E0,-8.728056943E0,1.152648957E1
1.016197008E1,7.769537500E0,4.526051017E0,-7.740679736E0,1.186461013E1
1.017198008E1,1.024775063E1,3.734704638E0,-6.190704489E0,1.254150046E1
1.018199008E1,1.188457574E1,3.061071481E0,-4.353068451E0,1.302161680E1
1.019200008E1,1.291340737E1,2.828967133E0,-2.374842106E0,1.343127023E1
1.020201108E1,1.324471295E1,2.977440509E0,-4.096149981E-1,1.358143429E1
1.021202108E1,1.303562353E1,3.207025877E0,1.117669690E0,1.347077137E1
1.022203108E1,1.281656344E1,4.101122161E0,2.223632817E0,1.363920982E1
1.023204208E1,1.249191901E1,4.573011175E0,2.050271205E0,1.345972080E1
1.024205208E1,1.195241163E1,4.743373019E0,1.230531331E0,1.291796960E1
1.025206208E1,1.159245002E1,5.136867828E0,5.687984276E-1,1.269235361E1
1.026207208E1,1.138167310E1,5.308319886E0,1.949952865E-1,1.256020564E1
1.027208308E1,1.115307854E1,5.092192762E0,2.032047772E-1,1.226225429E1
1.028209308E1,1.104109383E1,4.875830288E0,4.352526999E-1,1.207762058E1
1.029210308E1,1.093211343E1,4.673915406E0,6.233593816E-1,1.190567790E1
1.030211308E1,1.081893472E1,4.423318946E0,6.307789135E-1,1.170525442E1
1.031212408E1,1.063052457E1,4.203776464E0,6.388018781E-1,1.144936055E1
1.032213408E1,1.032445908E1,4.116206808E0,7.736728773E-1,1.114164187E1
1.033214408E1,9.899672899E0,4.184630048E0,1.094011856E0,1.080331033E1
1.034215546E1,9.425228067E0,4.391123300E0,1.207054468E0,1.046775374E1
1.035216546E1,8.941939906E0,4.571967447E0,9.791419888E-1,1.009058446E1
1.036217546E1,8.363000652E0,4.742555286E0,7.148124656E-1,9.640672560E0
1.037218646E1,7.867414627E0,4.881258550E0,4.670919585E-1,9.270440812E0
1.038219646E1,7.609682225E0,4.952923779E0,3.474707901E-1,9.086223279E0
1.039220646E1,7.160326041E0,4.894402799E0,4.601369879E-1,8.685457605E0
1.040221646E1,6.454846609E0,4.570374373E0,4.867345101E-1,7.924031621E0
1.041222746E1,5.813152113E0,4.140187701E0,5.441234699E-1,7.157510883E0
1.042223746E1,5.426809033E0,4.045972977E0,6.949942052E-1,6.804643309E0
1.043224746E1,5.194172296E0,3.531747783E0,1.059289774E0,6.369832263E0
1.044225746E1,4.212668032E0,2.131377056E0,1.488441781E0,4.950232221E0
1.045226846E1,2.423042312E0,6.198425737E-1,1.782138068E0,3.071051116E0
1.046227846E1,4.937704647E-1,-4.210834345E-1,1.373443714E0,1.519035275E0
1.047228846E1,-2.140622381E0,-1.989709546E0,7.130083072E-1,3.008253497E0
1.048229946E1,-6.303013129E0,-4.426311843E0,-4.372840226E-3,7.701962748E0
1.049230946E1,-1.255732714E1,-7.295306675E0,-9.824658385E-1,1.455586492E1
1.050231946E1,-1.834515379E1,-1.000549464E1,-1.521763601E0,2.095161939E1
1.051233046E1,-2.312414279E1,-1.245286780E1,-1.410853030E0,2.630190872E1
1.052234046E1,-2.712147482E1,-1.608038800E1,-1.626822571E0,3.157213687E1
1.053235046E1,-2.707380364E1,-1.872735938E1,-1.674434110E0,3.296222933E1
1.054236046E1,-2.442187383E1,-1.766171368E1,-6.467353803E-1,3.014601662E1
1.055237146E1,-2.197533331E1,-1.529508589E1,1.372788241E0,2.680931693E1
1.056238146E1,-1.968273595E1,-1.316550656E1,3.535353760E0,2.394241808E1
1.057239146E1,-1.814901479E1,-1.195171347E1,4.641446987E0,2.222100859E1
1.058240146E1,-1.809889596E1,-1.128715987E1,4.037275244E0,2.170874489E1
1.059241246E1,-1.783948541E1,-1.004778872E1,1.721643944E0,2.054676023E1
1.060242246E1,-1.713753185E1,-8.462385192E0,-1.196966852E0,1.915044884E1
1.061243246E1,-1.465810659E1,-6.384397016E0,-3.634672811E0,1.639608065E1
1.062244346E1,-1.138720690E1,-4.085922324E0,-4.765417899E0,1.300278624E1
1.063245346E1,-8.181758017E0,-1.677293398E0,-5.054116863E0,9.762098886E0
1.064246346E1,-5.372228783E0,9.164694849E-1,-5.084396085E0,7.453310805E0
1.065247346E1,-2.827864348E0,3.096477541E0,-5.176785600E0,6.662139227E0
1.066248446E1,-3.583126974E-1,4.649753249E0,-5.249912049E0,7.022120035E0
1.067249446E1,1.916838913E0,5.553186074E0,-5.313201141E0,7.921000781E0
1.068250446E1,4.114980354E0,5.999678292E0,-4.917860366E0,8.781489253E0
1.069251546E1,6.234198418E0,6.052655820E0,-4.168367772E0,9.637176053E0
1.070252546E1,8.179845393E0,5.754581138E0,-3.361744373E0,1.055113264E1
1.071253546E1,9.930221093E0,5.306275114E0,-2.645606636E0,1.156568550E1
1.072254546E1,1.116095591E1,4.942383589E0,-2.181602007E0,1.239973708E1
1.073255646E1,1.180691068E1,4.722774740E0,-1.909234317E0,1.285896251E1
1.074256646E1,1.197263481E1,4.678233283E0,-1.947554191E0,1.300087760E1
1.075257646E1,1.188774961E1,4.843353682E0,-2.128659855E0,1.301183532E1
1.076258746E1,1.198204415E1,5.039916315E0,-2.428572901E0,1.322377044E1
1.077259746E1,1.210221963E1,5.156991021E0,-2.625108929E0,1.341452471E1
1.078260746E1,1.213255148E1,5.240947098E0,-2.647750517E0,1.347875791E1
1.079261746E1,1.230734113E1,5.281499292E0,-2.090123488E0,1.355483296E1
1.080262846E1,1.267181328E1,5.018382774E0,-9.827121525E-1,1.366472615E1
1.081263846E1,1.287764112E1,4.676681139E0,2.273207411E-2,1.370056583E1
1.082264846E1,1.276814616E1,4.511941685E0,1.040370961E0,1.358180937E1
1.083265946E1,1.229470646E1,4.442772340E0,1.941879175E0,1.321623728E1
1.084266946E1,1.165309734E1,4.459307681E0,2.527098193E0,1.273052740E1
1.085267946E1,1.090264346E1,4.593504497E0,2.655410955E0,1.212514434E1
1.086268946E1,9.994473807E0,4.770301494E0,2.315199190E0,1.131394848E1
1.087270046E1,9.006490828E0,5.009158791E0,2.142665106E0,1.052613712E1
1.088271046E1,8.222758693E0,5.249241958E0,2.016994700E0,9.961755331E0
1.089272046E1,7.590968796E0,5.382831540E0,1.999008665E0,9.518073245E0
1.090273146E1,6.698433427E0,5.557955064E0,2.129947996E0,8.960834410E0
1.091274146E1,6.127416565E0,5.851718593E0,2.416530268E0,8.810644857E0
1.092275146E1,6.226782979E0,5.747611842E0,2.966588370E0,8.978224474E0
1.093276146E1,6.399758236E0,5.218707798E0,3.392734616E0,8.927623689E0
1.094277246E1,6.532077218E0,4.954303722E0,3.837602477E0,9.052090970E0
1.095278246E1,6.110679495E0,4.857683746E0,3.989416076E0,8.766580628E0
1.096279246E1,4.817989338E0,4.493113943E0,3.840748279E0,7.625774814E0
1.097280346E1,3.801471362E0,3.969738149E0,3.421512272E0,6.474314768E0
1.098281346E1,2.857202168E0,2.766414204E0,2.896375296E0,4.919922930E0
1.099282346E1,2.103075070E0,1.329830502E0,2.364889998E0,3.432794579E0
1.100283346E1,1.056291906E0,3.272774309E-2,1.672364780E0,1.978289072E0
1.101284446E1,-9.159429431E-1,-1.414566304E0,1.026056539E0,1.973003124E0
1.102285446E1,-4.820395467E0,-3.223185242E0,6.718839625E-1,5.837513480E0
1.103286446E1,-1.005499366E1,-5.072378887E0,3.039768612E-1,1.126606972E1
1.104287546E1,-1.595257021E1,-6.888210658E0,-7.195086569E-2,1.737633791E1
1.105288546E1,-2.111039914E1,-8.721427955E0,-1.257525587E-1,2.284136754E1
1.106289546E1,-2.488828517E1,-1.150585509E1,-5.214108378E-2,2.741922973E1
1.107290546E1,-2.623506733E1,-1.527005162E1,9.916380733E-2,3.035561016E1
1.108291646E1,-2.467315675E1,-1.703395076E1,7.606058121E-3,2.998199794E1
1.109292646E1,-2.182631351E1,-1.582404724E1,-1.885376215E-1,2.695967320E1
1.110293646E1,-1.940751686E1,-1.367169768E1,-4.091402042E-1,2.374309213E1
1.111294746E1,-1.857634685E1,-1.181756431E1,-4.520654914E-1,2.202134991E1
1.112295746E1,-1.854697044E1,-1.033815560E1,-5.073880452E-1,2.123970377E1
1.113296746E1,-1.835190031E1,-8.776195900E0,-4.366794205E-1,2.034710172E1
1.114297746E1,-1.785429173E1,-6.937052450E0,-7.461643589E-1,1.916912077E1
1.115298846E1,-1.675488070E1,-5.085381925E0,-1.769486740E0,1.759881303E1
1.116299846E1,-1.488255547E1,-3.102226816E0,-3.044765935E0,1.550434998E1
1.117300846E1,-1.240701978E1,-1.076165715E0,-4.380421726E0,1.320152896E1
1.118301846E1,-9.170827993E0,8.973581529E-1,-5.179437897E0,1.057052102E1
1.119302946E1,-5.595121136E0,2.455786135E0,-5.412447102E0,8.162772182E0
1.120303946E1,-2.133085905E0,3.500091542E0,-5.643893931E0,6.975258775E0
1.121304946E1,6.750680637E-1,4.374192394E0,-6.271562126E0,7.676051556E0
1.122306046E1,2.898358964E0,5.163058677E0,-7.036720580E0,9.196363200E0
1.123307046E1,4.865262322E0,5.385390866E0,-7.431673100E0,1.038763579E1
1.124308046E1,6.934099606E0,5.289898233E0,-7.198461581E0,1.130851935E1
1.125309046E1,8.981378206E0,5.152727231E0,-6.416908704E0,1.218164479E1
1.126310146E1,1.033687857E1,4.917362183E0,-5.125886757E0,1.254217782E1
1.127311146E1,1.109629272E1,4.784661378E0,-3.557138439E0,1.259658408E1
1.128312146E1,1.164114329E1,4.852439963E0,-2.156083735E0,1.279496337E1
1.129313246E1,1.189697535E1,5.025851423E0,-1.149431620E0,1.296604789E1
1.130314246E1,1.192881577E1,5.295533779E0,-4.849715745E-1,1.306041811E1
1.131315246E1,1.137459095E1,5.622651581E0,-1.471861124E-2,1.268840993E1
1.132316246E1,1.054309232E1,6.013447900E0,3.861897366E-1,1.214361947E1
1.133317346E1,1.053134410E1,6.394682268E0,7.366123474E-1,1.234276175E1
1.134318321E1,1.095309324E1,6.368144680E0,8.095646949E-1,1.269562575E1
1.135319321E1,1.185641321E1,6.191346513E0,8.629762325E-1,1.340343366E1
1.136320421E1,1.276369058E1,5.830691421E0,8.122520752E-1,1.405590670E1
1.137321421E1,1.325622261E1,5.619667747E0,5.025974214E-1,1.440696733E1
1.138322421E1,1.336162685E1,5.652223874E0,2.030299455E-2,1.450796744E1
1.139323421E1,1.289136454E1,5.704930676E0,-5.194224921E-1,1.410685342E1
1.140324521E1,1.201853077E1,5.685044296E0,-1.054286019E0,1.333702852E1
1.141325521E1,1.087934231E1,5.723658139E0,-1.385712926E0,1.237095598E1
1.142326521E1,9.634477111E0,5.715122373E0,-1.196589414E0,1.126577113E1
1.143327621E1,8.580056314E0,5.498732125E0,-6.243175940E-1,1.020995562E1
1.144328621E1,7.639528168E0,5.082379380E0,-9.444057271E-2,9.176158772E0
1.145329621E1,7.077946959E0,4.619250664E0,6.965194514E-1,8.480563023E0
1.146330621E1,6.895084645E0,4.117774446E0,1.772841872E0,8.224428670E0
1.147331721E1,6.597695256E0,3.559199291E0,2.649866917E0,7.951055085E0
1.148332721E1,5.809060231E0,2.938889817E0,3.381029952E0,7.335776555E0
1.149333721E1,4.945503663E0,2.563770760E0,4.084343576E0,6.907444493E0
1.150334821E1,3.909557728E0,2.060210302E0,4.319473858E0,6.179560059E0
1.151335821E1,2.883828049E0,1.093902367E0,4.419511532E0,5.389356991E0
1.152336821E1,1.945711879E0,8.392537862E-2,4.382584026E0,4.795819109E0
1.153337821E1,7.942998075E-1,-1.057278916E0,3.851870853E0,4.072549565E0
1.154338921E1,-7.205611557E-1,-2.139960622E0,3.069319856E0,3.810428351E0
1.155339921E1,-2.312653897E0,-3.176356062E0,2.180448352E0,4.493546583E0
1.156340921E1,-4.349128012E0,-4.263221889E0,1.183654788E0,6.204112668E0
1.157342021E1,-7.065430993E0,-5.116937594E0,-1.434766388E-1,8.724904069E0
1.158343021E1,-1.049253847E1,-5.442561432E0,-8.443551895E-1,1.185022253E1
1.159344021E1,-1.503163608E1,-5.802027785E0,-1.381816050E0,1.617167355E1
1.160345021E1,-1.975229676E1,-7.598515213E0,-2.608566279E0,2.132358504E1
1.161346121E1,-2.326833045E1,-1.129514717E1,-3.535586772E0,2.610547692E1
1.162347121E1,-2.384628561E1,-1.519990258E1,-2.473206452E0,2.838660117E1
1.163348121E1,-2.270924775E1,-1.784575830E1,2.306448832E-1,2.888311306E1
1.164349221E1,-2.063259040E1,-1.855765213E1,3.484835571E0,2.796845220E1
1.165350221E1,-1.879811069E1,-1.729517863E1,4.669591098E0,2.596723417E1
1.166351221E1,-1.686723612E1,-1.450760511E1,3.846958314E0,2.257816088E1
1.167352221E1,-1.532347062E1,-1.109655935E1,2.090834801E0,1.903454679E1
1.168353321E1,-1.466525774E1,-7.781635973E0,-3.391735911E-2,1.660195149E1
1.169354321E1,-1.457424582E1,-5.023961602E0,-2.680608361E0,1.564718801E1
1.170355321E1,-1.402303699E1,-2.898545783E0,-5.929112924E0,1.549843586E1
1.171356421E1,-1.282379645E1,-9.228774485E-1,-8.848403167E0,1.560755256E1
1.172357421E1,-1.097828772E1,1.407784996E0,-1.073505057E1,1.541901328E1
1.173358421E1,-8.534136375E0,3.887034838E0,-1.165356278E1,1.495814323E1
1.174359421E1,-5.929463757E0,6.020157580E0,-1.162081486E1,1.436816536E1
1.175360521E1,-3.443375012E0,7.547284248E0,-1.054083881E1,1.341370992E1
1.176361521E1,-1.012031992E0,8.488231055E0,-9.060611486E0,1.245668317E1
1.177362521E1,1.134557472E0,8.546192164E0,-7.718356236E0,1.157141496E1
1.178363521E1,3.040213585E0,7.966196319E0,-6.523350248E0,1.073579438E1
1.179364621E1,4.724049726E0,7.389892405E0,-5.501824132E0,1.035360924E1
1.180365621E1,6.148019814E0,6.866571867E0,-4.598572863E0,1.030023443E1
1.181366621E1,7.566023989E0,6.303494940E0,-3.500784729E0,1.045151956E1
1.182367721E1,8.972208602E0,5.811624820E0,-2.140225209E0,1.090211329E1
1.183368721E1,1.035654626E1,5.356923696E0,-7.883154747E-1,1.168657877E1
1.184369721E1,1.167903442E1,5.267741379E0,3.650280784E-1,1.281726139E1
1.185370721E1,1.246343606E1,5.501706603E0,1.337433782E0,1.368921996E1
1.186371821E1,1.289485065E1,5.526872435E0,1.997350541E0,1.417084688E1
1.187372821E1,1.328267307E1,5.407510883E0,2.618405389E0,1.457829293E1
1.188373821E1,1.360906231E1,5.174370700E0,3.218452506E0,1.491104039E1
1.189374921E1,1.393522585E1,4.884208178E0,3.652589265E0,1.521142391E1
1.190375921E1,1.407013164E1,4.533555918E0,4.024606959E0,1.532054812E1
1.191376921E1,1.400092867E1,4.103328315E0,4.240577377E0,1.519361061E1
1.192377921E1,1.391175629E1,3.808109121E0,4.419014226E0,1.508530228E1
1.193379021E1,1.362611981E1,3.474505880E0,4.543262881E0,1.477784050E1
1.194380021E1,1.315511021E1,3.068308287E0,4.664177746E0,1.429076606E1
1.195381021E1,1.246103168E1,2.992679815E0,4.625167462E0,1.362444924E1
1.196382121E1,1.129600086E1,3.210465502E0,4.345781651E0,1.252168289E1
1.197383121E1,9.892558007E0,3.572765123E0,4.019948774E0,1.125998857E1
1.198384121E1,8.629711454E0,3.936648755E0,3.654630235E0,1.016491246E1
1.199385121E1,7.671942793E0,4.253672801E0,3.342581293E0,9.387507029E0
1.200386221E1,6.895143117E0,4.582721938E0,3.190030068E0,8.872464753E0
1.201387221E1,6.288231368E0,4.775899910E0,3.074109310E0,8.473560157E0
1.202388221E1,5.989840352E0,4.729546693E0,2.752159277E0,8.113025333E0
1.203389321E1,5.613667919E0,4.560318916E0,2.354348930E0,7.606098541E0
1.204390321E1,5.106451782E0,4.252007514E0,1.961883231E0,6.928521019E0
1.205391321E1,4.542959118E0,3.786860047E0,1.548690029E0,6.113691796E0
1.206392321E1,4.010885882E0,3.090141791E0,1.435399057E0,5.262751400E0
1.207393421E1,3.887341232E0,2.071383162E0,1.658433789E0,4.706639214E0
1.208394421E1,3.422384092E0,6.183785771E-1,1.957748957E0,3.990975560E0
1.209395421E1,2.264080492E0,-1.165174078E0,2.032694767E0,3.258149647E0
1.210396421E1,3.664859354E-1,-3.030096148E0,1.798013843E0,3.542407146E0
1.211397521E1,-1.922074510E0,-5.045896847E0,1.294402807E0,5.552560134E0
1.212398521E1,-5.588861107E0,-7.231773754E0,7.678470039E-1,9.171886890E0
1.213399521E1,-1.039821469E1,-9.794832907E0,5.501151118E-1,1.429560237E1
1.214400621E1,-1.557321923E1,-1.202152104E1,5.119500428E-2,1.967345283E1
1.215401621E1,-2.023925288E1,-1.351282883E1,-5.094980130E-1,2.434098372E1
1.216402621E1,-2.294843863E1,-1.511028698E1,-6.309897056E-1,2.748362706E1
1.217403621E1,-2.285580003E1,-1.611305757E1,-1.030627307E-1,2.796477858E1
1.218404721E1,-2.144796591E1,-1.569622126E1,9.519886887E-1,2.659497859E1
1.219405721E1,-2.057620219E1,-1.459350772E1,1.697334437E0,2.528302807E1
1.220406721E1,-2.004502943E1,-1.357023212E1,1.542543729E0,2.425559411E1
1.221407821E1,-1.893844620E1,-1.321405366E1,1.312582677E0,2.313004176E1
1.222408821E1,-1.765693534E1,-1.282656335E1,1.203399081E0,2.185717874E1
1.223409821E1,-1.686165086E1,-1.146675008E1,1.050512811E0,2.041825664E1
1.224410821E1,-1.663364921E1,-9.295845557E0,7.125887695E-1,1.906826719E1
1.225411921E1,-1.685903014E1,-6.674590820E0,9.747337729E-2,1.813247255E1
1.226412921E1,-1.653429566E1,-3.832196726E0,-1.826299456E0,1.707056046E1
1.227413921E1,-1.445962520E1,-6.081560361E-1,-4.093482481E0,1.504018661E1
1.228414921E1,-1.147709849E1,2.431307352E0,-5.843579854E0,1.310658119E1
1.229416021E1,-8.701687170E0,4.734533783E0,-7.157746249E0,1.222164069E1
1.230417021E1,-6.130887473E0,6.672195801E0,-8.403613658E0,1.235826446E1
1.231418021E1,-3.662858437E0,8.112472605E0,-9.149607278E0,1.276495425E1
1.232419121E1,-1.401415039E0,8.871261102E0,-9.099764442E0,1.278549767E1
1.233420121E1,9.322976053E-1,8.629399797E0,-8.964991969E0,1.247825311E1
1.234421162E1,3.488653511E0,7.856486181E0,-8.516458488E0,1.210062575E1
1.235422163E1,5.941892014E0,6.932938349E0,-7.560247525E0,1.185449524E1
1.236423262E1,8.069865698E0,5.962504034E0,-5.650800662E0,1.151545635E1
1.237424263E1,9.893673656E0,5.428042796E0,-3.200256848E0,1.172987941E1
1.238425262E1,1.096622375E1,4.970435021E0,-9.736935532E-1,1.207937774E1
1.239426362E1,1.183538312E1,5.104673059E0,8.185792011E-1,1.291526432E1
1.240427362E1,1.267410188E1,5.416002209E0,1.658218319E0,1.388220539E1
1.241428363E1,1.337865044E1,5.220310519E0,1.544450798E0,1.444386575E1
1.242429362E1,1.404302161E1,5.426128417E0,1.341013009E0,1.511448449E1
1.243430462E1,1.453720254E1,5.270956762E0,1.317361607E0,1.551930039E1
1.244431462E1,1.491587875E1,4.936856800E0,1.294061622E0,1.576485298E1
1.245432463E1,1.504099514E1,4.690666802E0,1.743173977E0,1.585157864E1
1.246433563E1,1.483497668E1,4.410835433E0,2.290815132E0,1.564544139E1
1.247434562E1,1.444204613E1,4.273953576E0,2.650781714E0,1.529267861E1
1.248435562E1,1.371941330E1,4.290581888E0,2.717575628E0,1.462930660E1
1.249436563E1,1.264975174E1,4.356265123E0,2.318464860E0,1.357823789E1
1.250437663E1,1.140895386E1,4.501965751E0,1.832886930E0,1.240126600E1
1.251438662E1,1.036143687E1,4.775310511E0,1.401931933E0,1.149471086E1
1.252439662E1,9.502631169E0,4.923222263E0,1.110959864E0,1.075975596E1
1.253440762E1,9.060945362E0,4.990832448E0,1.226090079E0,1.041693027E1
1.254441763E1,8.967077671E0,4.883689530E0,1.646160483E0,1.034256978E1
1.255442762E1,8.896585393E0,4.789249981E0,2.013614133E0,1.030246519E1
1.256443762E1,8.216327341E0,4.918947948E0,2.104892385E0,9.804828190E0
1.257444862E1,7.661668650E0,5.052875499E0,2.277242867E0,9.456138344E0
1.258445863E1,7.576310996E0,4.973317114E0,2.534445511E0,9.410514623E0
1.259446862E1,7.583951553E0,4.754551726E0,2.877112229E0,9.402119870E0
1.260447862E1,7.426354473E0,4.082506380E0,3.154734228E0,9.042673672E0
1.261448962E1,7.308200955E0,3.581732706E0,3.416323161E0,8.826657030E0
1.262449963E1,5.946600777E0,3.331795519E0,3.295501559E0,7.571212103E0
1.263450962E1,4.828331893E0,2.372385837E0,3.500496461E0,6.418292522E0
1.264452063E1,2.958497577E0,7.805043255E-1,3.957249666E0,5.002171512E0
1.265453062E1,-6.742482841E-1,-8.134535319E-1,3.928738642E0,4.068329475E0
1.266454063E1,-5.666177670E0,-3.120157887E0,2.875846599E0,7.078944010E0
1.267455062E1,-1.177982872E1,-7.085665283E0,1.530331819E0,1.383159183E1
1.268456163E1,-1.798701066E1,-1.154798896E1,-5.457136202E-1,2.138191771E1
1.269457162E1,-2.392001199E1,-1.521080413E1,-3.929787925E0,2.861780510E1
1.270458163E1,-2.863931143E1,-1.789913286E1,-6.965565813E0,3.448344854E1
1.271459262E1,-3.093613984E1,-1.846229574E1,-7.867005322E0,3.687534251E1
1.272460263E1,-3.067108556E1,-1.590677014E1,-5.319948828E0,3.495772706E1
1.273461262E1,-2.901719593E1,-1.328658135E1,-6.083326221E-1,3.192022826E1
1.274462263E1,-2.608129960E1,-1.210444508E1,5.098868528E0,2.920188760E1
1.275463362E1,-2.343815230E1,-1.152031409E1,1.013382114E1,2.801354941E1
1.276464363E1,-2.153740025E1,-1.103125882E1,1.244266909E1,2.720970956E1
1.277465362E1,-1.892822995E1,-9.696056478E0,1.128801006E1,2.407717947E1
1.278466463E1,-1.676067062E1,-7.275182313E0,8.113553170E0,1.999195094E1
1.279467462E1,-1.460192420E1,-5.038757397E0,3.741292696E0,1.589347469E1
1.280468463E1,-1.170865641E1,-3.992149942E0,-1.361854532E0,1.244526190E1
1.281469462E1,-8.469627553E0,-2.949422114E0,-6.588951330E0,1.112869989E1
1.282470563E1,-4.959269763E0,-9.824547288E-1,-1.110833214E1,1.220469650E1
1.283471562E1,-1.286789732E0,1.117115521E0,-1.506174340E1,1.515783260E1
1.284472563E1,2.633119322E0,3.087979783E0,-1.724982880E1,1.772076550E1
1.285473662E1,6.219362862E0,4.184099998E0,-1.691352736E1,1.850012365E1
1.286474663E1,9.134892175E0,4.321580610E0,-1.483994447E1,1.795400418E1
1.287475662E1,1.173860117E1,3.994453452E0,-1.124716959E1,1.674064634E1
1.288476663E1,1.383623833E1,3.326991739E0,-6.817868654E0,1.577953416E1
1.289477762E1,1.482581292E1,2.493167093E0,-2.476457212E0,1.523658266E1
1.290478763E1,1.581294689E1,2.597459200E0,1.324292604E0,1.607948489E1
1.291479762E1,1.610694372E1,2.992551469E0,3.328121713E0,1.671721850E1
1.292480763E1,1.568758375E1,3.135794219E0,3.380378572E0,1.635116047E1
1.293481862E1,1.494834367E1,2.975619979E0,2.667471129E0,1.547328972E1
1.294482863E1,1.395012806E1,3.106609012E0,1.924001752E0,1.442077928E1
1.295483862E1,1.277202169E1,3.286113562E0,1.208556618E0,1.324325072E1
1.296484963E1,1.165819728E1,3.267071519E0,9.068376589E-1,1.214123860E1
1.297485962E1,1.114592505E1,3.232337889E0,1.445979886E0,1.169489253E1
1.298486963E1,1.104152653E1,2.963030631E0,2.380126965E0,1.167732259E1
1.299487962E1,1.103321880E1,2.490489360E0,3.276737844E0,1.177588491E1
1.300489063E1,1.127184835E1,2.193387070E0,4.082411363E0,1.218735388E1
1.301490062E1,1.163502009E1,2.040736881E0,4.666098264E0,1.270081779E1
1.302491063E1,1.142863325E1,2.556890341E0,5.026404569E0,1.274425710E1
1.303492162E1,1.045040811E1,2.627643405E0,4.509111925E0,1.168107999E1
1.304493163E1,9.802376400E0,2.663377201E0,3.776622157E0,1.083711383E1
1.305494162E1,9.219544655E0,2.825615216E0,3.172153960E0,1.015119036E1
1.306495163E1,8.627997050E0,3.007987826E0,2.777804873E0,9.550210666E0
1.307496262E1,8.197353126E0,3.280450826E0,2.487719826E0,9.173151357E0
1.308497263E1,7.819584403E0,3.618330721E0,2.262623366E0,8.908292874E0
1.309498262E1,7.293398729E0,3.797932920E0,1.881026764E0,8.435414700E0
1.310499363E1,6.767478518E0,3.968915446E0,1.583189771E0,8.003595765E0
1.311500362E1,6.696410875E0,4.258059967E0,1.777669626E0,8.132226176E0
1.312501363E1,6.702701894E0,4.283503541E0,2.154558342E0,8.241161139E0
1.313502362E1,6.442655164E0,3.775873714E0,2.148502966E0,7.770527193E0
1.314503463E1,5.193135585E0,3.002249076E0,2.094216539E0,6.353573768E0
1.315504462E1,3.633422384E0,2.406192976E0,1.989304918E0,4.790496521E0
1.316505463E1,2.451398969E0,1.086168547E0,1.509145310E0,3.076790306E0
1.317506462E1,6.237084603E-1,-1.107873996E0,6.295530447E-1,1.418708593E0
1.318507563E1,-1.526360682E0,-3.343602509E0,-7.187236682E-1,3.745132626E0
1.319508562E1,-4.442848354E0,-5.711702337E0,-1.896604916E0,7.480611959E0
1.320509563E1,-8.337969891E0,-8.583466410E0,-2.756216953E0,1.227983589E1
1.321510662E1,-1.383808605E1,-1.175232459E1,-3.721401053E0,1.853263566E1
1.322511663E1,-1.946322562E1,-1.448793391E1,-4.858735368E0,2.474519529E1
1.323512662E1,-2.401988711E1,-1.589416822E1,-6.155443439E0,2.945282744E1
1.324513663E1,-2.671136749E1,-1.612940872E1,-6.494212403E0,3.187208455E1
1.325514762E1,-2.672430153E1,-1.515326869E1,-4.783804761E0,3.109171324E1
1.326515763E1,-2.515667237E1,-1.428819302E1,-1.705501828E0,2.898136230E1
1.327516762E1,-2.270992135E1,-1.400463346E1,1.748044415E0,2.673809914E1
1.328517863E1,-2.028936352E1,-1.327740590E1,4.624190684E0,2.468462920E1
1.329518862E1,-1.865519889E1,-1.195389448E1,5.932164001E0,2.293692675E1
1.330519863E1,-1.796836740E1,-9.905993739E0,6.072908821E0,2.139792421E1
1.331520862E1,-1.751462580E1,-7.143179666E0,4.556783397E0,1.945639760E1
1.332521963E1,-1.621926990E1,-4.407744010E0,1.694609635E0,1.689273883E1
1.333522962E1,-1.430767828E1,-2.018405341E0,-1.786707521E0,1.455939359E1
1.334523988E1,-1.176335477E1,7.536330074E-1,-5.554165483E0,1.303047323E1
1.335524987E1,-8.870078210E0,3.398045057E0,-8.765608932E0,1.292520397E1
1.336526087E1,-5.468018455E0,5.524006714E0,-1.084377603E1,1.334171483E1
1.337527087E1,-1.889054114E0,7.080195798E0,-1.120987371E1,1.339249665E1
1.338528088E1,1.391085348E0,7.943815516E0,-1.014818190E1,1.296244265E1
1.339529188E1,4.182402844E0,8.256073204E0,-8.476645381E0,1.255024921E1
1.340530187E1,5.862028989E0,8.006868382E0,-6.503808854E0,1.186477369E1
1.341531187E1,7.519100668E0,7.672365546E0,-4.512228784E0,1.165170702E1
1.342532188E1,9.072452098E0,7.018839210E0,-2.120402417E0,1.166488737E1
1.343533288E1,1.027403620E1,6.292589883E0,5.664396608E-1,1.206123382E1
1.344534287E1,1.117755849E1,5.759713240E0,2.096904796E0,1.274790650E1
1.345535287E1,1.199788309E1,5.280768975E0,2.481465645E0,1.334141639E1
1.346536387E1,1.312208397E1,4.730775778E0,2.677421336E0,1.420344719E1
1.347537388E1,1.382924038E1,4.250075887E0,2.620276498E0,1.470295493E1
1.348538387E1,1.429599087E1,4.060045763E0,2.595541898E0,1.508629060E1
1.349539387E1,1.456405530E1,3.824930099E0,2.657961802E0,1.529073438E1
1.350540487E1,1.436541837E1,3.643523742E0,2.866001058E0,1.509484919E1
1.351541488E1,1.387809972E1,3.627256495E0,3.173495311E0,1.469114407E1
1.352542487E1,1.351854741E1,3.667067848E0,3.554928484E0,1.445116007E1
1.353543487E1,1.310641343E1,3.473436717E0,4.007235758E0,1.413862702E1
1.354544587E1,1.269770358E1,3.258706493E0,4.476216367E0,1.385234122E1
1.355545588E1,1.225379700E1,3.204085312E0,4.891570407E0,1.357752425E1
1.356546587E1,1.183907505E1,3.186400993E0,5.104454373E0,1.328052347E1
1.357547688E1,1.138092348E1,3.200553887E0,5.053259661E0,1.285707578E1
1.358548687E1,1.087041127E1,3.315289706E0,4.838400214E0,1.235180568E1
1.359549688E1,1.032335981E1,3.430061194E0,4.444792553E0,1.175130879E1
1.360550687E1,9.500570025E0,3.551427464E0,3.862927645E0,1.085337173E1
1.361551788E1,8.650096017E0,3.780252694E0,3.228184319E0,9.976755261E0
1.362552787E1,7.949498425E0,3.960157194E0,2.908808816E0,9.345509025E0
1.363553788E1,7.163254327E0,4.112844366E0,2.917267398E0,8.760031416E0
1.364554887E1,6.134702196E0,4.182974702E0,3.090844041E0,8.042708827E0
1.365555888E1,5.107121873E0,4.121405567E0,3.162635863E0,7.284980664E0
1.366556887E1,4.456995692E0,3.474675742E0,3.025074852E0,6.410090481E0
1.367557888E1,3.957088575E0,2.427217224E0,2.588562662E0,5.315128418E0
1.368558987E1,3.746389421E0,1.363615714E0,1.903392656E0,4.417893742E0
1.369559988E1,3.201216668E0,1.988971335E-1,1.183315357E0,3.418710790E0
1.370560987E1,2.241348857E0,-1.146951962E0,1.706571284E-1,2.523542620E0
1.371562088E1,1.448201535E0,-2.671362451E0,-8.782444820E-1,3.163033102E0
1.372563087E1,-2.019961578E-1,-4.340641363E0,-1.853928427E0,4.724301060E0
1.373564088E1,-3.443341683E0,-6.500598148E0,-2.438996733E0,7.750037631E0
1.374565087E1,-9.077129286E0,-9.119335658E0,-2.952371157E0,1.320125200E1
1.375566188E1,-1.671031089E1,-1.208563927E1,-3.766797373E0,2.096391969E1
1.376567187E1,-2.398740933E1,-1.506355603E1,-5.007388254E0,2.876422194E1
1.377568188E1,-2.771040170E1,-1.678607443E1,-6.307302647E0,3.300637399E1
1.378569187E1,-2.786824612E1,-1.655834175E1,-6.497769849E0,3.306113786E1
1.379570288E1,-2.510470465E1,-1.469972473E1,-3.602177495E0,2.931388384E1
1.380571287E1,-2.186071385E1,-1.239144514E1,-4.008359885E-1,2.513164125E1
1.381572288E1,-2.044826745E1,-1.157248528E1,1.805068509E0,2.356506588E1
1.382573387E1,-1.987945265E1,-1.128783113E1,4.203703373E0,2.324390009E1
1.383574388E1,-1.920256611E1,-1.014263991E1,4.365146459E0,2.215098628E1
1.384575387E1,-1.795898613E1,-8.213963896E0,3.770174725E0,2.010493977E1
1.385576388E1,-1.638594244E1,-6.674065740E0,2.979017211E0,1.794204021E1
1.386577487E1,-1.442198199E1,-5.275722828E0,1.512284095E0,1.543093708E1
1.387578488E1,-1.193275563E1,-3.078232766E0,-1.042206402E0,1.236739132E1
1.388579487E1,-9.594099748E0,-5.140451002E-1,-4.126163739E0,1.045639611E1
1.389580588E1,-7.869399757E0,1.983067693E0,-6.748416595E0,1.055467368E1
1.390581587E1,-5.522421534E0,4.562780302E0,-8.315896068E0,1.097589318E1
1.391582588E1,-2.199082258E0,6.784173489E0,-8.422715342E0,1.103644447E1
1.392583587E1,6.266291445E-1,8.085460807E0,-7.575116994E0,1.109728516E1
1.393584688E1,2.855811115E0,8.520548615E0,-6.683968585E0,1.119959115E1
1.394585687E1,4.681084385E0,8.573881069E0,-5.599055142E0,1.125936970E1
1.395586688E1,6.128736867E0,8.101586843E0,-4.083662667E0,1.094867233E1
1.396587687E1,7.406832374E0,7.209636780E0,-2.159126772E0,1.055944396E1
1.397588788E1,8.745940652E0,6.259709820E0,-3.924637990E-1,1.076241017E1
1.398589787E1,1.013648046E1,5.753328665E0,1.395968943E0,1.173872889E1
1.399590788E1,1.112903830E1,5.472015027E0,3.097459873E0,1.278251538E1
1.400591887E1,1.167070096E1,5.085183704E0,3.965467050E0,1.333376478E1
1.401592888E1,1.205145761E1,4.718908561E0,3.762711339E0,1.347826863E1
1.402593887E1,1.211648099E1,4.315598031E0,3.297803900E0,1.327814025E1
1.403594888E1,1.215363186E1,4.092563884E0,2.843398938E0,1.313562957E1
1.404595987E1,1.213888986E1,4.009490152E0,2.495549541E0,1.302522268E1
1.405596988E1,1.195110068E1,3.866833585E0,2.520045281E0,1.281139484E1
1.406597987E1,1.173289897E1,3.775746829E0,2.584093342E0,1.259343959E1
1.407599088E1,1.128431695E1,3.690202064E0,2.488736950E0,1.213042505E1
1.408600087E1,1.085846892E1,3.644390299E0,2.148078750E0,1.165341882E1
1.409601088E1,1.056003872E1,3.811823273E0,1.771763645E0,1.136589464E1
1.410602087E1,1.021208028E1,4.134284937E0,1.421785277E0,1.110857186E1
1.411603188E1,9.689538002E0,4.261196998E0,1.103442976E0,1.064248716E1
1.412604187E1,8.982298558E0,4.331323533E0,9.911366746E-1,1.002119767E1
1.413605188E1,8.438218065E0,4.426495446E0,1.185537299E0,9.602233320E0
1.414606187E1,8.241186193E0,4.462004710E0,1.636240389E0,9.513354745E0
1.415607288E1,8.179009241E0,4.455254391E0,2.310911720E0,9.596134473E0
1.416608287E1,8.098298954E0,4.400044689E0,3.007679385E0,9.694791101E0
1.417609288E1,8.051863291E0,4.411744967E0,3.607002325E0,9.864403777E0
1.418610387E1,8.109154310E0,4.395353760E0,4.121807563E0,1.010281228E1
1.419611388E1,8.127742023E0,4.151166141E0,4.252091714E0,1.006839881E1
1.420612387E1,8.152069949E0,3.850833264E0,4.162064181E0,9.930153047E0
1.421613388E1,8.109437900E0,3.716237084E0,3.981125017E0,9.768457274E0
1.422614487E1,7.715682889E0,3.489384120E0,3.654717359E0,9.223043042E0
1.423615488E1,6.888322340E0,2.988639097E0,3.035759761E0,8.099184257E0
1.424616487E1,5.406729110E0,2.208292500E0,2.289333593E0,6.272983639E0
1.425617588E1,3.252480962E0,1.069601631E0,1.776429724E0,3.857250656E0
1.426618587E1,6.708954906E-1,-4.142533019E-1,1.413362070E0,1.618424820E0
1.427619588E1,-3.488647664E0,-2.328748358E0,7.351141445E-1,4.258418045E0
1.428620587E1,-8.756572645E0,-4.962947661E0,-2.828510173E-1,1.006918163E1
1.429621688E1,-1.452346860E1,-8.529755641E0,-1.140201351E0,1.688158555E1
1.430622687E1,-1.950767967E1,-1.171856159E1,-1.807787025E0,2.282854235E1
1.431623688E1,-2.283185685E1,-1.396586876E1,-2.211162898E0,2.685569621E1
1.432624687E1,-2.459703068E1,-1.556203585E1,-1.828401238E0,2.916391484E1
1.433625788E1,-2.400886394E1,-1.512847533E1,-1.331602793E0,2.840896829E1
1.434626712E1,-2.164146899E1,-1.290457106E1,-4.709803569E-1,2.520124911E1
1.435627713E1,-1.986153211E1,-1.170667771E1,3.060947227E-1,2.305689603E1
1.436628812E1,-1.821265355E1,-1.231351111E1,9.724691463E-1,2.200611282E1
1.437629813E1,-1.626266677E1,-1.336570119E1,1.847776426E0,2.113127011E1
1.438630812E1,-1.465205238E1,-1.345044372E1,2.518437004E0,2.004843137E1
1.439631813E1,-1.347750580E1,-1.223591037E1,2.100801381E0,1.832413795E1
1.440632912E1,-1.303131530E1,-1.026570275E1,9.161183596E-1,1.661442459E1
1.441633913E1,-1.316427280E1,-7.866833414E0,-6.112071133E-1,1.534792235E1
1.442634912E1,-1.387210983E1,-5.151784075E0,-3.156442784E0,1.513074490E1
1.443635913E1,-1.345680900E1,-2.322858751E0,-5.883559606E0,1.486935287E1
1.444637012E1,-1.080735256E1,2.189156610E-1,-7.937957776E0,1.341111356E1
1.445638013E1,-6.829654301E0,2.231879583E0,-8.948354301E0,1.147599708E1
1.446639012E1,-2.852662389E0,4.005963696E0,-9.384224467E0,1.059476742E1
1.447640113E1,5.661847222E-1,5.780666737E0,-1.015502432E1,1.169876882E1
1.448641112E1,3.098826075E0,7.225151782E0,-1.133065497E1,1.379091307E1
1.449642113E1,5.022372329E0,8.147157118E0,-1.198047008E1,1.533401631E1
1.450643112E1,6.540304835E0,8.209715309E0,-1.162979151E1,1.566611194E1
1.451644213E1,8.218412458E0,7.564075112E0,-1.016905763E1,1.510520668E1
1.452645212E1,9.903825592E0,6.630997488E0,-7.600097469E0,1.413567722E1
1.453646213E1,1.140852234E1,5.185155305E0,-4.491615887E0,1.331220608E1
1.454647212E1,1.266214316E1,3.603852722E0,-6.674915341E-1,1.318192583E1
1.455648313E1,1.328782330E1,3.024929549E0,3.805080264E0,1.414903115E1
1.456649312E1,1.358592020E1,3.275465782E0,6.710042489E0,1.550259894E1
1.457650313E1,1.373787179E1,3.191284003E0,6.875713404E0,1.569040630E1
1.458651412E1,1.371986705E1,2.657477068E0,5.787513826E0,1.512588022E1
1.459652413E1,1.328098323E1,2.648435519E0,4.580717805E0,1.429621285E1
1.460653412E1,1.284778056E1,2.930656645E0,3.626315386E0,1.366763977E1
1.461654413E1,1.212936007E1,2.858446163E0,3.056068311E0,1.283088632E1
1.462655512E1,1.131593168E1,2.868406895E0,2.958178612E0,1.204279405E1
1.463656513E1,1.080535164E1,3.147529873E0,3.094918673E0,1.167223586E1
1.464657512E1,1.024614966E1,3.436332040E0,2.916774478E0,1.119372745E1
1.465658612E1,9.782061419E0,3.579204954E0,2.539510954E0,1.072140614E1
1.466659612E1,9.647217609E0,3.781386761E0,2.176548259E0,1.058796750E1
1.467660613E1,9.718367114E0,4.067710878E0,1.731476330E0,1.067665404E1
1.468661612E1,9.841773770E0,4.249759552E0,1.264591070E0,1.079445032E1
1.469662712E1,9.623813544E0,4.227554458E0,8.701231380E-1,1.054737494E1
1.470663712E1,8.218832873E0,4.415871055E0,5.947030547E-1,9.348946608E0
1.471664713E1,7.012362834E0,4.682407610E0,1.319175121E0,8.534541378E0
1.472665712E1,6.379281287E0,5.047515357E0,2.855492149E0,8.621280440E0
1.473666812E1,5.745627297E0,5.269468646E0,4.203061641E0,8.856932878E0
1.474667812E1,4.876983651E0,5.390576761E0,4.731071939E0,8.673311308E0
1.475668813E1,4.497969471E0,5.322340924E0,4.919074248E0,8.529732337E0
1.476669913E1,4.887041447E0,5.092689775E0,4.993840256E0,8.646219043E0
1.477670912E1,5.322321044E0,4.414973508E0,4.464065561E0,8.230854980E0
1.478671912E1,5.281495784E0,3.335174333E0,3.804340006E0,7.313726029E0
1.479672913E1,4.590661288E0,1.654540713E0,3.507572762E0,6.009554285E0
1.480674013E1,2.286835517E0,-4.818655336E-1,3.412665727E0,4.136193714E0
1.481675012E1,-1.263408471E0,-3.043927152E0,3.201585628E0,4.594762671E0
1.482676012E1,-4.838896058E0,-5.646103594E0,2.601373034E0,7.877851389E0
1.483677112E1,-9.223326634E0,-8.309690418E0,1.472135943E0,1.250151564E1
1.484678113E1,-1.391306841E1,-1.104672587E1,5.007019003E-1,1.777229100E1
1.485679112E1,-1.679372493E1,-1.210769614E1,9.274151802E-2,2.070348047E1
1.486680112E1,-1.945019101E1,-1.273361484E1,3.068197775E-1,2.324971001E1
1.487681212E1,-2.148017472E1,-1.371638444E1,1.371363567E0,2.552288671E1
1.488682213E1,-2.171245653E1,-1.330942759E1,2.818438344E0,2.562255307E1
1.489683212E1,-2.195252449E1,-1.244487232E1,4.066689662E0,2.556024537E1
1.490684212E1,-2.295356781E1,-1.254381305E1,4.695792764E0,2.657562776E1
1.491685312E1,-2.348534635E1,-1.302705736E1,3.951029690E0,2.714546651E1
1.492686313E1,-2.245228835E1,-1.225926532E1,2.187641011E0,2.567451288E1
1.493687312E1,-2.093108140E1,-1.080848224E1,2.703017230E-1,2.355857636E1
1.494688413E1,-1.939397471E1,-9.341848526E0,-1.763242937E0,2.159873641E1
1.495689412E1,-1.761342855E1,-7.681780148E0,-3.788736126E0,1.958563588E1
1.496690413E1,-1.490720266E1,-6.045051516E0,-6.027516886E0,1.717842538E1
1.497691412E1,-1.116384794E1,-4.276151837E0,-7.949541110E0,1.435660751E1
1.498692513E1,-6.809574378E0,-2.340598618E0,-9.051782191E0,1.156648027E1
1.499693512E1,-2.528683957E0,-3.800131765E-1,-9.545171417E0,9.881748325E0
1.500694513E1,8.368049723E-1,1.651925545E0,-9.456011903E0,9.635624613E0
1.501695512E1,2.939037459E0,3.359860400E0,-9.327727500E0,1.034084636E1
1.502696613E1,4.733688861E0,4.482422310E0,-9.188595343E0,1.126633056E1
1.503697612E1,6.282150264E0,5.242959124E0,-8.436058688E0,1.175249414E1
1.504698613E1,7.427292366E0,5.909042941E0,-7.277568562E0,1.196011975E1
1.505699712E1,8.164712799E0,6.317760977E0,-6.037201045E0,1.195928239E1
1.506700713E1,8.962216880E0,6.589288130E0,-4.838024822E0,1.213039709E1
1.507701712E1,9.672219719E0,6.520673393E0,-3.781939323E0,1.226271099E1
1.508702713E1,1.027661249E1,6.361659533E0,-2.717539083E0,1.238807874E1
1.509703812E1,1.088181568E1,6.326287971E0,-1.995517731E0,1.274432905E1
1.510704813E1,1.156837937E1,6.163581010E0,-1.518878439E0,1.319561002E1
1.511705812E1,1.182308759E1,6.036868923E0,-1.083196846E0,1.331925306E1
1.512706913E1,1.181149841E1,5.961028782E0,-8.861314988E-1,1.326011266E1
1.513707912E1,1.187845488E1,5.702693532E0,-8.023609252E-1,1.320084038E1
1.514708913E1,1.186658503E1,5.449216733E0,-6.078191634E-1,1.307207892E1
1.515709912E1,1.160515602E1,5.266078430E0,-2.928600617E-1,1.274743093E1
1.516711013E1,1.131966805E1,5.032249446E0,7.269594714E-2,1.238804682E1
1.517712012E1,1.106434002E1,4.787937281E0,3.066164406E-1,1.205976688E1
1.518713013E1,1.089413459E1,4.599943743E0,5.376375190E-1,1.183768157E1
1.519714012E1,1.082315173E1,4.345722594E0,7.394225192E-1,1.168643076E1
1.520715113E1,1.073217841E1,4.095260620E0,1.081404016E0,1.153777482E1
1.521716112E1,1.069715359E1,3.713680097E0,1.396470926E0,1.140923511E1
1.522717113E1,1.075160754E1,3.230087880E0,1.680091291E0,1.135135407E1
1.523718212E1,1.084134827E1,3.399635792E0,1.872541430E0,1.151515381E1
1.524719213E1,1.021978925E1,3.796329613E0,1.784525778E0,1.104720521E1
1.525720212E1,9.322194280E0,4.069807397E0,1.722826251E0,1.031672277E1
1.526721213E1,8.268396796E0,4.407334120E0,1.320647303E0,9.462298290E0
1.527722312E1,7.189398982E0,4.652563129E0,1.018491557E0,8.623869575E0
1.528723313E1,6.614748076E0,4.507599251E0,1.437152198E0,8.132573366E0
1.529724312E1,6.911496609E0,4.270785263E0,2.260059070E0,8.433045662E0
1.530725313E1,6.106132700E0,4.093547093E0,2.511568573E0,7.768523737E0
1.531726412E1,5.118084818E0,3.476124682E0,2.227142608E0,6.575591167E0
1.532727413E1,4.828267574E0,2.561641788E0,2.133534679E0,5.867379879E0
1.533728412E1,4.040370467E0,1.390704402E0,2.682808961E0,5.045405451E0
1.534729550E1,2.681190451E0,3.778520456E-1,2.718399793E0,3.836828357E0
1.535730550E1,-4.570435184E-1,-1.038366974E0,2.150093847E0,2.431048807E0
1.536731550E1,-5.000251143E0,-2.911102094E0,1.308012786E0,5.931941026E0
1.537732550E1,-1.010587496E1,-5.444009203E0,5.062143628E-1,1.149009129E1
1.538733650E1,-1.435275213E1,-8.883004650E0,-3.612862989E-2,1.687929413E1
1.539734650E1,-1.625124599E1,-1.246035457E1,2.105557506E-1,2.047944740E1
1.540735650E1,-1.660996448E1,-1.435896889E1,1.900693581E0,2.203822914E1
1.541736650E1,-1.804259313E1,-1.529965958E1,4.004734612E0,2.399276244E1
1.542737750E1,-2.026194008E1,-1.651721828E1,5.095730327E0,2.663327211E1
1.543738750E1,-2.043355118E1,-1.606039988E1,4.846253024E0,2.643771220E1
1.544739750E1,-1.999568828E1,-1.442542951E1,5.009290938E0,2.515976077E1
1.545740850E1,-2.010795482E1,-1.349286410E1,4.973992467E0,2.472099978E1
1.546741850E1,-2.103896955E1,-1.360131358E1,3.434062736E0,2.528688905E1
1.547742850E1,-2.165491992E1,-1.256950455E1,1.387636660E0,2.507695231E1
1.548743850E1,-2.076237052E1,-1.024318512E1,-8.057906096E-1,2.316566791E1
1.549744950E1,-1.951054480E1,-7.841743011E0,-2.240575855E0,2.114650023E1
1.550745950E1,-1.829998171E1,-5.570733569E0,-3.429855080E0,1.943415316E1
1.551746950E1,-1.657210610E1,-2.857088439E0,-4.659953717E0,1.745029580E1
1.552748050E1,-1.317754130E1,-1.199138215E-1,-5.886928772E0,1.443322225E1
1.553749050E1,-8.459327098E0,1.635302204E0,-7.079371340E0,1.115131951E1
1.554750050E1,-3.234563924E0,2.464706063E0,-7.197906096E0,8.267226374E0
1.555751050E1,1.161896714E0,3.498927361E0,-7.049589132E0,7.955451187E0
1.556752150E1,3.507326594E0,4.508209115E0,-7.097842695E0,9.110689336E0
1.557753150E1,5.406563049E0,5.397144939E0,-5.728751063E0,9.548753125E0
1.558754150E1,6.911586657E0,6.001517242E0,-4.538663753E0,1.021703029E1
1.559755150E1,8.131890038E0,6.514846058E0,-3.070333178E0,1.086267925E1
1.560756250E1,9.090157467E0,6.629941481E0,-1.665779353E0,1.137373763E1
1.561757250E1,9.969338965E0,6.457024696E0,-5.144684386E-1,1.188888410E1
1.562758250E1,1.067608841E1,6.218990979E0,3.415064840E-1,1.236007036E1
1.563759350E1,1.109414094E1,5.977941853E0,9.033012629E-1,1.263454412E1
1.564760350E1,1.127812475E1,5.783567541E0,1.312015936E0,1.274233641E1
1.565761350E1,1.133991111E1,5.667600882E0,1.791425493E0,1.280329993E1
1.566762350E1,1.151293724E1,5.592179986E0,2.152567073E0,1.297897322E1
1.567763450E1,1.144375883E1,5.350428609E0,2.264203284E0,1.283406868E1
1.568764450E1,1.122731362E1,5.211444386E0,2.137336246E0,1.256104812E1
1.569765450E1,1.090893507E1,5.091647801E0,2.029131327E0,1.220848539E1
1.570766550E1,1.092782391E1,4.931283234E0,2.040452706E0,1.216134602E1
1.571767550E1,1.114617532E1,4.776220045E0,2.073172556E0,1.230233907E1
1.572768550E1,1.107987023E1,4.619548580E0,1.926566195E0,1.215793612E1
1.573769550E1,1.071870292E1,4.461073833E0,1.731879934E0,1.173844880E1
1.574770650E1,1.043208527E1,4.438282556E0,1.648679902E0,1.145621668E1
1.575771650E1,1.000203893E1,4.562722999E0,1.617601951E0,1.111196923E1
1.576772650E1,9.371743585E0,4.815943105E0,1.319224530E0,1.061900368E1
1.577773650E1,8.872950947E0,5.064551804E0,1.111823644E0,1.027692052E1
1.578774750E1,8.631548064E0,5.329141821E0,1.249379392E0,1.022077900E1
1.579775750E1,8.293896503E0,5.662174081E0,1.393311968E0,1.013855279E1
1.580776750E1,7.709867833E0,5.999453759E0,1.369206383E0,9.864594950E0
1.581777750E1,7.049078085E0,6.331444631E0,1.199550444E0,9.550686584E0
1.582778850E1,6.595171013E0,6.535540524E0,1.272556293E0,9.371711165E0
1.583779850E1,6.414614257E0,6.327564418E0,1.331250790E0,9.108104973E0
1.584780850E1,6.331469189E0,6.001978587E0,1.260840958E0,8.814815311E0
1.585781950E1,5.998124102E0,5.596456640E0,1.009246963E0,8.265373500E0
1.586782950E1,5.774999616E0,4.835158225E0,8.190735832E-1,7.576295741E0
1.587783950E1,5.297303731E0,4.057624724E0,6.553886747E-1,6.704869837E0
1.588784950E1,4.203753952E0,3.379593291E0,3.732195890E-1,5.406707960E0
1.589786050E1,2.663931810E0,1.998915402E0,-4.245546341E-2,3.330765368E0
1.590787050E1,9.955235481E-2,-1.822927952E-2,-2.042572761E-1,2.279561642E-1
1.591788050E1,-3.461627680E0,-2.204207051E0,-5.953108728E-1,4.146780673E0
1.592789150E1,-8.466715640E0,-4.703559620E0,-1.542219501E0,9.807506707E0
1.593790150E1,-1.410626509E1,-7.560173850E0,-2.572915220E0,1.620996102E1
1.594791150E1,-1.865265769E1,-1.005219518E1,-3.626052554E0,2.149689568E1
1.595792150E1,-2.157019611E1,-1.136768539E1,-4.412799805E0,2.477842677E1
1.596793250E1,-2.437107322E1,-1.272601814E1,-4.161446423E0,2.780680463E1
1.597794250E1,-2.564968854E1,-1.340857766E1,-2.791085361E0,2.907725287E1
1.598795250E1,-2.479656341E1,-1.195248764E1,-6.010472837E-1,2.753348462E1
1.599796250E1,-2.462236082E1,-1.119884470E1,1.570033244E0,2.709501392E1
1.600797350E1,-2.482303492E1,-1.184883522E1,2.013728153E0,2.757957686E1
1.601798350E1,-2.405675497E1,-1.207688716E1,9.657600510E-1,2.693531800E1
1.602799350E1,-2.186214759E1,-1.095204542E1,-1.860527010E-1,2.445271788E1
1.603800450E1,-1.924855913E1,-9.420011181E0,-8.793335259E-1,2.144800380E1
1.604801450E1,-1.675321074E1,-8.098221186E0,-1.550130637E0,1.867228324E1
1.605802450E1,-1.426643553E1,-6.617226126E0,-2.787920848E0,1.597157998E1
1.606803450E1,-1.134095192E1,-4.889611590E0,-4.105320754E0,1.301457454E1
1.607804550E1,-7.622953066E0,-3.019141682E0,-5.206889405E0,9.712688980E0
1.608805550E1,-3.419987903E0,-1.259452537E0,-5.463549428E0,6.567565021E0
1.609806550E1,9.861036837E-2,4.739299849E-1,-5.247506504E0,5.269787296E0
1.610807550E1,2.513425648E0,2.181413434E0,-5.122966658E0,6.109063794E0
1.611808650E1,4.036747532E0,3.548692136E0,-5.386504176E0,7.609400354E0
1.612809650E1,5.022984533E0,4.545448570E0,-5.699720807E0,8.853151619E0
1.613810650E1,5.875434900E0,5.022335492E0,-5.296665215E0,9.370125477E0
1.614811750E1,6.866758393E0,5.188512776E0,-4.425499080E0,9.677710358E0
1.615812750E1,7.984426768E0,4.974988832E0,-3.329762442E0,9.979423962E0
1.616813750E1,9.262716402E0,4.543008235E0,-1.803753616E0,1.047331686E1
1.617814750E1,1.054042482E1,4.052713355E0,5.919735745E-2,1.129285373E1
1.618815850E1,1.167333806E1,3.533880554E0,1.778536037E0,1.232551515E1
1.619816850E1,1.288181486E1,3.133679281E0,3.035508331E0,1.360056656E1
1.620817850E1,1.360590014E1,3.255196702E0,3.664597399E0,1.446188432E1
1.621818850E1,1.371647449E1,3.509497958E0,3.598465390E0,1.460846335E1
1.622819950E1,1.352355847E1,3.494420912E0,2.909238878E0,1.426749040E1
1.623820950E1,1.330858325E1,3.537000629E0,2.063965530E0,1.392439282E1
1.624821950E1,1.294885319E1,3.705608308E0,1.217778554E0,1.352358371E1
1.625823050E1,1.254443871E1,3.759479875E0,4.807487154E-1,1.310449353E1
1.626824050E1,1.240955163E1,3.946589314E0,2.823947883E-1,1.302506375E1
1.627825050E1,1.214169185E1,4.061026341E0,6.094788225E-1,1.281733515E1
1.628826050E1,1.177759041E1,4.038995202E0,8.770678760E-1,1.248176134E1
1.629827150E1,1.143875595E1,4.064289965E0,1.034650630E0,1.218335309E1
1.630828150E1,1.122290248E1,4.044114439E0,1.305792013E0,1.200056226E1
1.631829150E1,1.114300379E1,3.996423964E0,1.621648224E0,1.194854304E1
1.632830150E1,1.080885178E1,4.215144036E0,1.814205368E0,1.174265972E1
1.633831250E1,1.036575797E1,4.329966979E0,1.843486470E0,1.138402366E1
1.634832471E1,9.840686188E0,4.433728159E0,2.073449714E0,1.099073445E1
1.635833471E1,9.553812432E0,4.784375449E0,2.364665173E0,1.094336428E1
1.636834571E1,9.185557714E0,5.115091628E0,2.812615979E0,1.088344805E1
1.637835571E1,8.350430893E0,5.058462514E0,3.204412172E0,1.027550468E1
1.638836571E1,7.520988150E0,4.785042324E0,3.912154477E0,9.734826421E0
1.639837571E1,6.869601309E0,4.413992929E0,4.530362169E0,9.338037112E0
1.640838671E1,6.179564958E0,3.894437121E0,4.823770188E0,8.753423467E0
1.641839671E1,5.363489535E0,3.266695251E0,4.636709573E0,7.806240678E0
1.642840671E1,4.283377826E0,2.267473924E0,4.148096353E0,6.379299879E0
1.643841671E1,2.491068234E0,1.358930047E0,3.837667674E0,4.772819397E0
1.644842771E1,-2.061921197E-1,4.268321246E-1,2.959389570E0,2.997113191E0
1.645843771E1,-4.091075183E0,-3.345449352E-1,1.646664805E0,4.422705218E0
1.646844771E1,-8.569059455E0,-1.257746319E0,-3.028205743E-1,8.666164437E0
1.647845871E1,-1.308575522E1,-3.280219861E0,-2.131168457E0,1.365791752E1
1.648846871E1,-1.610425283E1,-5.976763054E0,-3.478772593E0,1.752628068E1
1.649847871E1,-1.734604473E1,-9.457284842E0,-4.370185297E0,2.023422902E1
1.650848871E1,-1.851830271E1,-1.387065972E1,-4.237917479E0,2.352196167E1
1.651849971E1,-1.949129109E1,-1.751172909E1,-3.485664999E0,2.643333018E1
1.652850971E1,-1.981533676E1,-1.822387669E1,-2.562415960E0,2.704298852E1
1.653851971E1,-1.964547983E1,-1.623017379E1,-1.067389337E0,2.550495518E1
1.654852971E1,-1.996894780E1,-1.410278132E1,6.990955885E-1,2.445682015E1
1.655854071E1,-2.086003306E1,-1.299213662E1,2.344392145E0,2.468669212E1
1.656855071E1,-2.134178515E1,-1.201346124E1,3.712394879E0,2.477048486E1
1.657856071E1,-2.093931428E1,-1.033815443E1,5.220674801E0,2.392880618E1
1.658857171E1,-2.000206409E1,-8.293818151E0,6.499915777E0,2.260793870E1
1.659858171E1,-1.860121389E1,-6.661425229E0,6.241231449E0,2.072034542E1
1.660859171E1,-1.666515869E1,-5.101220278E0,4.171451594E0,1.792068556E1
1.661860171E1,-1.404126861E1,-3.113797579E0,7.949266291E-1,1.440433504E1
1.662861271E1,-1.081570823E1,-1.235042751E0,-3.213978217E0,1.135052999E1
1.663862271E1,-7.113361205E0,7.404370111E-1,-6.720658693E0,9.814041363E0
1.664863271E1,-3.469381673E0,2.705320156E0,-9.187330005E0,1.018638302E1
1.665864271E1,-3.825552535E-1,4.256305510E0,-1.039434033E1,1.123854065E1
1.666865371E1,2.224570271E0,5.293491347E0,-1.070133435E1,1.214447695E1
1.667866371E1,4.467912444E0,5.796528479E0,-1.008664931E1,1.246204150E1
1.668867371E1,6.037399850E0,5.968320844E0,-8.599186649E0,1.208375197E1
1.669868471E1,6.983157161E0,6.171036794E0,-6.512553949E0,1.136923647E1
1.670869471E1,7.681331667E0,6.286659636E0,-4.292531058E0,1.081437786E1
1.671870471E1,8.300875155E0,6.101482995E0,-2.158692616E0,1.052580528E1
1.672871471E1,9.059189444E0,5.822984791E0,-3.104155228E-2,1.076926315E1
1.673872571E1,1.029491076E1,5.565431898E0,1.659152119E0,1.181998332E1
1.674873571E1,1.154560680E1,5.100220404E0,2.605980055E0,1.288815024E1
