"Time (s)","Linear Acceleration x (m/s^2)","Linear Acceleration y (m/s^2)","Linear Acceleration z (m/s^2)","Absolute acceleration (m/s^2)"
7.280708291E-3,-6.208672982E-1,1.375393760E0,4.507747185E-1,1.574922869E0
1.728870824E-2,-8.230166531E-1,1.496865865E0,6.437170476E-1,1.825468561E0
2.729570831E-2,-1.084290714E0,1.568227916E0,3.584255487E-1,1.939972686E0
3.730370826E-2,-1.622246248E0,1.596434007E0,3.171085382E-1,2.298008323E0
4.731070832E-2,-2.010360450E0,1.351271072E0,6.701891470E-1,2.513291893E0
5.731770827E-2,-2.510361122E0,9.958124006E-1,1.303595799E0,2.998819319E0
6.732570834E-2,-3.025218986E0,7.721107936E-1,1.948820259E0,3.680489830E0
7.733270829E-2,-3.307869297E0,5.322544992E-1,2.353987280E0,4.094697822E0
8.734070824E-2,-3.017435172E0,1.407740557E-1,2.257467876E0,3.771060005E0
9.734770830E-2,-2.603928267E0,-2.062330502E-1,2.105199949E0,3.354823589E0
1.073547082E-1,-2.187466764E0,-4.434218448E-1,1.802729915E0,2.869053663E0
1.173627083E-1,-1.785509280E0,-7.153185421E-1,1.361959198E0,2.356831954E0
1.273697083E-1,-1.487763212E0,-1.014368247E0,8.212016773E-1,1.979079208E0
1.373777083E-1,-1.293849075E0,-1.212050037E0,1.470738459E-1,1.778972017E0
1.473847083E-1,-1.119589185E0,-1.372600545E0,-4.090501571E-1,1.817920304E0
1.573917083E-1,-1.031614317E0,-1.648879146E0,-5.382309383E-1,2.018098878E0
1.673997083E-1,-1.171261030E0,-2.068165439E0,-1.579525906E-1,2.382038980E0
1.774067082E-1,-1.236896026E0,-2.329561706E0,2.750980479E-1,2.651876403E0
1.874147083E-1,-1.054303853E0,-2.415558461E0,1.495928264E-1,2.639859335E0
1.974217083E-1,-1.063238983E0,-2.203916152E0,-1.816490167E-1,2.453715530E0
2.074297083E-1,-1.291594389E0,-1.702392864E0,-5.927275729E-1,2.217585061E0
2.174367083E-1,-1.222155195E0,-1.220804488E0,-9.146530473E-1,1.954639894E0
2.274437083E-1,-8.667894942E-1,-8.213314855E-1,-1.164946037E0,1.668235207E0
2.374514583E-1,-1.569030154E-1,-6.577643985E-1,-1.144463825E0,1.329311855E0
2.474584583E-1,5.757466739E-1,-6.730285549E-1,-8.832388812E-1,1.250824764E0
2.574664582E-1,1.186434554E0,-8.179354227E-1,-6.051365340E-1,1.562957303E0
2.674734583E-1,1.556052259E0,-1.123759127E0,-1.991351151E-1,1.929711896E0
2.774804583E-1,1.838333026E0,-1.430540605E0,1.080659008E-1,2.331864700E0
2.874884583E-1,1.847614896E0,-1.769990477E0,-2.631422460E-2,2.558757420E0
2.974954583E-1,1.830994186E0,-2.013559169E0,-7.666623580E-1,2.827495607E0
3.075034583E-1,1.819538906E0,-2.031480300E0,-1.724774251E0,3.226837501E0
3.175104583E-1,1.857301394E0,-1.938085648E0,-2.705255252E0,3.811056340E0
3.275174584E-1,1.832166553E0,-2.244573011E0,-3.579364876E0,4.605083625E0
3.375254583E-1,1.986907852E0,-2.777603144E0,-3.984673399E0,5.247904738E0
3.475324583E-1,2.572398326E0,-3.551625100E0,-3.844099903E0,5.831670264E0
3.575404583E-1,3.780704391E0,-4.574630561E0,-3.802728513E0,7.048525705E0
3.675474583E-1,5.178025210E0,-6.076544035E0,-3.755435064E0,8.822676748E0
3.775544583E-1,6.389164250E0,-7.315799412E0,-3.033550683E0,1.017569509E1
3.875624583E-1,7.272172751E0,-8.658586174E0,-3.013701725E0,1.170205149E1
3.975694583E-1,7.123782113E0,-9.845168663E0,-3.949691847E0,1.277793736E1
4.075774583E-1,5.886828784E0,-1.004046800E1,-4.276852626E0,1.239988787E1
4.175844582E-1,5.108576075E0,-9.142949638E0,-4.184890834E0,1.127849232E1
4.275914583E-1,4.727287914E0,-7.833217771E0,-3.771355570E0,9.895942325E0
4.375994583E-1,4.330128654E0,-6.696889762E0,-2.303349808E0,8.300829295E0
4.476064583E-1,3.696979864E0,-6.385413262E0,-8.299844876E-1,7.424960396E0
4.576144583E-1,2.969730663E0,-6.161918646E0,2.408374572E-1,6.844453542E0
4.676214583E-1,1.519535812E0,-5.448091144E0,1.848608046E0,5.950465352E0
4.776284583E-1,-6.365530390E-1,-4.591685428E0,3.310161406E0,5.696134072E0
4.876364582E-1,-3.026493094E0,-3.798514425E0,4.573585664E0,6.671286091E0
4.976434583E-1,-5.318913286E0,-3.109779957E0,5.260941651E0,8.101794677E0
5.076514583E-1,-7.616028793E0,-1.577673508E0,5.369972343E0,9.451431174E0
5.176584583E-1,-9.706437625E0,1.009769120E0,4.781757066E0,1.086737161E1
5.276664583E-1,-1.080401964E1,3.206496704E0,3.696190490E0,1.186045049E1
5.376734583E-1,-1.164760446E1,4.306221728E0,2.063679747E0,1.258844746E1
5.476804583E-1,-1.218185403E1,4.791071973E0,5.700251734E-1,1.310255193E1
5.576884582E-1,-1.195759694E1,4.871252795E0,-7.248024336E-1,1.293207512E1
5.676954583E-1,-1.160480518E1,5.072328601E0,-1.651050217E0,1.277207844E1
5.777034583E-1,-1.064900294E1,5.013635420E0,-2.103213357E0,1.195664293E1
5.877104583E-1,-9.631178697E0,4.584343371E0,-2.102427199E0,1.087179872E1
5.977174583E-1,-8.338288565E0,3.511147165E0,-2.321215098E0,9.340409527E0
6.077254583E-1,-7.161951567E0,2.657920287E0,-3.120583565E0,8.252038069E0
6.177324583E-1,-6.573224074E0,1.807933352E0,-3.288233470E0,7.568908580E0
6.277404584E-1,-7.615949271E0,1.655277754E0,-1.948698929E0,8.033682546E0
6.377474583E-1,-8.539198310E0,1.318134609E0,5.492169794E-1,8.657772572E0
6.477544582E-1,-9.090199567E0,1.602838755E-1,2.411874715E0,9.406091576E0
6.577624583E-1,-7.624752254E0,5.765471578E-2,2.493225272E0,8.022240539E0
6.677694583E-1,-5.724494875E0,2.760265857E-2,3.801441541E-1,5.737169429E0
6.777774583E-1,-4.105433021E0,-6.809658578E-1,-1.418975397E0,4.396792691E0
6.877844583E-1,-2.948704661E0,-2.914653400E0,-1.094686478E0,4.288170018E0
6.977914583E-1,-1.731368741E0,-1.647806182E0,-2.084082144E-1,2.399236736E0
7.077994583E-1,-8.813408750E-1,3.251888055E-1,-2.158195603E0,2.353787959E0
7.178064582E-1,8.125577384E-1,7.173978120E-1,-5.348773263E0,5.457498063E0
7.278144583E-1,1.611447026E0,7.157933360E-1,-5.504341943E0,5.779870400E0
7.378214583E-1,1.975368372E0,1.281129043E0,-4.147998412E0,4.769618711E0
7.478284583E-1,1.467438875E0,9.452453873E-1,-1.667534980E0,2.414029536E0
7.578364583E-1,2.698425120E0,-7.279687008E-1,1.740689495E0,3.292633668E0
7.678434583E-1,3.299112507E0,-1.108652553E0,4.565584334E0,5.740889664E0
7.778514583E-1,2.648983988E0,8.061372033E-1,5.624615076E0,6.269231860E0
7.878584584E-1,2.054810398E0,9.593532568E-1,5.961633968E0,6.378376284E0
7.978654583E-1,1.173218093E0,1.198019058E0,6.619904736E0,6.828969839E0
8.078734583E-1,-7.681767869E-1,2.823244463E0,5.197968308E0,5.964870443E0
8.178804583E-1,-2.055630178E0,4.563159494E0,1.739998939E0,5.298644761E0
8.278884583E-1,-3.298291558E0,5.608253982E0,-1.500687897E-3,6.506246397E0
8.378954583E-1,-5.134744704E0,7.491626941E0,-2.923919190E0,9.541455907E0
8.479024583E-1,-5.716851395E0,9.277477114E0,-7.728328663E0,1.335967946E1
8.579104583E-1,-6.623739340E0,9.156828005E0,-1.065374737E1,1.553137969E1
8.679174583E-1,-7.178172328E0,9.332576596E0,-9.611441420E0,1.519878120E1
8.779254582E-1,-5.842726745E0,7.268483158E0,-8.450711811E0,1.258502417E1
8.879324583E-1,-5.091989864E0,4.300064026E0,-6.777885393E0,9.505716269E0
8.979394583E-1,-2.761182700E0,3.640538738E0,-4.687871833E0,6.546280969E0
9.079474583E-1,-5.941741741E-1,9.655612457E-1,-5.669388376E0,5.781636103E0
9.179544583E-1,1.897315060E0,-1.522119404E0,-4.597962998E0,5.201722374E0
9.279624583E-1,6.622652342E0,-2.311752549E0,-1.921637723E0,7.272992193E0
9.379694583E-1,1.008822923E1,-3.407049184E0,1.784907894E0,1.079658508E1
9.479764584E-1,1.084976709E1,-6.001444736E0,2.512728660E0,1.265103119E1
9.579844583E-1,1.004515396E1,-5.316591357E0,2.985023471E0,1.175081388E1
9.679914583E-1,6.642629355E0,-3.440201728E0,2.761368642E0,7.973999589E0
9.779994583E-1,4.594556703E0,-2.182148429E0,1.156747071E0,5.216300111E0
9.880064583E-1,2.403562898E0,-1.579080494E0,-3.930097827E-1,2.902596510E0
9.980134583E-1,1.003313794E0,-9.124509859E-1,-1.726126712E0,2.195158034E0
1.008021458E0,-3.949092507E-1,-8.621054359E-1,-1.748362211E0,1.988956893E0
1.018028458E0,-1.070958477E0,-1.728837481E0,-9.957586062E-1,2.264368852E0
1.028036458E0,-4.144845593E-1,-2.927362323E0,2.560349554E-2,2.956670959E0
1.038043458E0,-9.315316200E-2,-3.464504510E0,2.945534885E-1,3.478251108E0
1.048050458E0,-3.255355453E-1,-3.359254628E0,-3.569678378E-1,3.393816596E0
1.058058458E0,-7.769008327E-1,-2.746897953E0,-8.739108181E-1,2.985421810E0
1.068065458E0,-1.322669417E0,-1.737771442E0,-1.236258679E0,2.509509811E0
1.078073458E0,-1.757011705E0,-1.044979883E0,-9.296973485E-1,2.245753826E0
1.088080458E0,-1.843879695E0,-1.562678323E0,4.239617264E-1,2.453894745E0
1.098087458E0,-2.118725728E0,-2.753422276E0,2.140560985E0,4.080727174E0
1.108095458E0,-2.517133952E0,-3.698079433E0,2.508763663E0,5.128903386E0
1.118102458E0,-1.959903072E0,-5.501321272E0,2.823255572E0,6.486642260E0
1.128110458E0,-1.744634904E0,-7.307820302E0,3.183286766E0,8.159736708E0
1.138117458E0,-2.052727035E0,-6.904823767E0,3.066288659E0,7.828946652E0
1.148124458E0,-2.517812229E0,-5.246235319E0,2.003162527E0,6.154268727E0
1.158132458E0,-2.426604436E0,-3.156002489E0,9.250455961E-2,3.982124796E0
1.168139458E0,-3.845928912E0,-7.766271830E-1,-3.621171883E-1,3.940234490E0
1.178146458E0,-5.574368198E0,4.550119033E-1,1.501824450E0,5.791035600E0
1.188154458E0,-5.322740289E0,-3.919242471E-1,3.409553547E0,6.333263313E0
1.198161458E0,-6.010145393E0,-1.849843855E0,7.664329133E0,9.913915018E0
1.208169458E0,-6.227834893E0,1.326407834E0,5.119305131E0,8.170224613E0
1.218176458E0,-4.380187837E0,2.169796186E0,2.779595582E0,5.623185270E0
1.228183458E0,-3.714230905E0,2.508947558E0,1.039696923E0,4.601227962E0
1.238191333E0,-2.825802035E0,3.534538074E0,-3.032707807E0,5.447516239E0
1.248198333E0,-3.091132309E0,3.220910091E0,-4.343099240E0,6.228312113E0
1.258206333E0,-3.364770307E0,2.869399167E0,-3.107614148E0,5.404849349E0
1.268213333E0,-1.748797536E0,3.147517594E0,-2.773935185E0,4.545313657E0
1.278220333E0,-1.168215215E0,3.086520025E0,-2.235112216E0,3.985857408E0
1.288228333E0,-1.106346996E0,3.636374059E0,-2.047822098E0,4.317498734E0
1.298235333E0,-1.560800782E0,4.393043818E0,-2.345676340E0,5.218920440E0
1.308243333E0,-2.831468571E0,5.992293844E0,-4.082574208E0,7.784099944E0
1.318250333E0,-2.994421116E0,6.962441061E0,-5.929757872E0,9.623106139E0
1.328257333E0,-2.967884113E0,5.963882807E0,-5.606189330E0,8.706640744E0
1.338265333E0,-5.478022456E-1,3.716599904E0,-4.109668744E0,5.567995989E0
1.348272333E0,1.892439651E0,1.270147387E0,-3.965943598E0,4.574200569E0
1.358280333E0,3.540877333E0,-1.726472575E0,-2.803971455E0,4.835367179E0
1.368287333E0,6.318640983E0,-5.707359610E0,2.851706954E0,8.979499437E0
1.378294333E0,6.509587072E0,-7.752187057E0,9.965976816E-1,1.017174198E1
1.388302333E0,7.558720232E0,-5.460932214E0,1.341834251E0,9.421069544E0
1.398309333E0,6.889322798E0,-4.763371374E0,1.668324939E0,8.540244936E0
1.408317333E0,7.066827893E0,-4.098226912E0,-1.656022689E0,8.335342311E0
1.418324333E0,4.503755876E0,-8.217685649E-1,-2.381299624E0,5.160398092E0
1.428331333E0,2.809738564E0,5.389252952E-1,-2.980749156E0,4.131578004E0
1.438339333E0,1.730370621E0,2.318704596E-1,-3.209443701E0,3.653556523E0
1.448346333E0,2.185354750E0,-9.780102602E-1,-2.779253813E0,3.668314492E0
1.458353333E0,3.746987007E0,-1.243021861E0,-2.765203246E0,4.819892526E0
1.468361333E0,3.862895193E0,-5.400338542E-2,-2.721957531E0,4.725878589E0
1.478368333E0,4.617011765E0,1.118356592E0,-2.577795306E0,5.404863342E0
1.488376333E0,6.409113781E0,2.148289542E0,-3.547429723E0,7.633881388E0
1.498383333E0,8.248616835E0,5.096810308E0,-5.523119107E0,1.115894259E1
1.508390333E0,6.157701634E0,3.770972578E0,-2.623960243E0,7.682622661E0
1.518398333E0,2.386514756E0,1.253463234E0,1.804407481E0,3.243841722E0
1.528405333E0,3.371691656E-1,-2.801707998E-1,2.043792490E0,2.090279040E0
1.538413333E0,3.058099633E-1,-5.699571265E-1,6.404238957E-1,9.102272386E-1
1.548420333E0,-1.443595684E-1,-1.848426782E0,4.231220663E-1,1.901723833E0
1.558427333E0,-1.021535472E0,-9.622362265E-1,-2.619903445E-2,1.403609513E0
1.568435333E0,-8.618901122E-1,-5.164410699E-1,-1.274336332E0,1.622805913E0
1.578442333E0,-1.070636880E-1,-5.880003914E-1,-2.428180261E0,2.500653209E0
1.588450333E0,3.093966454E-1,1.019453278E0,-3.638545715E0,3.791309297E0
1.598457333E0,-1.737903589E0,2.675247341E0,-4.867388370E0,5.819684422E0
1.608464333E0,-5.484712840E0,3.952452610E0,-5.428615823E0,8.670284097E0
1.618472333E0,-7.546861494E0,3.733237571E0,-4.396992735E0,9.498722350E0
1.628479333E0,-7.427173668E0,2.904127243E0,-3.519724445E0,8.716956114E0
1.638487333E0,-7.455390576E0,2.427881614E0,-1.824763978E0,8.050293246E0
1.648494333E0,-5.803411821E0,1.479870640E0,-1.255992447E0,6.119405437E0
1.658501333E0,-4.045930585E0,-1.666482189E0,-4.287132470E-1,4.396647840E0
1.668509333E0,-2.927904945E0,-3.770544854E0,1.708923619E0,5.070508436E0
1.678516333E0,-2.302642295E0,-3.245202641E0,3.138847343E0,5.068122370E0
1.688523333E0,-1.112362611E0,-1.731610962E0,1.287292593E0,2.427539767E0
1.698531333E0,-1.964092602E0,-3.463978261E-1,-6.836155236E-1,2.108312450E0
1.708538333E0,-2.926958866E0,8.726747167E-1,-1.214935638E0,3.287053082E0
1.718546333E0,-2.537091669E0,-5.642452373E-1,2.035931493E0,3.301548708E0
1.728553333E0,-2.290290636E0,-2.833126257E0,7.093080722E0,7.973946935E0
1.738560333E0,-2.584338341E0,-3.956413221E0,1.012492870E1,1.117345924E1
1.748568333E0,-4.120566784E0,-1.999845255E0,9.633073779E0,1.066651593E1
1.758575333E0,-2.831026522E0,-2.423237902E0,6.658787550E0,7.630612343E0
1.768583333E0,-1.211046070E0,-3.363191266E0,2.418047621E0,4.315627692E0
1.778590333E0,-3.531566226E-1,-2.359500620E0,-1.109494552E0,2.631148216E0
1.788597333E0,1.502283018E0,-3.597768402E0,-4.521596316E0,5.970395714E0
1.798605333E0,2.138325010E0,-3.891123796E0,-5.524972674E0,7.087919391E0
1.808612333E0,2.894696268E0,-3.333566056E0,-4.212524775E0,6.102236813E0
1.818619333E0,4.399232803E0,-3.885894631E0,-1.267817271E0,6.005063445E0
1.828627333E0,5.571465640E0,-3.556454315E0,-3.442296785E-1,6.618768069E0
1.838634333E0,4.431811734E0,-1.462041895E0,5.921123727E-1,4.704159735E0
1.848642333E0,1.855269486E0,3.987549645E-1,1.846986905E0,2.648091958E0
1.858649333E0,8.057533336E-1,7.293518597E-1,1.927863253E0,2.213108514E0
1.868656333E0,7.019845515E-1,1.233473943E0,1.770757340E0,2.269321888E0
1.878664333E0,6.683975601E-1,8.263668153E-1,3.301192508E-1,1.112931324E0
1.888671333E0,2.200787891E0,-7.486788078E-1,-1.017187482E-1,2.326872150E0
1.898679333E0,3.349658178E0,-1.551357529E0,3.319874362E-1,3.706364223E0
1.908686333E0,3.489415403E0,-1.179306214E0,9.174234581E-1,3.795846256E0
1.918693333E0,4.521187595E0,-1.188426628E0,1.541385688E0,4.922333284E0
1.928701333E0,5.774008512E0,-1.066685698E0,1.629340090E0,6.093582018E0
1.938708333E0,4.490009072E0,-1.360458510E-1,1.544851917E0,4.750290242E0
1.948715333E0,3.052595065E0,1.430372059E0,1.087551706E0,3.542184294E0
1.958723333E0,5.427999526E-1,2.284574691E0,-1.358838539E0,2.712997508E0
1.968730333E0,-7.747858948E-1,3.892814519E0,-3.183044692E0,5.087835647E0
1.978738333E0,7.139023465E-1,3.220920908E0,-2.668497900E0,4.243214477E0
1.988745333E0,1.890157483E0,2.475133110E0,-2.789099062E0,4.180676118E0
1.998752333E0,2.080774959E0,2.445392563E0,-2.199286326E0,3.891841410E0
2.008760333E0,1.467068161E0,1.450249669E0,-7.865656954E-1,2.207758747E0
2.018767333E0,7.333227038E-1,1.208202715E0,8.796638936E-1,1.664729574E0
2.028775333E0,-6.869273865E-1,9.507464477E-1,2.189808574E0,2.484159744E0
2.038782333E0,-2.308579558E0,1.113668295E0,3.172405098E0,4.078474071E0
2.048789333E0,-3.811137394E0,1.705652102E0,3.452067482E0,5.417636683E0
2.058797333E0,-4.147005554E0,1.410959742E0,3.259790567E0,5.460283601E0
2.068804333E0,-1.810997293E0,8.451682448E-2,2.821776227E0,3.353993942E0
2.078811333E0,2.693070239E0,-2.401722779E0,2.781118197E0,4.555822434E0
2.088819333E0,3.873707864E0,-5.206035127E0,8.834534740E-1,6.548962086E0
2.098826333E0,7.478366625E-1,1.723308939E0,-1.422884846E0,2.356619328E0
2.108834333E0,-3.940141590E0,3.417363088E0,-1.544923253E0,5.439657533E0
2.118841333E0,-6.751842479E0,1.773057927E0,-1.492497118E0,7.138533387E0
2.128848333E0,-7.988232720E0,6.979613748E-1,2.221298754E0,8.320647825E0
2.138856333E0,-9.441246514E0,6.055629422E-1,5.665328654E0,1.102722952E1
2.148863333E0,-9.262141036E0,2.807796411E-1,5.568395852E0,1.081078749E1
2.158871333E0,-5.120362893E0,-2.494778877E0,1.046995491E0,5.791220714E0
2.168878333E0,-2.787359515E0,-3.458896446E0,-4.997007108E0,6.686061451E0
2.178885333E0,-8.171571583E-1,-1.812674859E0,-7.403819304E0,7.666164376E0
2.188893333E0,-8.798428184E-1,-1.687085145E0,-6.672030909E0,6.938038348E0
2.198900333E0,-2.955220798E0,-1.091337632E0,-4.530060160E0,5.517770641E0
2.208907333E0,-4.155710889E0,-1.448833473E0,-2.485626816E0,5.054442807E0
2.218915333E0,-2.253314599E0,-2.469434121E0,-1.822988763E0,3.807731554E0
2.228922333E0,7.764184374E-1,-3.414658751E0,-1.260777808E0,3.721865212E0
2.238930458E0,3.494294904E0,-4.644272362E0,-1.011544919E0,5.899371642E0
2.248937458E0,5.597579305E0,-5.138096913E0,-2.976080739E-1,7.604045274E0
2.258944458E0,6.703563774E0,-5.065462800E0,4.039279962E-1,8.411886737E0
2.268952458E0,6.921832733E0,-5.076502343E0,7.399932075E-1,8.615696975E0
2.278959458E0,7.173053091E0,-4.913279657E0,2.373783175E-1,8.697663830E0
2.288967458E0,4.600337260E0,-3.910971000E0,-9.448040687E-2,6.038851184E0
2.298974458E0,5.253068376E-1,-1.947720690E0,4.501981831E-1,2.066940145E0
2.308981458E0,-1.549225634E0,-7.146323714E-1,2.104390255E-1,1.719035798E0
2.318989458E0,-1.478740958E0,3.284132525E-1,1.253287525E0,1.966026375E0
2.328996458E0,-1.331780548E0,-2.492682651E-1,2.165828558E0,2.554718662E0
2.339003458E0,-2.166723182E0,-9.673730054E-1,1.065114916E0,2.600955529E0
2.349011458E0,-3.899505780E0,-1.015956643E-1,1.919207181E0,4.347392691E0
2.359018458E0,-4.857217138E0,3.793261287E-1,3.222347921E0,5.841230415E0
2.369026458E0,-4.342607782E0,5.391135755E-1,2.417146711E0,4.999148329E0
2.379033458E0,-3.147959644E0,5.728809536E-1,1.306967304E0,3.456299472E0
2.389040458E0,-1.341492189E0,7.085930747E-1,3.850134230E-1,1.565228665E0
2.399048458E0,-1.578648823E-1,6.244437477E-1,-3.337847972E-1,7.254402842E-1
2.409055458E0,5.724207777E-1,7.190300623E-1,-5.127258222E-1,1.052405600E0
2.419062458E0,7.550053489E-1,5.323922011E-1,-1.070420387E0,1.413956979E0
2.429070458E0,8.753346151E-1,-2.210218281E-2,-1.057675942E0,1.373090526E0
2.439077458E0,1.240027210E0,-6.052704352E-1,-4.469950783E-1,1.450456611E0
2.449085458E0,1.601081082E0,-5.869601718E-1,-2.864002772E-1,1.729163958E0
2.459092458E0,2.084849884E0,-9.360474247E-1,4.756256774E-1,2.334310092E0
2.469099458E0,2.577728648E0,-1.158809384E0,1.139041264E0,3.047119816E0
2.479107458E0,3.445035036E0,-8.825494945E-1,1.502921387E0,3.860820212E0
2.489114458E0,2.891102570E0,-1.282008756E0,-2.911970405E-1,3.175974848E0
2.499121458E0,2.040330353E0,-1.347328879E0,-3.891042812E-1,2.475812029E0
2.509129458E0,2.484859661E0,-7.347520557E-1,5.297203159E-1,2.644804668E0
2.519136458E0,3.013483624E0,-5.243402928E-2,6.364251311E-1,3.080400920E0
2.529144458E0,2.958117508E0,3.489208996E-1,3.036007391E-1,2.994057180E0
2.539151458E0,2.822278503E0,3.871771851E-1,-3.576810519E-1,2.871079562E0
2.549158458E0,2.992070535E0,-1.417598963E-1,-5.372363269E-1,3.043222770E0
2.559166458E0,3.155529449E0,-2.434540862E-1,-1.251038686E0,3.403194645E0
2.569173458E0,3.906233001E0,2.245064762E-1,-2.012271173E0,4.399806211E0
2.579180458E0,4.217316568E0,3.485212424E-1,-1.847272103E0,4.617319603E0
2.589188458E0,4.153452110E0,3.420372650E-1,-1.421940959E0,4.403415721E0
2.599195458E0,3.770638994E0,3.495810503E-1,-1.315907696E0,4.008932327E0
2.609203458E0,3.253774951E0,2.774802035E-1,-1.044717050E0,3.428626607E0
2.619210458E0,2.643300494E0,-6.162175924E-1,5.890338868E-2,2.714816979E0
2.629217458E0,2.026912163E0,-1.905074900E0,6.010817823E-1,2.845871149E0
2.639225458E0,2.823696452E0,-1.594509981E0,5.217423749E-1,3.284499785E0
2.649232458E0,3.236947834E0,-3.715642422E-1,-1.845842021E0,3.744732838E0
2.659239458E0,1.745865158E0,3.367996216E-4,-2.837858993E0,3.331889693E0
2.669247458E0,-1.181258599E0,4.668358505E-1,-2.937090336E0,3.199969880E0
2.679254458E0,-5.618207113E0,1.034394084E0,-3.479835910E0,6.689056752E0
2.689262458E0,-9.935876520E0,-4.265035111E-1,-4.413859613E0,1.088051948E1
2.699269458E0,-1.297760863E1,-5.737264609E-1,-5.287998472E0,1.402534904E1
2.709276458E0,-1.276866890E1,1.135112373E0,-6.421751368E0,1.433758265E1
2.719284458E0,-9.880427374E0,3.432781026E0,-6.461587279E0,1.229467124E1
2.729291458E0,-5.861026776E0,4.641202866E0,-5.198402756E0,9.105810789E0
2.739299458E0,-3.420617064E0,3.729173464E0,-4.817371580E0,6.986732051E0
2.749306458E0,-1.360005058E0,1.762688182E0,-3.893986008E0,4.485511166E0
2.759313458E0,3.196286881E-1,5.999541467E-1,-2.346536904E0,2.443019222E0
2.769321458E0,5.624050820E-1,2.041356540E-1,-8.726887500E-1,1.058090968E0
2.779328458E0,3.102883458E-2,3.144778758E-1,7.239845543E-1,7.899447815E-1
2.789335458E0,-9.990505886E-1,5.005649292E-1,2.112929968E0,2.390217642E0
2.799343458E0,-1.282587923E0,7.328601891E-1,3.215739398E0,3.538798626E0
2.809350458E0,-1.023573811E0,7.559678006E-1,3.943626530E0,4.143836492E0
2.819357458E0,-7.101548660E-1,1.394163322E-1,3.868740070E0,3.935848902E0
2.829365458E0,-1.775891780E0,-2.045532036E0,5.939927934E0,6.528455927E0
2.839372458E0,-1.156906700E0,-2.243704700E0,6.776227123E0,7.231175417E0
2.849380458E0,-1.005355641E0,-3.386436580E0,5.941851668E0,6.912618456E0
2.859387458E0,8.823565364E-2,-2.646308302E0,5.371942270E0,5.989031383E0
2.869394458E0,2.715739310E-1,-9.550245631E-1,4.666123699E0,4.770590602E0
2.879402458E0,3.564228773E-1,7.298786938E-1,4.167402982E0,4.245822392E0
2.889409458E0,8.052937424E-1,1.795498663E0,3.001668155E0,3.589195617E0
2.899416458E0,4.276992667E-1,1.772133774E0,1.600904350E0,2.426165599E0
2.909424458E0,-5.286888671E-1,1.668604728E0,1.298444402E-1,1.755167580E0
2.919431458E0,-5.410019338E-1,2.090315276E0,-1.017775712E0,2.387041777E0
2.929439458E0,2.190834761E-2,1.834033569E0,-1.846778744E0,2.602835154E0
2.939446458E0,7.533377230E-1,1.541780375E0,-2.253997554E0,2.832862408E0
2.949453458E0,1.372495880E0,1.574608982E0,-2.065157046E0,2.937347786E0
2.959461458E0,1.789283658E0,1.895975463E0,-1.443146617E0,2.979753534E0
2.969468458E0,2.637545080E0,1.871848682E0,-1.182135097E0,3.443530880E0
2.979475458E0,3.244475539E0,1.632687913E0,-1.283208897E0,3.852131413E0
2.989483458E0,3.485714116E0,1.486783803E0,-1.002839584E0,3.920002067E0
2.999490458E0,3.591846342E0,1.249196521E0,-4.607990389E-1,3.830690257E0
3.009498458E0,3.567432463E0,9.030308291E-1,5.643046962E-1,3.722966404E0
3.019505458E0,3.309176150E0,1.716368294E-1,1.710376067E0,3.729006876E0
3.029512458E0,3.075902066E0,-5.232638204E-1,2.020220025E0,3.717024010E0
3.039520458E0,2.857464707E0,-8.630449373E-1,1.127495205E0,3.190798733E0
3.049527458E0,2.870719761E0,1.304971357E0,-3.112286366E0,4.430610410E0
3.059534458E0,1.568005137E0,-4.144798815E-2,1.565622396E0,2.216197539E0
3.069542458E0,1.984284207E0,-7.608297604E-1,2.665822799E0,3.409231135E0
3.079549458E0,2.276718079E0,4.016469973E-1,1.318186356E0,2.661274280E0
3.089557458E0,1.911379952E0,8.340953726E-1,-3.039967418E-3,2.085449029E0
3.099564458E0,8.029934478E-1,1.038445619E0,-1.484700586E0,1.981793030E0
3.109571458E0,4.156200886E-3,6.714983386E-1,-2.984601302E0,3.059211046E0
3.119579458E0,3.839340270E-2,5.845134044E-1,-3.934887574E0,3.978249639E0
3.129586458E0,3.995928705E-2,1.559072345E-1,-4.265882372E0,4.268917453E0
3.139593458E0,-6.290153933E-1,-3.472386557E-1,-4.228525681E0,4.289133302E0
3.149601458E0,-1.177621046E0,-5.550393444E-1,-3.576988567E0,3.806534804E0
3.159608458E0,-1.667247589E0,-9.457836235E-1,-2.562969106E0,3.200473688E0
3.169615458E0,-2.513611590E0,-1.453547645E0,-1.671911328E0,3.350571812E0
3.179623458E0,-3.286743892E0,-1.278796003E0,-4.120066555E-1,3.550739939E0
3.189630458E0,-3.443206027E0,-5.961657357E-1,4.195991188E-1,3.519537576E0
3.199638458E0,-3.525316138E0,1.013877958E-1,2.496063803E-1,3.535595664E0
3.209645458E0,-3.614838179E0,3.032629162E-1,-7.284778471E-1,3.699959923E0
3.219652458E0,-3.858729637E0,-2.827479601E-2,-1.893816671E0,4.298503862E0
3.229660458E0,-4.162440450E0,-6.650991458E-1,-2.959783965E0,5.150591081E0
3.239667333E0,-4.659687084E0,-2.521418792E-1,-4.298826170E0,6.344774676E0
3.249674333E0,-4.925547116E0,-7.770423353E-1,-2.114461500E0,5.416249312E0
3.259682333E0,-5.285827401E0,-1.987208984E0,8.078840590E-1,5.704528685E0
3.269689333E0,-5.418783730E0,-2.381558656E0,1.548033972E0,6.118124543E0
3.279697333E0,-4.211459997E0,-1.529551508E0,8.762869804E-1,4.565501286E0
3.289704333E0,-1.986049481E0,1.653978503E-1,2.511414206E-1,2.008686387E0
3.299711333E0,-3.731558543E-1,1.221969838E0,8.755750819E-1,1.548898738E0
3.309719333E0,1.107297753E0,1.351007363E0,2.125497973E0,2.751194439E0
3.319726333E0,2.446249326E0,1.226924769E0,2.700732431E0,3.844923383E0
3.329733333E0,2.914841681E0,9.812709600E-1,1.853042720E0,3.590677101E0
3.339741333E0,2.785751531E0,-6.048886120E-2,1.307621607E0,3.077977382E0
3.349748333E0,2.574257156E0,-1.468400742E0,1.411195677E0,3.282449373E0
3.359755333E0,1.968692021E0,-3.146242901E0,1.998253790E0,4.215164395E0
3.369763333E0,1.148006068E0,-4.484288741E0,2.455622413E0,5.239927946E0
3.379770333E0,3.724226135E-1,-4.997842675E0,2.358521211E0,5.538930611E0
3.389778333E0,-3.414341247E-1,-4.895580136E0,1.907279885E0,5.265073474E0
3.399785333E0,-1.104161307E0,-4.281116708E0,1.242494735E0,4.592485778E0
3.409792333E0,-1.726679274E0,-3.079701587E0,8.501373549E-1,3.631627280E0
3.419800333E0,-1.934134977E0,-1.807963758E0,8.570106107E-1,2.782818399E0
3.429807333E0,-1.376086071E0,-5.683476073E-1,1.136658523E0,1.873132263E0
3.439814333E0,-8.367956167E-1,3.848958939E-1,1.169848343E0,1.488931462E0
3.449822333E0,-1.217349368E-1,1.595533828E0,9.565570452E-1,1.864282428E0
3.459829333E0,2.135128337E-1,6.361769460E0,-6.044741906E-2,6.365638404E0
3.469836333E0,2.395072156E-1,4.731616607E0,-5.476572347E-1,4.769222984E0
3.479844333E0,1.040249485E0,2.412242505E0,-5.030891722E-1,2.674720847E0
3.489851333E0,1.811138796E0,8.750364071E-1,-3.378720009E-1,2.039624951E0
3.499859333E0,2.325612497E0,-1.628336708E0,-3.580800513E-1,2.861498776E0
3.509866333E0,2.809216992E0,-2.466117581E0,3.124359550E-1,3.751140128E0
3.519873333E0,3.350983157E0,-1.420431354E0,1.151569946E0,3.817437189E0
3.529881333E0,3.854274058E0,3.184218228E-2,1.316314663E0,4.072975170E0
3.539888333E0,3.726041111E0,9.753565013E-1,7.567565169E-1,3.925223954E0
3.549895333E0,3.112409742E0,1.809829019E0,2.237722121E-2,3.600427227E0
3.559903333E0,2.245305083E0,2.859817627E0,-7.587749758E-1,3.714255139E0
3.569910333E0,1.408497187E0,3.611161450E0,-1.425627775E0,4.129983764E0
3.579917333E0,1.111594287E0,3.984550023E0,-1.976290478E0,4.584539759E0
3.589925333E0,1.398225383E0,3.938385086E0,-2.319227337E0,4.779615753E0
3.599932333E0,1.824037169E0,3.711661053E0,-2.022012781E0,4.603485099E0
3.609939333E0,2.345579569E0,3.682424975E0,-1.682782472E0,4.679076197E0
3.619947333E0,2.460515948E0,3.575045537E0,-1.603436340E0,4.626672392E0
3.629954333E0,1.794290044E0,2.338526657E0,-1.565048638E0,3.337298448E0
3.639962333E0,1.060404253E0,9.829461873E-1,-1.786014479E0,2.297931267E0
3.649969333E0,2.241114968E-1,5.485273004E-2,-1.912681689E0,1.926547697E0
3.659976333E0,3.870014763E-1,-5.372562075E-1,-1.611912318E0,1.742606007E0
3.669984333E0,1.058723179E0,-6.261631215E-1,-1.332687451E0,1.813568545E0
3.679991333E0,1.572216886E0,-6.685735613E-1,-8.453204186E-1,1.906154022E0
3.689998333E0,1.747832161E0,-9.047233057E-1,-6.530316621E-3,1.968116909E0
3.700006333E0,1.078258141E0,-9.521869093E-1,3.034687382E-1,1.470167951E0
3.710013333E0,1.947526270E-1,-9.972052073E-1,6.632752530E-1,1.213375817E0
3.720020333E0,-4.475201583E-1,-1.382544320E0,5.294307326E-1,1.546609191E0
3.730028333E0,-1.473783104E0,-1.541959884E0,-4.037280214E-1,2.170869235E0
3.740035333E0,-3.084709142E0,-1.175362267E0,-1.267060203E0,3.535866020E0
3.750042333E0,-4.212290887E0,-1.377807491E0,-2.253236246E0,4.971802649E0
3.760050333E0,-4.744227297E0,-1.694727749E0,-3.143340051E0,5.938045256E0
3.770057333E0,-5.265783731E0,-1.642978721E0,-3.050464339E0,6.303426851E0
3.780065333E0,-6.066879172E0,-1.548712834E0,-2.001124188E0,6.573433832E0
3.790072333E0,-6.134042045E0,-1.478259147E0,-1.309986660E0,6.444205690E0
3.800079333E0,-5.495732503E0,-2.284779051E0,-1.040415619E0,6.041999315E0
3.810087333E0,-4.382537248E0,-3.589465941E0,-7.769955575E-1,5.717921000E0
3.820094333E0,-2.886327733E0,-4.328647555E0,-1.448560701E-1,5.204715239E0
3.830101333E0,-1.001180145E0,-3.684974361E0,1.069779605E0,3.965580175E0
3.840109333E0,6.530708385E-1,-1.883141994E0,1.989502262E0,2.816175516E0
3.850116333E0,1.961950766E0,-2.697209483E-1,2.026988761E0,2.833846086E0
3.860124333E0,2.286188815E0,2.305679923E-1,2.425540828E0,3.341117957E0
3.870131333E0,1.975604015E0,-3.648264956E-1,2.730396525E0,3.389863534E0
3.880138333E0,1.287452222E0,-1.056184317E0,2.942886096E0,3.381366160E0
3.890146333E0,6.283090496E-1,-1.202033756E0,3.300235173E0,3.568082063E0
3.900153333E0,7.125884771E-2,-6.854088646E-1,3.767011966E0,3.829522462E0
3.910160333E0,-2.371531266E-1,1.668982458E-1,3.952148262E0,3.962773337E0
3.920168333E0,-2.175965291E-1,8.301449937E-1,3.758703657E0,3.855430215E0
3.930175333E0,-3.832235903E-1,1.051517070E0,3.292612157E0,3.477620348E0
3.940182333E0,-8.078823048E-1,8.880751133E-1,2.613249899E0,2.875834880E0
3.950190333E0,-1.112877166E0,3.707643431E-1,1.922908469E0,2.252451723E0
3.960197333E0,-9.764394057E-1,-6.667170703E-2,1.381752023E0,1.693256531E0
3.970204333E0,-4.120445162E-1,-2.676714993E-1,1.117735033E0,1.220966961E0
3.980212333E0,3.228902650E-1,-3.519304615E-1,9.169691294E-1,1.033898234E0
3.990219333E0,1.005567895E0,-2.622908914E-1,6.037682855E-1,1.201873307E0
4.000227333E0,1.492969573E0,-6.151270866E-2,2.042210233E-1,1.508127377E0
4.010234333E0,1.680820146E0,1.920412731E-1,-1.867491044E-1,1.702031563E0
4.020241333E0,1.843309591E0,5.364820361E-1,-3.419741151E-1,1.950012697E0
4.030249333E0,1.790256050E0,1.021540734E0,-4.693242793E-1,2.113960140E0
4.040256333E0,1.769583803E0,1.520604098E0,-6.533630531E-1,2.422921159E0
4.050263333E0,1.949192727E0,1.862891917E0,-6.992265661E-1,2.785432887E0
4.060271333E0,2.022968216E0,2.096180618E0,-6.114078189E-1,2.976607651E0
4.070278333E0,2.082915625E0,2.195169302E0,-4.465663312E-1,3.058876796E0
4.080285333E0,2.125833603E0,2.213331923E0,-7.788593575E-2,3.069865295E0
4.090293333E0,2.150794782E0,2.151532116E0,1.633348064E-1,3.046586106E0
4.100300333E0,2.052246394E0,2.047507226E0,1.953496277E-1,2.905539981E0
4.110307333E0,2.079521316E0,1.827296991E0,9.597035050E-2,2.769951896E0
4.120315333E0,2.029789578E0,1.567220441E0,-1.038847031E-1,2.566518590E0
4.130322333E0,1.973332956E0,1.256219319E0,-5.515003172E-1,2.403389801E0
4.140329333E0,1.876362147E0,1.026099808E0,-9.420864290E-1,2.336908762E0
4.150337333E0,1.647342498E0,9.482757068E-1,-1.305702697E0,2.306040688E0
4.160344333E0,1.382737863E0,8.789856166E-1,-1.768752037E0,2.411029548E0
4.170352333E0,9.144127268E-1,6.886102152E-1,-2.194150278E0,2.474799003E0
4.180359333E0,4.635526389E-1,6.206187916E-1,-2.442105989E0,2.562016861E0
4.190366333E0,1.357571447E-1,7.853255010E-1,-2.513150244E0,2.636492044E0
4.200374333E0,-9.438400090E-2,1.002950681E0,-2.399141526E0,2.602056585E0
4.210381333E0,-2.910451591E-1,1.153817031E0,-2.058326329E0,2.377542492E0
4.220388333E0,-5.188918573E-1,1.095589873E0,-1.456536741E0,1.895010609E0
4.230396333E0,-7.930578589E-1,6.956239504E-1,-8.401896331E-1,1.348611162E0
4.240403208E0,-9.742162943E-1,1.331931406E-1,-6.725398739E-1,1.191279851E0
4.250410208E0,-1.458749328E0,4.873069525E-3,-8.082268520E-1,1.667694214E0
4.260418208E0,-2.141674880E0,3.132072759E-1,-9.623714434E-1,2.368761044E0
4.270425208E0,-2.893084191E0,5.688989997E-1,-1.144022945E0,3.162652480E0
4.280432208E0,-3.399505692E0,5.218569803E-1,-1.551330632E0,3.773009460E0
4.290440208E0,-3.653002955E0,1.488572466E-1,-2.276536377E0,4.306879026E0
4.300447208E0,-3.611315231E0,-3.076226002E-1,-3.191588936E0,4.829334250E0
4.310454208E0,-3.307596232E0,-5.893508059E-1,-4.157622636E0,5.345404867E0
4.320462208E0,-3.119145734E0,-1.055525921E0,-4.078859764E0,5.242165779E0
4.330469208E0,-3.560908724E0,-1.751690154E0,-2.307271535E0,4.590423867E0
4.340477208E0,-4.415514960E0,-2.390279194E0,-8.157172814E-2,5.021639267E0
4.350484208E0,-4.739233775E0,-2.627914131E0,1.588170868E0,5.646995321E0
4.360491208E0,-3.757147713E0,-1.847014387E0,2.281801503E0,4.768043538E0
4.370499208E0,-2.682582089E0,-7.707805520E-1,2.560146071E0,3.787439402E0
4.380506208E0,-1.546678587E0,-1.379223686E-1,3.421639742E0,3.757506587E0
4.390513208E0,7.799133182E-2,3.040879583E-1,4.093249762E0,4.105270484E0
4.400521208E0,1.906099332E0,1.318921351E-1,4.247130936E0,4.657116210E0
4.410528208E0,3.363267573E0,-8.335042191E-1,4.005165551E0,5.296003129E0
4.420535208E0,3.824767254E0,-2.308271409E0,3.243045895E0,5.520353985E0
4.430543208E0,3.358769894E0,-3.760940802E0,2.501555800E0,5.628835789E0
4.440550208E0,2.486745388E0,-4.920785143E0,2.319557266E0,5.981502735E0
4.450557208E0,1.134097297E0,-5.532947107E0,2.398323062E0,6.136092721E0
4.460565208E0,-1.439637119E-1,-5.458276994E0,2.319703447E0,5.932498409E0
4.470572208E0,-1.000673776E0,-4.400685251E0,1.944914757E0,4.914272286E0
4.480579208E0,-1.275447303E0,-2.807314893E0,1.158919312E0,3.294066894E0
4.490587208E0,-1.209473754E0,-1.372005883E0,5.832621002E-1,1.919745187E0
4.500594208E0,-1.078701360E0,-2.832397109E-1,3.703730182E-1,1.175158513E0
4.510601208E0,-8.649218935E-1,5.190807223E-1,2.533861667E-1,1.040066934E0
4.520609208E0,-4.699670345E-1,9.124065471E-1,1.136318654E-1,1.032602015E0
4.530616208E0,-8.804737329E-2,1.199019517E0,1.569766903E-1,1.212452813E0
4.540624208E0,3.670244640E-1,1.408482569E0,1.257923198E-1,1.460942782E0
4.550631208E0,8.198895621E-1,1.540853591E0,-1.067859453E-1,1.748671473E0
4.560638208E0,1.249963383E0,1.583365188E0,-2.151822138E-1,2.028732896E0
4.570646208E0,1.695187340E0,1.568008060E0,-1.205274868E-1,2.312322700E0
4.580653208E0,2.094441656E0,1.552315303E0,-1.606230140E-2,2.607034072E0
4.590660208E0,2.471183023E0,1.404880099E0,1.203123093E-2,2.842635815E0
4.600668208E0,2.717533236E0,1.363743183E0,-6.311718464E-2,3.041178412E0
4.610675208E0,3.035435826E0,1.347527100E0,-2.627095520E-1,3.331473585E0
4.620682208E0,3.190665368E0,1.431701862E0,-4.884513257E-1,3.531104701E0
4.630690208E0,3.159921293E0,1.539457861E0,-5.772939934E-1,3.562064210E0
4.640697208E0,3.025749913E0,1.583642930E0,-6.517786769E-1,3.476766157E0
4.650704208E0,2.953465464E0,1.652437761E0,-7.561959151E-1,3.467757353E0
4.660712208E0,2.738685538E0,1.825287303E0,-9.407638619E-1,3.423026272E0
4.670719208E0,2.620567104E0,1.826144505E0,-1.215729251E0,3.417626854E0
4.680726208E0,2.566401422E0,1.637365978E0,-1.376174363E0,3.340844128E0
4.690734208E0,2.355011712E0,1.431804188E0,-1.472608983E0,3.124855295E0
4.700741208E0,2.067486577E0,1.172715232E0,-1.647499788E0,2.892061084E0
4.710748208E0,1.677098393E0,1.027340003E0,-1.732113091E0,2.620744601E0
4.720756208E0,1.236799546E0,9.513127506E-1,-1.793103790E0,2.376949783E0
4.730763208E0,7.400715601E-1,9.417613238E-1,-1.956095219E0,2.293671469E0
4.740770208E0,2.981904566E-1,1.169195793E0,-2.141292618E0,2.457858911E0
4.750778208E0,-1.244696796E-2,1.478925730E0,-2.048236958E0,2.526390880E0
4.760785208E0,-3.180066705E-1,1.724977734E0,-1.453469877E0,2.277992780E0
4.770792208E0,-9.101770037E-1,1.640633987E0,-7.613432191E-1,2.024782842E0
4.780800208E0,-1.533810035E0,1.292996551E0,-4.458889313E-1,2.055049937E0
4.790807208E0,-1.841029177E0,6.026678395E-1,-6.373864134E-1,2.039327928E0
4.800815208E0,-1.870127261E0,-6.428826499E-1,-1.195333432E0,2.310734967E0
4.810822208E0,-1.701905791E0,-1.734501094E0,-2.060973948E0,3.186313070E0
4.820829208E0,-1.745643548E0,-1.810958117E0,-3.084138454E0,3.979792796E0
4.830837208E0,-2.191159866E0,-1.350806803E0,-3.950516889E0,4.715129295E0
4.840844208E0,-3.291236308E0,-8.737295544E-1,-4.311094213E0,5.493739444E0
4.850851208E0,-4.214718651E0,-4.359613824E-1,-3.830087636E0,5.711697377E0
4.860859208E0,-4.570570255E0,-6.609160477E-1,-2.800290633E0,5.400791618E0
4.870866208E0,-4.867687163E0,-1.944179324E0,-1.628931370E0,5.488864087E0
4.880873208E0,-4.393163393E0,-3.331036550E0,-4.563670687E-1,5.532084598E0
4.890881208E0,-2.790028185E0,-4.404490035E0,9.807194944E-1,5.305242734E0
4.900888208E0,-7.686281919E-1,-5.021963609E0,2.251335316E0,5.556925273E0
4.910895208E0,8.647710353E-1,-4.746986014E0,3.033024434E0,5.699205416E0
4.920903208E0,1.873990517E0,-3.063093740E0,3.149099851E0,4.776108624E0
4.930910208E0,2.312915853E0,-5.424649072E-1,2.755306249E0,3.638070978E0
4.940917208E0,2.090358546E0,1.218489575E0,2.286804526E0,3.329232740E0
4.950925208E0,1.526295778E0,1.601984476E0,2.203453052E0,3.122681287E0
4.960932208E0,4.919800472E-1,7.445937967E-1,2.503720440E0,2.658021883E0
4.970939208E0,-3.266786760E-1,-5.475964236E-1,2.961446328E0,3.029314304E0
4.980947208E0,-9.892015386E-1,-1.565566263E0,3.618997303E0,4.065299360E0
4.990954208E0,-1.428004668E0,-1.941134679E0,4.113651282E0,4.767528505E0
5.000961208E0,-1.443565863E0,-1.701312883E0,4.288958994E0,4.834616549E0
5.010969208E0,-1.241781374E0,-1.429277022E0,3.851347527E0,4.291588466E0
5.020976208E0,-1.141296973E0,-1.220974057E0,2.804509399E0,3.264752578E0
5.030983208E0,-1.213994821E0,-1.143568617E0,1.325943273E0,2.130647359E0
5.040991208E0,-1.388745292E0,-1.084099510E0,1.057047951E-1,1.764952900E0
5.050998208E0,-1.361866812E0,-9.160476083E-1,-4.541731203E-1,1.702967309E0
5.061005208E0,-9.749957281E-1,-6.249533325E-1,-4.962759966E-1,1.259949683E0
5.071013208E0,-3.211951572E-1,-2.846108830E-1,-2.957619618E-1,5.211955696E-1
5.081020208E0,3.384994072E-1,-6.102972865E-2,-6.463629127E-2,3.499776087E-1
5.091027208E0,1.054415535E0,2.572774887E-2,1.474930912E-1,1.064992136E0
5.101035208E0,1.661707352E0,1.757105845E-1,1.691796832E-1,1.679514007E0
5.111042208E0,2.124602764E0,5.012905687E-1,1.004363807E-1,2.185249781E0
5.121049208E0,2.295103480E0,9.442557460E-1,1.387478493E-1,2.485632688E0
5.131057208E0,2.332602258E0,1.328096802E0,2.127741842E-1,2.692609750E0
5.141064208E0,2.383287093E0,1.628328522E0,2.622439675E-1,2.898324178E0
5.151072208E0,2.206823387E0,1.959401380E0,2.299259681E-1,2.960099522E0
5.161079208E0,2.169205910E0,2.178661442E0,1.244759654E-1,3.076932600E0
5.171086208E0,2.221777641E0,2.356429077E0,-1.837078214E-2,3.238732988E0
5.181094208E0,2.344886089E0,2.440524318E0,-2.114787336E-1,3.391072540E0
5.191101208E0,2.399292092E0,2.227557614E0,-3.910553509E-1,3.297201806E0
5.201108208E0,2.358825851E0,2.003882319E0,-5.618437493E-1,3.145675149E0
5.211116208E0,2.241239514E0,1.882107621E0,-7.918012923E-1,3.031902529E0
5.221123208E0,1.919894083E0,1.937019408E0,-9.834146954E-1,2.899162283E0
5.231130208E0,1.575618212E0,2.055875761E0,-1.195940373E0,2.852975862E0
5.241138458E0,1.170590939E0,2.189175906E0,-1.423011146E0,2.861421852E0
5.251145458E0,8.686389685E-1,2.139991466E0,-1.634383314E0,2.829364938E0
5.261152458E0,6.263607574E-1,1.908551069E0,-1.683829123E0,2.621101963E0
5.271160458E0,5.547113156E-1,1.449931142E0,-1.589999585E0,2.222184430E0
5.281167458E0,6.670503616E-1,1.032634072E0,-1.593666227E0,2.012724858E0
5.291174458E0,8.247667247E-1,7.070687056E-1,-1.649993187E0,1.975516090E0
5.301182458E0,7.506801635E-1,3.094562870E-1,-1.770907028E0,1.948177508E0
5.311189458E0,4.039812058E-1,1.076384693E-1,-1.714068145E0,1.764317563E0
5.321196458E0,-1.911425561E-1,6.686115682E-2,-1.621520170E0,1.634115526E0
5.331204458E0,-1.016807998E0,1.060468572E-1,-1.841132819E0,2.105923669E0
5.341211458E0,-1.828291603E0,3.275902569E-1,-1.930289848E0,2.678802803E0
5.351218458E0,-2.420208752E0,4.571265489E-1,-1.708406871E0,2.997503815E0
5.361226458E0,-2.908609133E0,4.501572526E-1,-1.531786460E0,3.317984087E0
5.371233458E0,-3.046137400E0,4.633070558E-1,-1.488823458E0,3.422017208E0
5.381240458E0,-2.970202534E0,3.811028051E-1,-1.766819386E0,3.476922947E0
5.391248458E0,-3.229715413E0,-1.068093342E-1,-2.423509651E0,4.039290644E0
5.401255458E0,-3.953142289E0,-9.160277277E-1,-2.536284753E0,4.785308883E0
5.411262458E0,-4.963609566E0,-1.858545681E0,-1.547455536E0,5.521433746E0
5.421270458E0,-5.801467037E0,-2.679219355E0,8.083147064E-2,6.390756595E0
5.431277458E0,-5.879239683E0,-2.676383455E0,1.368423733E0,6.603110719E0
5.441284458E0,-4.956537943E0,-1.933335662E0,1.939972691E0,5.662909960E0
5.451292458E0,-3.374564978E0,-8.487040561E-1,2.288384883E0,4.164695996E0
5.461299458E0,-1.153952687E0,1.508201569E-1,2.698885880E0,2.939105054E0
5.471306458E0,9.996557754E-1,5.094088429E-1,2.649811953E0,2.877553201E0
5.481314458E0,2.764320316E0,2.058658451E-1,2.147665352E0,3.506610047E0
5.491321458E0,3.228145435E0,-7.813493943E-1,1.700856069E0,3.731533357E0
5.501328458E0,2.616869325E0,-2.297466339E0,1.769940484E0,3.906282883E0
5.511336458E0,1.438902124E0,-3.955113385E0,2.331889629E0,4.811555929E0
5.521343458E0,5.089299560E-2,-5.207776428E0,2.839264079E0,5.931689973E0
5.531350458E0,-1.083436435E0,-5.544780117E0,2.835669796E0,6.321348294E0
5.541358458E0,-1.258740054E0,-4.690072725E0,2.569169494E0,5.493800194E0
5.551365458E0,-1.035857642E0,-2.902660176E0,1.937396700E0,3.640321844E0
5.561372458E0,-9.236355400E-1,-1.031223723E0,1.215359488E0,1.842179053E0
5.571380458E0,-1.216130224E0,1.863080782E-1,9.904657066E-1,1.579463750E0
5.581387458E0,-1.387595730E0,7.185157996E-1,1.093412297E0,1.907154245E0
5.591394458E0,-1.200083710E0,9.989985484E-1,1.408532270E0,2.102893760E0
5.601402458E0,-8.151702744E-1,1.424270051E0,1.691965524E0,2.357073416E0
5.611409458E0,-4.148465019E-1,1.761539204E0,1.535415680E0,2.373313991E0
5.621416458E0,3.320049047E-2,1.954118421E0,1.068071707E0,2.227208622E0
5.631424458E0,5.781808698E-1,1.998829156E0,7.055607817E-1,2.197140671E0
5.641431458E0,1.090384682E0,1.914717543E0,3.682886320E-1,2.233991616E0
5.651438458E0,1.676040632E0,1.770773712E0,7.670136295E-2,2.439392309E0
5.661446458E0,2.392012308E0,1.531122070E0,-3.875191011E-2,2.840344941E0
5.671453458E0,2.954589883E0,1.289685858E0,-5.582044423E-2,3.224283938E0
5.681460458E0,3.180357311E0,1.200264389E0,-6.926502027E-2,3.400015423E0
5.691468458E0,3.183382076E0,1.270726846E0,-2.142729717E-1,3.434323960E0
5.701475458E0,3.182466402E0,1.346473432E0,-3.046217360E-1,3.468987965E0
5.711482458E0,3.073627499E0,1.354288820E0,-3.101825843E-1,3.373054617E0
5.721490458E0,2.841116477E0,1.259651635E0,-3.851585070E-1,3.131614943E0
5.731497458E0,2.556423149E0,1.245442316E0,-4.890471569E-1,2.885410369E0
5.741504458E0,2.346489395E0,1.361938148E0,-5.889491022E-1,2.776283315E0
5.751512458E0,2.107017848E0,1.464230508E0,-7.337530589E-1,2.668686707E0
5.761519458E0,1.819039553E0,1.513727773E0,-9.781380218E-1,2.560669962E0
5.771526458E0,1.508041356E0,1.630902466E0,-1.170630115E0,2.510857712E0
5.781534458E0,1.226286253E0,1.756083167E0,-1.324038835E0,2.518071663E0
5.791541458E0,1.082737108E0,1.797691954E0,-1.449951607E0,2.550759822E0
5.801548458E0,9.223596776E-1,1.782570469E0,-1.499423729E0,2.505309636E0
5.811556458E0,6.777390718E-1,1.729421033E0,-1.554672900E0,2.422237641E0
5.821563458E0,4.109487480E-1,1.838970957E0,-1.620428349E0,2.485252721E0
5.831570458E0,3.250625056E-1,2.099800630E0,-1.565496681E0,2.639243864E0
5.841578458E0,2.867193890E-1,2.279552810E0,-1.247887475E0,2.614534791E0
5.851585458E0,2.111838877E-1,2.174001212E0,-7.986359565E-1,2.325661044E0
5.861592458E0,1.390257382E-1,1.617026439E0,-3.061386500E-1,1.651612404E0
5.871600458E0,2.848003328E-2,7.619407314E-1,-7.998362437E-2,7.666564880E-1
5.881607458E0,-6.254883528E-2,-6.659393907E-2,-2.648976532E-1,2.802104142E-1
5.891614458E0,-6.118842208E-1,-5.879515672E-1,-6.555097121E-1,1.072279034E0
5.901622458E0,-1.373662984E0,-6.843470103E-1,-1.482403215E0,2.133729158E0
5.911629458E0,-1.880238267E0,-6.632409006E-1,-2.619687098E0,3.292103419E0
5.921636458E0,-2.313499990E0,-6.651798373E-1,-3.534513223E0,4.276392188E0
5.931644458E0,-2.843614992E0,-5.509913170E-1,-3.929125435E0,4.881369105E0
5.941651458E0,-3.366805723E0,-8.301730603E-1,-3.371628506E0,4.836573877E0
5.951658458E0,-4.150642523E0,-1.758743066E0,-1.419857742E0,4.726204241E0
5.961666458E0,-4.702169445E0,-2.449994468E0,4.349567576E-1,5.319967834E0
5.971673458E0,-4.295933552E0,-2.181633582E0,1.462788584E0,5.035307400E0
5.981680458E0,-2.782349621E0,-1.244731295E0,2.225801110E0,3.774257012E0
5.991688458E0,-1.403369179E0,-5.865026271E-1,2.933668545E0,3.304518349E0
6.001695458E0,-8.537613130E-1,2.336676013E-1,3.350044679E0,3.465012017E0
6.011702458E0,-5.281918538E-1,1.591571170E0,3.416473727E0,3.805834751E0
6.021710458E0,-4.059920633E-1,2.510226637E0,3.267598354E0,4.140442769E0
6.031717458E0,-5.357944036E-1,2.029786654E0,3.143066694E0,3.779679582E0
6.041724458E0,-6.794324255E-1,4.583135337E-1,3.084698617E0,3.191715100E0
6.051732458E0,-9.285740983E-1,-8.965266788E-1,3.368951651E0,3.607747936E0
6.061739458E0,-1.287269788E0,-1.437882369E0,3.824740357E0,4.284064427E0
6.071746458E0,-1.693570585E0,-1.539742035E0,4.242105839E0,4.820212528E0
6.081754458E0,-2.083226112E0,-1.308879928E0,4.369888551E0,5.014870253E0
6.091761458E0,-2.369588821E0,-1.170088663E0,4.002097517E0,4.795919432E0
6.101768458E0,-2.502041704E0,-1.208071007E0,3.401113676E0,4.391722041E0
6.111776458E0,-2.563977166E0,-1.238927933E0,2.752458655E0,3.960422954E0
6.121783458E0,-2.367504873E0,-1.103185406E0,2.129631954E0,3.370078579E0
6.131790458E0,-1.887999861E0,-5.851314551E-1,1.684119730E0,2.596763670E0
6.141798458E0,-1.361253439E0,-1.572614497E-1,1.516212255E0,2.043683363E0
6.151805458E0,-1.018917089E0,-8.860753655E-2,1.248912638E0,1.614257138E0
6.161812458E0,-6.649874640E-1,-5.151630878E-2,1.019532143E0,1.218321816E0
6.171820458E0,-1.178389370E-1,7.820300102E-2,7.595901507E-1,7.726441105E-1
6.181827458E0,5.302980208E-1,2.474635220E-1,3.254449135E-1,6.696032985E-1
6.191834458E0,1.110027818E0,6.448660254E-1,-1.325337209E-2,1.283818367E0
6.201841458E0,1.679078261E0,1.046397833E0,-1.875475417E-1,1.987316359E0
6.211849458E0,2.046888590E0,1.313678738E0,-3.680144707E-1,2.459865724E0
6.221856458E0,2.302386187E0,1.661554155E0,-5.264520147E-1,2.887714683E0
6.231863458E0,2.463848861E0,2.029138198E0,-5.903430784E-1,3.245991064E0
6.241871375E0,2.504926136E0,2.232187439E0,-7.305915425E-1,3.433814164E0
6.251878375E0,2.398321454E0,2.418311915E0,-8.140910245E-1,3.501845586E0
6.261885375E0,2.401820428E0,2.529406673E0,-8.500297661E-1,3.590151820E0
6.271893375E0,2.355743784E0,2.537954133E0,-8.252790870E-1,3.559750768E0
6.281900375E0,2.233322384E0,2.572615843E0,-7.341443838E-1,3.484974766E0
6.291907375E0,2.183247414E0,2.619794687E0,-6.206569447E-1,3.466281655E0
6.301915375E0,2.080008389E0,2.501015518E0,-5.903243673E-1,3.306054503E0
6.311922375E0,1.880178040E0,2.454603243E0,-6.555329548E-1,3.160675561E0
6.321929375E0,1.716361862E0,2.316308407E0,-8.330082290E-1,3.000847445E0
6.331937375E0,1.559777520E0,2.074633629E0,-1.084492443E0,2.813029410E0
6.341944375E0,1.472727097E0,1.857052887E0,-1.313190642E0,2.709619934E0
6.351951375E0,1.427156237E0,1.514646370E0,-1.417281605E0,2.517859349E0
6.361959375E0,1.371012442E0,1.027476243E0,-1.451906477E0,2.245754876E0
6.371966375E0,1.229216293E0,5.108343941E-1,-1.506747805E0,2.010525658E0
6.381973375E0,9.811201018E-1,1.071818018E-1,-1.530337958E0,1.820993921E0
6.391981375E0,5.448587573E-1,-1.017789745E-1,-1.494820801E0,1.594277031E0
6.401988375E0,-5.774359345E-2,-8.963840067E-2,-1.462183836E0,1.466066484E0
6.411995375E0,-8.016889340E-1,6.893224061E-2,-1.331530433E0,1.555773151E0
6.422003375E0,-1.785164879E0,3.878808975E-1,-1.069181070E0,2.116698702E0
6.432010375E0,-2.676945373E0,8.033226460E-1,-7.434921813E-1,2.892083060E0
6.442017375E0,-3.132838159E0,8.805567634E-1,-6.703686565E-1,3.322566671E0
6.452025375E0,-3.187341226E0,4.521453059E-1,-1.115733093E0,3.407116053E0
6.462032375E0,-3.040245745E0,-7.954727590E-2,-1.875327775E0,3.572992615E0
6.472039375E0,-2.983459341E0,-5.381063926E-1,-2.925143305E0,4.212724948E0
6.482047375E0,-3.259161991E0,-1.044530817E0,-3.558288587E0,4.937063821E0
6.492054375E0,-3.727704644E0,-9.831906009E-1,-2.834500353E0,4.785064045E0
6.502061375E0,-4.234626081E0,-4.577621412E-1,-4.478521340E-1,4.282776641E0
6.512068375E0,-5.011115270E0,-7.772119045E-3,2.316193802E0,5.520515409E0
6.522076375E0,-5.120312022E0,3.420317101E-1,4.259618835E0,6.669252845E0
6.532083375E0,-4.111524650E0,6.368068081E-1,4.630076784E0,6.224770589E0
6.542090375E0,-2.499033312E0,9.522804648E-1,3.963104775E0,4.781025521E0
6.552098375E0,-7.694462174E-1,1.089712837E0,3.013072565E0,3.295167344E0
6.562105375E0,9.233162820E-1,8.404992431E-1,2.099610010E0,2.442808656E0
6.572112375E0,1.816703006E0,1.784260315E-1,1.624185185E0,2.443404014E0
6.582120375E0,1.569009688E0,-8.980229813E-1,1.829111382E0,2.571747485E0
6.592127375E0,3.886363578E-1,-2.334676266E0,2.339185638E0,3.327693035E0
6.602134375E0,-1.149377825E0,-3.595842329E0,3.053639377E0,4.855498418E0
6.612142375E0,-2.571006689E0,-4.328349931E0,3.708838602E0,6.253013058E0
6.622149375E0,-3.520115624E0,-4.246465523E0,3.707847499E0,6.646188120E0
6.632156375E0,-3.572037730E0,-3.090048235E0,2.883972475E0,5.533999356E0
6.642164375E0,-3.324013460E0,-1.211615004E0,1.743802260E0,3.944353270E0
6.652171375E0,-3.164472181E0,6.470172161E-1,8.192563087E-1,3.332220935E0
6.662178375E0,-2.837260239E0,1.917435914E0,2.242453250E-1,3.431747676E0
6.672186375E0,-2.259137256E0,2.608178608E0,-7.763757527E-2,3.451423531E0
6.682193375E0,-1.452289324E0,2.771338729E0,-1.721513844E-1,3.133544117E0
6.692200375E0,-5.547703725E-1,2.581522906E0,-2.568919379E-2,2.640585279E0
6.702208375E0,3.007357496E-1,2.348163453E0,3.443764436E-1,2.392260172E0
6.712215375E0,1.086484004E0,2.157903242E0,7.315369642E-1,2.524309851E0
6.722222375E0,1.623138533E0,2.007970108E0,1.056996496E0,2.789939828E0
6.732230375E0,2.052072147E0,1.962108641E0,1.346594469E0,3.142321925E0
6.742237375E0,2.321128852E0,1.886144539E0,1.582155399E0,3.383547853E0
6.752244375E0,2.470841546E0,1.910128064E0,1.818422087E0,3.613904544E0
6.762251375E0,2.624298213E0,2.009459394E0,1.973706594E0,3.849725429E0
6.772259375E0,2.752161616E0,1.986478082E0,2.034706501E0,3.957337398E0
6.782266375E0,2.867552324E0,1.851525514E0,1.931075129E0,3.921741222E0
6.792273375E0,3.019477605E0,1.743132169E0,1.715649086E0,3.885769750E0
6.802281375E0,2.928624153E0,1.731802019E0,1.375647529E0,3.669929671E0
6.812288375E0,2.771366211E0,1.697902202E0,9.280688989E-1,3.380037640E0
6.822295375E0,2.516048124E0,1.680183969E0,3.771763998E-1,3.048897895E0
6.832303375E0,1.873135069E0,1.780911614E0,-1.496769897E-1,2.588954300E0
6.842310375E0,1.280984616E0,2.009779236E0,-5.458095145E-1,2.445003516E0
6.852317375E0,8.159169638E-1,2.222331372E0,-9.560051411E-1,2.553120258E0
6.862325375E0,2.931524956E-1,2.308583066E0,-1.373960023E0,2.702454496E0
6.872332375E0,-1.863197726E-1,2.293120104E0,-1.644715344E0,2.828109515E0
6.882339375E0,-4.375775528E-1,2.168771462E0,-1.718888444E0,2.801717554E0
6.892347375E0,-6.323032826E-1,1.906583481E0,-1.846246648E0,2.728276873E0
6.902354375E0,-7.320930344E-1,1.607375025E0,-1.909065624E0,2.600797231E0
6.912361375E0,-7.821235657E-1,1.502163734E0,-1.812031081E0,2.480255994E0
6.922369375E0,-1.071195289E0,1.443565278E0,-1.585844553E0,2.397132247E0
6.932376375E0,-1.523379772E0,1.579053451E0,-1.118992184E0,2.462973658E0
6.942383375E0,-2.084666866E0,1.659727485E0,-6.485678977E-1,2.742475448E0
6.952391375E0,-2.545590012E0,1.534362597E0,-5.306699768E-1,3.019256152E0
6.962398375E0,-2.962047422E0,1.089436263E0,-8.193399969E-1,3.260661640E0
6.972405375E0,-3.556567751E0,6.406133455E-1,-1.412365851E0,3.879991872E0
6.982412375E0,-4.300491457E0,5.274282074E-1,-2.175932547E0,4.848411053E0
6.992420375E0,-5.063054332E0,9.189782327E-1,-2.897918669E0,5.905672932E0
7.002427375E0,-5.472353581E0,1.570028273E0,-3.185450821E0,6.523705958E0
7.012434375E0,-5.666893369E0,1.874912038E0,-2.860807561E0,6.619153685E0
7.022442375E0,-6.121954681E0,1.516304641E0,-2.218849940E0,6.685865983E0
7.032449375E0,-6.084043674E0,7.861376792E-1,-1.350707985E0,6.281561266E0
7.042456375E0,-4.799853029E0,6.641618371E-2,5.398149490E-2,4.800616024E0
7.052464375E0,-2.206015302E0,-8.038149816E-1,1.729451439E0,2.916097446E0
7.062471375E0,-7.456720233E-2,-1.501870204E0,3.048662227E0,3.399340488E0
7.072478375E0,7.209985274E-1,-2.410460274E0,3.486363741E0,4.299405743E0
7.082486375E0,1.027316029E0,-2.621588613E0,3.484245880E0,4.479740442E0
7.092493375E0,8.490233141E-1,-1.664930922E0,3.372761697E0,3.855950859E0
7.102500375E0,4.102412349E-1,-6.634186560E-1,3.255309845E0,3.347456403E0
7.112508375E0,-2.198670030E-1,-1.446519291E-1,3.280147648E0,3.290689027E0
7.122515375E0,-7.421578467E-1,-2.824082369E-1,3.384709897E0,3.476609522E0
7.132522375E0,-1.043777111E0,-6.518095940E-1,3.827579180E0,4.020533395E0
7.142529375E0,-1.604253781E0,-7.062857634E-1,4.401492167E0,4.737679081E0
7.152537375E0,-2.235368909E0,-5.625845915E-1,4.768439448E0,5.296356328E0
7.162544375E0,-2.508371900E0,-3.849327314E-1,4.795988020E0,5.426011784E0
7.172551375E0,-2.707470177E0,-4.169731343E-1,4.354743678E0,5.144711251E0
7.182559375E0,-2.901902377E0,-5.932011974E-1,3.327539331E0,4.454822450E0
7.192566375E0,-2.694353119E0,-5.161816728E-1,1.916137247E0,3.346276169E0
7.202573375E0,-2.250125527E0,-5.086843729E-2,1.017840031E0,2.470151982E0
7.212581375E0,-1.672653925E0,5.603398454E-1,5.113613744E-1,1.836638873E0
7.222588375E0,-9.294886029E-1,1.077491571E0,3.297725840E-1,1.460714588E0
7.232595375E0,-5.528191566E-2,1.309744731E0,4.566442998E-1,1.388168350E0
7.242603250E0,8.342702043E-1,1.289656037E0,6.428744638E-1,1.665084696E0
7.252610250E0,1.654650933E0,1.177291263E0,8.089703254E-1,2.185936279E0
7.262617250E0,2.299492400E0,1.144030547E0,9.607546882E-1,2.742174458E0
7.272625250E0,2.826324191E0,1.245027748E0,1.073443690E0,3.269630542E0
7.282632250E0,3.184052752E0,1.386682395E0,1.079478309E0,3.636805385E0
7.292639250E0,3.431416286E0,1.507427983E0,9.258083653E-1,3.860580006E0
7.302647250E0,3.510883455E0,1.529167346E0,7.103928477E-1,3.894780277E0
7.312654250E0,3.387279164E0,1.612255695E0,5.220782974E-1,3.787557829E0
7.322661250E0,3.249832174E0,1.699504924E0,2.699494283E-1,3.677308640E0
7.332668250E0,3.043775125E0,1.796318443E0,1.085243225E-3,3.534307306E0
7.342676250E0,2.814779449E0,1.892290547E0,-2.856109031E-1,3.403721559E0
7.352683250E0,2.496869842E0,1.931783227E0,-6.170907278E-1,3.216666972E0
7.362690250E0,2.175310988E0,1.898540636E0,-9.614379354E-1,3.043155820E0
7.372698250E0,1.867975486E0,1.860248975E0,-1.322906083E0,2.949565929E0
7.382705250E0,1.645901744E0,1.790619746E0,-1.731254135E0,2.985389842E0
7.392712250E0,1.365501441E0,1.622276654E0,-2.119395234E0,2.998034670E0
7.402720250E0,9.550923908E-1,1.513313205E0,-2.583234971E0,3.142518297E0
7.412727250E0,6.684039921E-1,1.322957100E0,-3.039335041E0,3.381499206E0
7.422734250E0,2.161160141E-1,9.918310314E-1,-3.318565901E0,3.470347903E0
7.432742250E0,-2.926940739E-1,6.626748902E-1,-3.326972443E0,3.404930758E0
7.442749250E0,-8.474118215E-1,3.990894252E-1,-3.042454239E0,3.183379801E0
7.452756250E0,-1.396827899E0,1.670403332E-1,-2.471791134E0,2.844078420E0
7.462763250E0,-1.812909333E0,-5.662151277E-2,-1.817046822E0,2.567392724E0
7.472771250E0,-2.188974177E0,-1.696879524E-1,-1.313307440E0,2.558354623E0
7.482778250E0,-2.628189535E0,6.845686197E-2,-8.662231913E-1,2.768105704E0
7.492785250E0,-3.232450156E0,4.328798997E-1,-7.397344682E-1,3.344148038E0
7.502793250E0,-3.892771541E0,7.077037132E-1,-9.231969988E-1,4.062857063E0
7.512800250E0,-4.393781444E0,7.295939344E-1,-1.352491386E0,4.654766980E0
7.522807250E0,-4.712937677E0,2.226789290E-1,-1.947621287E0,5.104370297E0
7.532815250E0,-4.813111006E0,-5.296203285E-1,-2.311007614E0,5.365378965E0
7.542822250E0,-4.954827633E0,-1.399840969E0,-1.598987778E0,5.391348025E0
7.552829250E0,-5.438706948E0,-2.298971413E0,2.646519971E-1,5.910570488E0
7.562837250E0,-5.794028209E0,-2.704306834E0,2.071186110E0,6.721149474E0
7.572844250E0,-4.925004494E0,-2.112523586E0,3.045555017E0,6.163913573E0
7.582851250E0,-3.059021155E0,-7.880701840E-1,2.866036141E0,4.265305171E0
7.592858250E0,-1.268874448E0,3.047077632E-1,2.022341687E0,2.406814302E0
7.602866250E0,2.723212051E-1,7.369795525E-1,1.377282118E0,1.585624083E0
7.612873250E0,8.589448696E-1,4.859685248E-1,1.122404473E0,1.494571342E0
7.622880250E0,7.211599106E-1,-3.492103368E-1,1.383216165E0,1.598532588E0
7.632888250E0,2.622903067E-1,-1.608115867E0,1.937952039E0,2.531894736E0
7.642895250E0,-2.010389686E-1,-2.913523133E0,2.479724636E0,3.831196678E0
7.652902250E0,-6.157895762E-1,-3.913295268E0,2.816488005E0,4.860625612E0
7.662910250E0,-5.284064466E-1,-4.314806026E0,2.874291240E0,5.211363981E0
7.672917250E0,-1.738552630E-2,-4.092054591E0,2.784739378E0,4.949746098E0
7.682924250E0,3.384415197E-1,-3.456193863E0,2.479682536E0,4.267158792E0
7.692932250E0,4.595584059E-1,-2.499612771E0,2.029976689E0,3.252700922E0
7.702939250E0,5.220850217E-1,-1.419521527E0,1.546642773E0,2.163265588E0
7.712946250E0,7.474998629E-1,-4.884705484E-1,1.101000156E0,1.417589808E0
7.722953250E0,9.936612099E-1,2.754997516E-1,8.938017301E-1,1.364604062E0
7.732961250E0,1.233425703E0,8.754831344E-1,1.014590295E0,1.821319069E0
7.742968250E0,1.427816387E0,1.319499056E0,1.267948980E0,2.321084232E0
7.752975250E0,1.724085449E0,1.609246134E0,1.524504045E0,2.808247912E0
7.762983250E0,2.042694967E0,1.802215360E0,1.738299007E0,3.231449577E0
7.772990250E0,2.159536369E0,1.754461150E0,1.815951054E0,3.322560682E0
7.782997250E0,2.203662382E0,1.655411071E0,1.824417676E0,3.305300828E0
7.793005250E0,2.279113099E0,1.715492966E0,1.632291180E0,3.286585938E0
7.803012250E0,2.246506101E0,1.818153116E0,1.103650187E0,3.093624759E0
7.813019250E0,2.297985572E0,1.899036480E0,5.075207039E-1,3.024012981E0
7.823026250E0,2.496501467E0,2.043964983E0,-2.054485001E-2,3.226566986E0
7.833034250E0,2.653679302E0,2.160563725E0,-5.183930898E-1,3.461037538E0
7.843041250E0,2.870732625E0,2.279606604E0,-8.424434423E-1,3.761306026E0
7.853048250E0,2.988347028E0,2.409620613E0,-1.002484658E0,3.967551506E0
7.863056250E0,2.987305055E0,2.500074701E0,-1.204692632E0,4.077456233E0
7.873063250E0,2.871673442E0,2.484220560E0,-1.477727782E0,4.074498686E0
7.883070250E0,2.579871653E0,2.392730931E0,-1.715295330E0,3.914477886E0
7.893078250E0,2.197547949E0,2.292622506E0,-1.853873756E0,3.677252078E0
7.903085250E0,1.987692549E0,2.143640129E0,-1.925458294E0,3.500500580E0
7.913092250E0,1.563788710E0,2.075873238E0,-1.842212069E0,3.185660079E0
7.923100250E0,1.161806667E0,2.106085217E0,-1.783146420E0,2.994161123E0
7.933107250E0,8.904707175E-1,2.116492091E0,-1.658387303E0,2.832441583E0
7.943114250E0,6.920232350E-1,2.091608680E0,-1.562960598E0,2.701216182E0
7.953121250E0,5.418468565E-1,1.955700093E0,-1.544106397E0,2.550024595E0
7.963129250E0,2.659915942E-1,1.630346396E0,-1.480869344E0,2.218502854E0
7.973136250E0,-5.707408726E-2,1.172177289E0,-1.233441491E0,1.702537799E0
7.983143250E0,-4.102342182E-1,5.760682708E-1,-9.641754556E-1,1.195734534E0
7.993151250E0,-8.117291880E-1,-7.259259760E-2,-7.571372437E-1,1.112398654E0
8.003158250E0,-1.346278135E0,-7.591902012E-1,-7.523437694E-1,1.718969379E0
8.013165250E0,-2.000996718E0,-1.412158713E0,-1.123948357E0,2.694705923E0
8.023173250E0,-2.594418941E0,-1.621279703E0,-1.818313329E0,3.558907259E0
8.033180250E0,-3.291843833E0,-1.232035235E0,-2.596067271E0,4.369635216E0
8.043187250E0,-4.184317222E0,-6.507494938E-1,-3.245970088E0,5.335570010E0
8.053194250E0,-5.082952992E0,-6.037010425E-1,-3.325870535E0,6.104283814E0
8.063202250E0,-5.991719062E0,-1.213732281E0,-2.684459045E0,6.676837854E0
8.073209250E0,-6.326903098E0,-2.151498202E0,-1.371997697E0,6.822098285E0
8.083216250E0,-5.473960980E0,-2.851910437E0,-1.150274496E-1,6.173400462E0
8.093224250E0,-3.229715998E0,-2.974183903E0,1.163073174E0,4.541979141E0
8.103231250E0,-1.108191792E0,-2.776108888E0,2.362464720E0,3.810001202E0
8.113238250E0,1.122694641E-1,-2.154562728E0,2.693214666E0,3.450818775E0
8.123246250E0,7.109740609E-1,-9.090905911E-1,2.559613974E0,2.807766642E0
8.133253250E0,8.930230272E-1,-1.948350728E-1,2.488336708E0,2.650899923E0
8.143260250E0,2.583106917E-1,-8.194399112E-1,2.617995499E0,2.755377762E0
8.153267250E0,-7.111301816E-1,-1.622657892E0,2.940695145E0,3.433134530E0
8.163275250E0,-1.229295815E0,-1.929498720E0,3.249747974E0,3.974291811E0
8.173282250E0,-1.352688437E0,-1.796963975E0,3.635106967E0,4.274675216E0
8.183289250E0,-1.567161968E0,-1.284161993E0,4.050577952E0,4.529045198E0
8.193297250E0,-1.741887882E0,-5.446476728E-1,4.326253120E0,4.695453177E0
8.203304250E0,-1.815454625E0,-5.011063814E-3,4.132513815E0,4.513709233E0
8.213311250E0,-1.746632897E0,8.268606126E-2,3.389109342E0,3.813610572E0
8.223319250E0,-1.570750405E0,-6.996368945E-2,2.248045673E0,2.743330293E0
8.233326250E0,-1.284478328E0,-1.093926340E-1,1.416483606E0,1.915274688E0
8.243333000E0,-8.310881495E-1,-8.763280571E-2,9.947739351E-1,1.299215995E0
8.253340000E0,-2.524611372E-1,-5.194315553E-2,7.771562098E-1,8.187835438E-1
8.263348000E0,4.055693096E-1,2.380226076E-2,7.361112410E-1,8.407810486E-1
8.273355000E0,1.122736741E0,1.327464134E-1,7.875736092E-1,1.377835836E0
8.283362000E0,1.827037375E0,2.918818957E-1,8.011756946E-1,2.016220004E0
8.293370000E0,2.370427312E0,4.563512081E-1,7.083404750E-1,2.515736134E0
8.303377000E0,2.825604399E0,6.157737887E-1,6.215093225E-1,2.957953924E0
8.313384000E0,3.221601816E0,7.167610502E-1,5.043075858E-1,3.338680998E0
8.323392000E0,3.465043039E0,8.310109663E-1,3.331696701E-1,3.578841225E0
8.333399000E0,3.566392243E0,1.000122968E0,1.186752351E-1,3.705871475E0
8.343406000E0,3.531189666E0,1.165686294E0,9.102506787E-3,3.718629835E0
8.353413000E0,3.402396555E0,1.329361555E0,6.831360519E-2,3.653514912E0
8.363421000E0,3.239130599E0,1.464115317E0,4.838337064E-2,3.554988278E0
8.373428000E0,3.010112119E0,1.537377421E0,-5.828606889E-2,3.380488363E0
8.383435000E0,2.770993744E0,1.624432522E0,-2.137354665E-1,3.219141220E0
8.393443000E0,2.578893414E0,1.705909379E0,-4.327677794E-1,3.122195702E0
8.403450000E0,2.377949170E0,1.725884637E0,-7.602761753E-1,3.035018929E0
8.413457000E0,2.111452376E0,1.706564267E0,-1.203016673E0,2.969485116E0
8.423465000E0,1.879307390E0,1.627922725E0,-1.642111725E0,2.979674409E0
8.433472000E0,1.533548080E0,1.465943742E0,-2.104007117E0,2.987910091E0
8.443479000E0,1.254877968E0,1.311241618E0,-2.426407677E0,3.030103548E0
8.453486000E0,1.005239282E0,1.133006791E0,-2.513092649E0,2.934253749E0
8.463494000E0,7.709828657E-1,1.008967466E0,-2.375081695E0,2.693221674E0
8.473501000E0,5.115191031E-1,8.996403211E-1,-2.188929738E0,2.421243048E0
8.483508000E0,2.266065037E-1,5.603000844E-1,-1.945075994E0,2.036813029E0
8.493516000E0,-1.537197912E-1,6.522218227E-2,-1.682134600E0,1.690402473E0
8.503523000E0,-5.979046977E-1,-2.904347098E-1,-1.554854749E0,1.690980673E0
8.513530000E0,-1.171259276E0,-3.037137365E-1,-1.511838537E0,1.936426112E0
8.523537000E0,-2.059048460E0,2.965123057E-3,-1.471962866E0,2.531079618E0
8.533545000E0,-3.105838641E0,4.369174021E-1,-1.340105960E0,3.410720520E0
8.543552000E0,-3.891717873E0,6.371424383E-1,-1.201345539E0,4.122456743E0
8.553559000E0,-4.231877305E0,6.010516691E-1,-1.486953665E0,4.525602704E0
8.563567000E0,-4.163454357E0,3.978433836E-1,-2.115819954E0,4.687144719E0
8.573574000E0,-4.058985078E0,-8.110672832E-2,-2.601453433E0,4.821773339E0
8.583581000E0,-4.336110941E0,-7.513736433E-1,-2.411903951E0,5.018336488E0
8.593589000E0,-5.015017117E0,-1.429519681E0,-1.255783409E0,5.363852643E0
8.603596000E0,-5.451777813E0,-2.128522738E0,2.877920607E-1,5.859634344E0
8.613603000E0,-5.073787481E0,-2.484933336E0,1.526575567E0,5.852234279E0
8.623610000E0,-3.567602032E0,-1.954166368E0,2.075220104E0,4.566518251E0
8.633618000E0,-1.562052671E0,-6.859199113E-1,1.929997341E0,2.575923991E0
8.643625000E0,1.150930846E-1,3.946548969E-1,1.271658161E0,1.336455530E0
8.653632000E0,1.483574851E0,5.431215495E-1,9.736736727E-1,1.855805964E0
8.663640000E0,2.290987625E0,-1.686132342E-1,1.138044752E0,2.563630351E0
8.673647000E0,2.133336750E0,-1.577713269E0,1.509987309E0,3.052927533E0
8.683654000E0,1.311380782E0,-3.117355317E0,2.091959513E0,3.976671766E0
8.693662000E0,5.103221780E-1,-4.427984147E0,2.777033333E0,5.251607988E0
8.703669000E0,9.427582741E-2,-5.435388653E0,3.243719494E0,6.330407088E0
8.713676000E0,1.449115455E-1,-5.984790112E0,3.399140241E0,6.884247701E0
8.723683000E0,3.146521229E-1,-5.883404655E0,3.108301488E0,6.661455879E0
8.733691000E0,4.716907936E-1,-4.810603720E0,2.253675957E0,5.333240635E0
8.743698000E0,2.942611277E-1,-3.089396271E0,1.368743137E0,3.391816136E0
8.753705000E0,-1.123191655E-2,-1.738095962E0,7.700689459E-1,1.901081248E0
8.763713000E0,-1.448554122E-1,-8.901742637E-1,6.130676973E-1,1.090525246E0
8.773720000E0,7.484494507E-2,-2.949154311E-1,8.333228092E-1,8.871323360E-1
8.783727000E0,4.409087116E-1,2.235981113E-1,1.117227349E0,1.221717461E0
8.793734000E0,7.816592968E-1,6.852936745E-1,1.344395331E0,1.699416807E0
8.803742000E0,1.143788472E0,1.013627113E0,1.329200757E0,2.025454676E0
8.813749000E0,1.502539710E0,1.305512516E0,1.124117781E0,2.285963538E0
8.823756000E0,1.922918263E0,1.541228397E0,8.284159720E-1,2.599860120E0
8.833764000E0,2.279076262E0,1.774019501E0,4.566827452E-1,2.924019994E0
8.843771000E0,2.536676517E0,2.015092601E0,1.476784480E-1,3.243013238E0
8.853778000E0,2.786592361E0,2.130845252E0,-5.527263321E-2,3.508369071E0
8.863785000E0,2.976476596E0,2.136809412E0,-1.357337558E-1,3.666577565E0
8.873793000E0,3.188548091E0,2.025738042E0,-2.256416401E-1,3.784358293E0
8.883800000E0,3.406464463E0,1.821998245E0,-4.036467451E-1,3.884148354E0
8.893807000E0,3.522550405E0,1.648151752E0,-5.112150478E-1,3.922512763E0
8.903815000E0,3.602002956E0,1.477419487E0,-6.224583256E-1,3.942670161E0
8.913822000E0,3.694884222E0,1.362736292E0,-6.820157254E-1,3.996794349E0
8.923829000E0,3.629328749E0,1.379730640E0,-7.132106940E-1,3.947702281E0
8.933836000E0,3.417232695E0,1.472010228E0,-7.786528046E-1,3.801393639E0
8.943844000E0,3.087195379E0,1.561928126E0,-8.897866664E-1,3.572410263E0
8.953851000E0,2.631350539E0,1.581460165E0,-1.049517980E0,3.244458338E0
8.963858000E0,2.075289102E0,1.614817361E0,-1.213623011E0,2.896090602E0
8.973866000E0,1.542352232E0,1.589289587E0,-1.380726421E0,2.609807895E0
8.983873000E0,1.038209392E0,1.602698421E0,-1.488944349E0,2.421461593E0
8.993880000E0,6.913660079E-1,1.653741106E0,-1.563835487E0,2.378745054E0
9.003888000E0,4.964636922E-1,1.748318650E0,-1.590204091E0,2.414920982E0
9.013895000E0,2.556098628E-1,1.855516239E0,-1.345133834E0,2.306005626E0
9.023902000E0,-2.012991697E-1,1.656820834E0,-8.967572053E-1,1.894663590E0
9.033909000E0,-6.878804827E-1,1.196971237E0,-6.046490224E-1,1.507156309E0
9.043917000E0,-1.164929080E0,5.318785232E-1,-6.823591031E-1,1.451057708E0
9.053924000E0,-1.419509833E0,-2.098489684E-1,-9.457296829E-1,1.718560266E0
9.063931000E0,-1.602100251E0,-1.034713342E0,-1.180055827E0,2.242741329E0
9.073939000E0,-1.938867713E0,-1.592552918E0,-1.472625940E0,2.909305753E0
9.083946000E0,-2.381466855E0,-1.642051352E0,-1.919177068E0,3.471448926E0
9.093953000E0,-3.111750176E0,-1.245689653E0,-2.520178890E0,4.193570496E0
9.103960000E0,-4.004538145E0,-6.650786805E-1,-3.157249700E0,5.142653116E0
9.113968000E0,-4.833826522E0,-5.528969246E-1,-3.493209661E0,5.989498108E0
9.123975000E0,-5.582079506E0,-1.093727535E0,-3.258082595E0,6.555223393E0
9.133982000E0,-5.859865519E0,-1.953806764E0,-2.062063285E0,6.512103328E0
9.143990000E0,-5.217594488E0,-2.844822443E0,-3.404987164E-1,5.952499168E0
9.153997000E0,-3.540279747E0,-3.365267905E0,9.793209136E-1,4.981734458E0
9.164004000E0,-1.578503813E0,-3.274804462E0,1.626556231E0,3.982675448E0
9.174011000E0,-1.209765530E-1,-2.928166316E0,1.570935323E0,3.325151288E0
9.184019000E0,7.869621366E-1,-2.100378919E0,1.379473947E0,2.633220344E0
9.194026000E0,1.141342582E0,-8.754708552E-1,1.356008925E0,1.976833911E0
9.204033000E0,9.962801778E-1,-1.477907145E-1,1.377019725E0,1.706047951E0
9.214041000E0,4.384008408E-1,-5.365212125E-1,1.516146620E0,1.666958572E0
9.224048000E0,-7.831117451E-2,-1.248764704E0,1.764946961E0,2.163465669E0
9.234055000E0,-1.741827071E-1,-1.683338542E0,2.130052662E0,2.720494919E0
9.244062458E0,-1.893667567E-1,-1.633261818E0,2.526736250E0,3.014597819E0
9.254070458E0,-3.140118527E-1,-1.151873417E0,2.912372401E0,3.147590954E0
9.264077458E0,-5.739007080E-1,-5.818622768E-1,3.188260993E0,3.291342263E0
9.274084458E0,-8.745727229E-1,-4.055201930E-1,3.281007189E0,3.419697683E0
9.284092458E0,-9.825468224E-1,-5.441155761E-1,2.932447062E0,3.140176076E0
9.294099458E0,-9.156540906E-1,-6.527685374E-1,2.030159122E0,2.320791942E0
9.304106458E0,-7.033913916E-1,-6.591998899E-1,1.176763991E0,1.521209201E0
9.314113458E0,-5.088358158E-1,-5.489015222E-1,8.311682564E-1,1.118502320E0
9.324121458E0,-1.923856741E-1,-4.367022246E-1,6.923734832E-1,8.408936442E-1
9.334128458E0,2.387394762E-1,-3.671893555E-1,6.307526010E-1,7.679019495E-1
9.344135458E0,7.567168289E-1,-2.827976614E-1,5.695920409E-1,9.884482635E-1
9.354143458E0,1.282646980E0,-1.245585573E-1,5.722136401E-1,1.410009418E0
9.364150458E0,1.779690716E0,7.910522640E-2,6.045241843E-1,1.881224646E0
9.374157458E0,2.210344580E0,2.862095118E-1,5.540996969E-1,2.296642228E0
9.384164458E0,2.601697555E0,4.574773818E-1,4.558559489E-1,2.680656704E0
9.394172458E0,2.920822797E0,6.157387054E-1,4.091836198E-1,3.012933986E0
9.404179458E0,3.149706792E0,7.460152549E-1,2.955576016E-1,3.250314743E0
9.414186458E0,3.103902043E0,8.755825371E-1,3.068273789E-1,3.239598079E0
9.424194458E0,3.087352084E0,1.013156412E0,3.759910230E-1,3.271024007E0
9.434201458E0,2.968736052E0,1.118906230E0,3.739421587E-1,3.194554372E0
9.444208458E0,2.886851644E0,1.213987219E0,3.510045549E-1,3.151330129E0
9.454215458E0,2.818060906E0,1.259666253E0,1.541887379E-1,3.090631085E0
9.464223458E0,2.663155299E0,1.257782280E0,-2.000380714E-1,2.952020942E0
9.474230458E0,2.560667642E0,1.269715278E0,-6.363268979E-1,2.928157711E0
9.484237458E0,2.411638488E0,1.246027622E0,-1.012045148E0,2.897036488E0
9.494245458E0,2.135964489E0,1.228631571E0,-1.412078168E0,2.840043061E0
9.504252458E0,1.860803291E0,1.141160733E0,-1.822646701E0,2.843743607E0
9.514259458E0,1.554885154E0,9.313041633E-1,-2.160090685E0,2.819749467E0
9.524266458E0,1.181821101E0,7.618091691E-1,-2.336769569E0,2.727186525E0
9.534274458E0,9.033094490E-1,7.098800468E-1,-2.287943272E0,2.560191801E0
9.544281458E0,7.817078286E-1,6.771186823E-1,-2.104840930E0,2.345189156E0
9.554288458E0,5.846625084E-1,5.695784461E-1,-1.956089664E0,2.119560480E0
9.564296458E0,2.232864547E-1,3.579086548E-1,-1.771179070E0,1.820722588E0
9.574303458E0,-2.744016445E-1,9.270760417E-2,-1.564528236E0,1.591112681E0
9.584310458E0,-8.872588420E-1,-1.584688997E-1,-1.418713588E0,1.680800074E0
9.594317458E0,-1.601869286E0,-1.466195172E-1,-1.491826442E0,2.193861579E0
9.604325458E0,-2.376293823E0,5.914809465E-2,-1.531779589E0,2.827829475E0
9.614332458E0,-3.238627739E0,2.678521782E-1,-1.414358436E0,3.544130952E0
9.624339458E0,-3.900255978E0,3.028962958E-1,-1.210764819E0,4.095081721E0
9.634347458E0,-4.116381347E0,1.130559146E-1,-1.185875561E0,4.285286208E0
9.644354458E0,-4.035448866E0,-2.220719880E-1,-1.416927118E0,4.282738140E0
9.654361458E0,-3.931273118E0,-6.960426110E-1,-1.655023985E0,4.321861640E0
9.664368458E0,-4.323443533E0,-1.420100986E0,-1.410475885E0,4.764272559E0
9.674376458E0,-4.956815102E0,-2.312892464E0,-6.429408297E-1,5.507527613E0
9.684383458E0,-4.976717269E0,-3.082416449E0,1.348651519E-1,5.855526838E0
9.694390458E0,-4.336365879E0,-2.958096458E0,7.387559366E-1,5.300958784E0
9.704398458E0,-3.125439093E0,-1.808516319E0,1.097743110E0,3.774141059E0
9.714405458E0,-1.590462538E0,-5.025681853E-1,1.239188573E0,2.077915827E0
9.724412458E0,-2.949318033E-1,2.191635829E-1,1.224272472E0,1.278225539E0
9.734419458E0,7.443002665E-1,3.153473568E-1,9.731706659E-1,1.265103943E0
9.744427458E0,1.297043409E0,-3.558627141E-1,8.635517447E-1,1.598337102E0
9.754434458E0,1.210319261E0,-1.548242717E0,1.045504378E0,2.225984643E0
9.764441458E0,9.576248199E-1,-2.761654571E0,1.517287996E0,3.293318103E0
9.774448458E0,6.819806421E-1,-3.901745263E0,2.239803876E0,4.550322527E0
9.784456458E0,6.579684663E-1,-4.732270911E0,2.700262899E0,5.488053407E0
9.794463458E0,9.042064118E-1,-5.090973033E0,2.664641662E0,5.816864348E0
9.804470458E0,1.040962261E0,-4.735817247E0,2.273007875E0,5.355196749E0
9.814478458E0,9.158774543E-1,-3.604247702E0,1.714822290E0,4.095124967E0
9.824485458E0,5.134989703E-1,-2.219629959E0,1.121142936E0,2.539173060E0
9.834492458E0,1.846451300E-1,-1.197341951E0,7.005508143E-1,1.399461687E0
9.844499458E0,1.501114744E-1,-5.534272671E-1,6.602838175E-1,8.745226780E-1
9.854507458E0,4.710820985E-1,-1.270126337E-1,8.858062474E-1,1.011287922E0
9.864514458E0,8.672233576E-1,3.318207175E-1,1.177339064E0,1.499436098E0
9.874521458E0,1.204964966E0,7.636282378E-1,1.332036510E0,1.951765846E0
9.884528458E0,1.416039510E0,1.053128563E0,1.224374213E0,2.147868683E0
9.894536458E0,1.643075784E0,1.274325222E0,8.802256648E-1,2.257963690E0
9.904543458E0,1.864730866E0,1.461244919E0,4.983638911E-1,2.420913977E0
9.914550458E0,2.040441450E0,1.633890393E0,9.324452475E-2,2.615663142E0
9.924558458E0,2.256758024E0,1.782369910E0,-2.381852333E-1,2.885572990E0
9.934565458E0,2.400643383E0,1.873546128E0,-4.148926950E-1,3.073336899E0
9.944572458E0,2.599727043E0,1.845592344E0,-4.834290791E-1,3.224669824E0
9.954579458E0,2.865166660E0,1.777983329E0,-4.876355660E-1,3.407079857E0
9.964587458E0,3.169853373E0,1.702071851E0,-5.189766419E-1,3.635155533E0
9.974594458E0,3.334207495E0,1.576637966E0,-5.182890093E-1,3.724426183E0
9.984601458E0,3.352076586E0,1.414281253E0,-5.507480729E-1,3.679664705E0
9.994609458E0,3.263958462E0,1.375203141E0,-6.350777864E-1,3.598323542E0
1.000461646E1,3.003211820E0,1.400374235E0,-8.492706513E-1,3.420758669E0
1.001462346E1,2.749081303E0,1.505369178E0,-1.190684969E0,3.352807043E0
1.002463046E1,2.368084332E0,1.568110387E0,-1.455843261E0,3.191594146E0
1.003463846E1,1.967398033E0,1.566334587E0,-1.583961604E0,2.972035232E0
1.004464546E1,1.543525184E0,1.445001939E0,-1.634682106E0,2.672580436E0
1.005465246E1,1.190529360E0,1.313251306E0,-1.701328086E0,2.456930281E0
1.006466046E1,9.399545342E-1,1.254376277E0,-1.694455415E0,2.308279342E0
1.007466746E1,8.165443701E-1,1.295842976E0,-1.759992031E0,2.333136446E0
1.008467446E1,6.815233898E-1,1.391925008E0,-1.784213537E0,2.363333939E0
1.009468146E1,5.084750426E-1,1.324288511E0,-1.655994038E0,2.180505258E0
1.010468946E1,1.770928663E-1,1.117744973E0,-1.329663856E0,1.746058899E0
1.011469646E1,-2.255586827E-1,7.524717504E-1,-9.882080966E-1,1.262396806E0
1.012470346E1,-5.680955923E-1,2.855838597E-1,-7.041759418E-1,9.487647231E-1
1.013471046E1,-8.452349031E-1,-4.480873382E-1,-5.392734969E-1,1.098189514E0
1.014471846E1,-1.316374889E0,-1.435463961E0,-4.984980847E-1,2.010447704E0
1.015472546E1,-2.006191970E0,-2.338677515E0,-9.102430773E-1,3.212905414E0
1.016473246E1,-2.451489601E0,-2.390207273E0,-1.833911362E0,3.884085858E0
1.017474046E1,-2.722978163E0,-1.731631281E0,-2.726913339E0,4.224832935E0
1.018474746E1,-3.296368994E0,-8.884592754E-1,-3.172271197E0,4.660333998E0
1.019475446E1,-4.130829817E0,-3.025787920E-1,-3.276543424E0,5.281197375E0
1.020476146E1,-4.996438758E0,-4.653220063E-1,-3.143947869E0,5.921598858E0
1.021476946E1,-5.403212594E0,-1.176801267E0,-2.521203614E0,6.077502384E0
1.022477646E1,-4.991460439E0,-2.220080194E0,-1.037142714E0,5.560494438E0
1.023478346E1,-3.730572703E0,-3.351829249E0,4.877139187E-1,5.038828919E0
1.024479000E1,-2.152854171E0,-3.796523448E0,1.392664681E0,4.581253790E0
1.025479800E1,-6.372763395E-1,-3.797594073E0,1.651819711E0,4.190029861E0
1.026480500E1,4.131660122E-1,-3.386217894E0,1.809230411E0,3.861410682E0
1.027481200E1,1.290177609E0,-2.162262341E0,1.899609654E0,3.154116918E0
1.028482000E1,1.631062680E0,-3.467901742E-1,1.974628115E0,2.584528019E0
1.029482700E1,1.353801162E0,9.543503791E-1,1.985953002E0,2.586033944E0
1.030483400E1,6.381966913E-1,1.067142000E0,2.238199546E0,2.560395335E0
1.031484100E1,-2.185396850E-1,3.509095377E-1,2.520035341E0,2.553717920E0
1.032484900E1,-6.728888065E-1,-5.005368626E-1,2.887206570E0,3.006539252E0
1.033485600E1,-6.318395984E-1,-8.988304818E-1,3.459541394E0,3.629813241E0
1.034486300E1,-5.924989468E-1,-8.168577808E-1,3.725724192E0,3.859965335E0
1.035487000E1,-5.589639956E-1,-7.028376603E-1,3.574042740E0,3.685132702E0
1.036487800E1,-5.014431810E-1,-8.055796713E-1,2.925976533E0,3.075994562E0
1.037488500E1,-3.279416746E-1,-9.661214089E-1,1.946417784E0,2.197607451E0
1.038489200E1,-1.373002249E-1,-9.128240383E-1,9.240958621E-1,1.306159347E0
1.039490000E1,9.200126052E-2,-5.964920104E-1,3.030179179E-1,6.753419940E-1
1.040490700E1,2.330331784E-1,-3.561866498E-1,1.883914411E-1,4.654725844E-1
1.041491400E1,4.829297268E-1,-3.380322146E-1,2.263234985E-1,6.314342604E-1
1.042492100E1,8.897643739E-1,-3.055684733E-1,3.733264469E-1,1.012139007E0
1.043492900E1,1.421569807E0,-1.159964794E-1,4.286744361E-1,1.489321212E0
1.044493600E1,1.859940827E0,1.005580759E-1,4.099225616E-1,1.907230535E0
1.045494300E1,2.175086455E0,3.779347837E-1,4.708223359E-1,2.257323517E0
1.046495000E1,2.463102171E0,6.348965228E-1,4.826781504E-1,2.589004461E0
1.047495800E1,2.657933151E0,8.169595224E-1,4.135020809E-1,2.811230241E0
1.048496500E1,2.749794663E0,9.596304148E-1,3.340162008E-1,2.931523161E0
1.049497200E1,2.795433351E0,1.058205700E0,1.806580599E-1,2.994475623E0
1.050498000E1,2.662551867E0,1.144240462E0,6.022690594E-2,2.898636914E0
1.051498700E1,2.595225272E0,1.259370384E0,-1.392338991E-2,2.884684009E0
1.052499400E1,2.521362074E0,1.297303610E0,-2.117728485E-1,2.843432979E0
1.053500100E1,2.447750307E0,1.315843377E0,-5.394841428E-1,2.830895353E0
1.054500900E1,2.310896224E0,1.333460453E0,-8.226424313E-1,2.791970399E0
1.055501600E1,2.061900732E0,1.345176519E0,-1.148595468E0,2.716653464E0
1.056502300E1,1.750616021E0,1.382720906E0,-1.588199812E0,2.738421479E0
1.057503000E1,1.368350204E0,1.465333292E0,-2.049916279E0,2.867357789E0
1.058503800E1,1.035666438E0,1.580122907E0,-2.323772378E0,2.994880872E0
1.059504500E1,7.296073830E-1,1.579056959E0,-2.342657715E0,2.917840466E0
1.060505200E1,5.014683241E-1,1.380554513E0,-2.283681529E0,2.715253684E0
1.061505900E1,4.642706770E-1,1.017403244E0,-2.079410219E0,2.361059822E0
1.062506700E1,5.883784139E-1,5.771441585E-1,-1.709582600E0,1.897882295E0
1.063507400E1,5.748573124E-1,1.783336455E-1,-1.518262581E0,1.633213116E0
1.064508100E1,3.038078767E-1,-1.354443187E-1,-1.334286957E0,1.375124021E0
1.065508900E1,-1.528356922E-1,-3.493372214E-1,-1.110601576E0,1.174236392E0
1.066509600E1,-6.492613775E-1,-4.527393830E-1,-1.118778469E0,1.370466544E0
1.067510300E1,-1.199484955E0,-3.471661502E-1,-1.311485740E0,1.810879162E0
1.068511000E1,-1.891647938E0,-1.088353944E-1,-1.368518604E0,2.337310471E0
1.069511800E1,-2.687363357E0,5.979772031E-2,-1.207110455E0,2.946627433E0
1.070512500E1,-3.315809231E0,1.254479188E-1,-9.059893741E-1,3.439643119E0
1.071513200E1,-3.504803520E0,6.406794190E-3,-9.156706090E-1,3.622449645E0
1.072513900E1,-3.485011865E0,-2.175023890E-1,-1.339997202E0,3.740081214E0
1.073514700E1,-3.719068306E0,-6.380312151E-1,-1.965223453E0,4.254486587E0
1.074515400E1,-4.335149074E0,-1.273789617E0,-2.145080883E0,5.001742644E0
1.075516100E1,-5.044579470E0,-2.035819227E0,-1.480995791E0,5.637879963E0
1.076516800E1,-5.214048151E0,-2.650252249E0,-4.196312785E-1,5.863976937E0
1.077517600E1,-4.528969070E0,-2.475174333E0,5.790358789E-1,5.193585598E0
1.078518300E1,-2.932969218E0,-1.487231115E0,1.048887285E0,3.451713975E0
1.079519000E1,-1.192330887E0,-1.413055676E-1,1.018400048E0,1.574407465E0
1.080519800E1,1.226745844E-3,7.475583351E-1,9.416781472E-1,1.202332193E0
1.081520500E1,1.056329328E0,9.276917535E-1,7.682159632E-1,1.602060987E0
1.082521200E1,1.792277432E0,5.354657900E-1,7.909411669E-1,2.030903724E0
1.083521900E1,2.215271444E0,-3.989280421E-1,1.162737544E0,2.533481745E0
1.084522700E1,2.184094675E0,-1.783705999E0,1.635989982E0,3.260113474E0
1.085523400E1,1.725981701E0,-3.038719622E0,2.360119694E0,4.216988824E0
1.086524100E1,1.384621836E0,-4.063052986E0,3.204820892E0,5.356907144E0
1.087524800E1,1.140205883E0,-4.598257990E0,3.767260473E0,6.052792535E0
1.088525600E1,9.711266255E-1,-4.498231426E0,3.753690255E0,5.938633127E0
1.089526300E1,4.754546463E-1,-3.736339812E0,3.058403689E0,4.851816715E0
1.090527000E1,-2.343622506E-1,-2.280586013E0,2.054052014E0,3.078169570E0
1.091527800E1,-6.681443757E-1,-9.567032987E-1,1.334434599E0,1.772685479E0
1.092528500E1,-7.321953607E-1,-2.188495874E-2,1.032431612E0,1.265900482E0
1.093529200E1,-4.932792985E-1,4.949931175E-1,8.700423002E-1,1.115937389E0
1.094529900E1,-1.263565761E-1,7.928374189E-1,7.047672415E-1,1.068294913E0
1.095530700E1,1.194556922E-1,1.074772616E0,5.319171149E-1,1.205131385E0
1.096531400E1,4.059791994E-1,1.271337880E0,3.202776559E-1,1.372478376E0
1.097532100E1,6.874179679E-1,1.412432948E0,3.561239384E-2,1.571234717E0
1.098532800E1,9.882168674E-1,1.466680491E0,-2.531341517E-1,1.786561261E0
1.099533600E1,1.256460224E0,1.549563019E0,-4.480119091E-1,2.044639948E0
1.100534300E1,1.572641979E0,1.659814609E0,-4.913158035E-1,2.338713011E0
1.101535000E1,1.823899759E0,1.669564256E0,-5.289771348E-1,2.528610675E0
1.102535700E1,2.055919030E0,1.621849807E0,-5.139666013E-1,2.668587927E0
1.103536500E1,2.331246289E0,1.628414476E0,-3.728641514E-1,2.868008131E0
1.104537200E1,2.652630896E0,1.644871464E0,-2.791894908E-1,3.133687856E0
1.105537900E1,2.771044614E0,1.675659394E0,-3.867243183E-1,3.261300102E0
1.106538600E1,2.773961205E0,1.633440158E0,-5.304570651E-1,3.262571412E0
1.107539400E1,2.725829265E0,1.580757914E0,-5.963056304E-1,3.206948888E0
1.108540100E1,2.555301653E0,1.514697241E0,-9.211949122E-1,3.110060182E0
1.109540800E1,2.296857060E0,1.615424886E0,-1.242683600E0,3.070734838E0
1.110541500E1,2.096221549E0,1.701868953E0,-1.485677071E0,3.081840209E0
1.111542300E1,1.700581396E0,1.740199791E0,-1.719358560E0,2.979339902E0
1.112543000E1,1.268661025E0,1.709241123E0,-1.800533262E0,2.787996779E0
1.113543700E1,9.250990981E-1,1.654660288E0,-1.847321512E0,2.646942723E0
1.114544500E1,7.035790873E-1,1.645005950E0,-1.868885897E0,2.587238413E0
1.115545200E1,6.402145654E-1,1.658717086E0,-1.854377201E0,2.569033255E0
1.116545900E1,6.131144750E-1,1.552778987E0,-1.802410072E0,2.456769019E0
1.117546600E1,5.681031936E-1,1.276208026E0,-1.563085874E0,2.096350547E0
1.118547400E1,4.190553278E-1,8.611755824E-1,-1.231064013E0,1.559727333E0
1.119548100E1,3.333064950E-1,3.917768973E-1,-7.438244493E-1,9.043545589E-1
1.120548800E1,2.492410755E-1,-3.590973938E-1,-3.941041622E-1,5.885491845E-1
1.121549500E1,-1.429696852E-1,-1.352006652E0,-5.056392892E-1,1.450528665E0
1.122550300E1,-1.042617023E0,-2.524120206E0,-1.144410616E0,2.961065471E0
1.123551000E1,-1.941124738E0,-3.159085141E0,-1.869406884E0,4.152404879E0
1.124551713E1,-2.574627285E0,-2.823392982E0,-2.580338845E0,4.610683479E0
1.125552412E1,-3.415583196E0,-1.719284885E0,-3.116938995E0,4.933300901E0
1.126553213E1,-4.377072440E0,-7.842390883E-1,-3.141133604E0,5.444310279E0
1.127553912E1,-5.587010463E0,-9.116668743E-1,-2.394552923E0,6.146519837E0
1.128554612E1,-6.402307622E0,-1.780788238E0,-1.287452806E0,6.768920472E0
1.129555312E1,-6.256037183E0,-2.931156582E0,-1.613399557E-1,6.910550682E0
1.130556112E1,-4.873115718E0,-3.955526783E0,8.896715494E-1,6.339161175E0
1.131556812E1,-2.952478454E0,-4.247422712E0,1.772795679E0,5.468138004E0
1.132557512E1,-1.548863107E0,-3.414922460E0,2.060115577E0,4.278404904E0
1.133558313E1,-5.141041571E-1,-1.208909497E0,1.831572622E0,2.253979486E0
1.134559012E1,3.415358663E-1,1.134358082E0,1.697101718E0,2.069678538E0
1.135559713E1,4.690203702E-1,1.740035484E0,1.739353845E0,2.504606833E0
1.136560412E1,2.228175080E-1,9.033901405E-1,2.004406815E0,2.209843448E0
1.137561212E1,2.068540245E-1,-7.408597648E-2,2.279911244E0,2.290474318E0
1.138561912E1,4.182150829E-1,-5.149683756E-1,2.587832052E0,2.671510998E0
1.139562612E1,4.012546492E-1,-4.302989388E-1,2.836301880E0,2.896682728E0
1.140563312E1,1.356641740E-1,-8.404787779E-2,3.234712443E0,3.238646848E0
1.141564112E1,-3.128903568E-1,1.990789819E-1,3.785260541E0,3.803384044E0
1.142564813E1,-6.641682690E-1,1.903496736E-1,4.100010313E0,4.157816380E0
1.143565512E1,-9.115721494E-1,-9.589784503E-2,3.846991936E0,3.954681673E0
1.144566213E1,-9.784724826E-1,-3.687616718E-1,2.860125775E0,3.045277166E0
1.145567012E1,-8.096119112E-1,-3.611626303E-1,1.582022667E0,1.813478870E0
1.146567712E1,-6.005376989E-1,-1.037500709E-1,7.200682354E-1,9.433492824E-1
1.147568412E1,-3.824388939E-1,9.867117941E-2,3.562088692E-1,5.318648961E-1
1.148569112E1,-4.284254909E-2,1.657656401E-1,2.298389907E-1,2.866002322E-1
1.149569912E1,4.561389542E-1,1.087003237E-1,2.697740849E-1,5.409774143E-1
1.150570612E1,1.038909304E0,7.657981396E-2,3.496482933E-1,1.098840725E0
1.151571313E1,1.578133684E0,1.225482845E-1,3.490776050E-1,1.620919239E0
1.152572012E1,2.025848554E0,3.059046882E-1,3.607125409E-1,2.080325355E0
1.153572813E1,2.423077980E0,5.125868046E-1,3.773630722E-1,2.505285417E0
1.154573512E1,2.641246367E0,7.239928865E-1,3.770142858E-1,2.764504991E0
1.155574212E1,2.869960792E0,9.060003376E-1,3.290087914E-1,3.027500346E0
1.156574912E1,2.949239096E0,1.096872752E0,2.081597078E-1,3.153485618E0
1.157575712E1,2.856134466E0,1.297546855E0,1.374585383E-1,3.140067957E0
1.158576412E1,2.783290438E0,1.464846219E0,3.649554268E-2,3.145443058E0
1.159577112E1,2.679650880E0,1.543546234E0,-2.099243975E-1,3.099537395E0
1.160577812E1,2.553881364E0,1.610485743E0,-4.550494717E-1,3.053366072E0
1.161578612E1,2.421704469E0,1.659081953E0,-5.792111492E-1,2.992104780E0
1.162579313E1,2.274141796E0,1.660801034E0,-8.177798867E-1,2.932361664E0
1.163580012E1,2.091211655E0,1.646603410E0,-1.234487411E0,2.934012294E0
1.164580812E1,1.818199893E0,1.605400420E0,-1.544971200E0,2.875777698E0
1.165581512E1,1.493734388E0,1.479592897E0,-1.759859884E0,2.741814066E0
1.166582212E1,1.181862617E0,1.236811241E0,-1.951761116E0,2.595355996E0
1.167582912E1,9.560554272E-1,9.900020224E-1,-2.147528089E0,2.550690667E0
1.168583712E1,8.955279744E-1,8.014497828E-1,-2.154330593E0,2.466866922E0
1.169584413E1,8.573503339E-1,5.793555754E-1,-1.938174380E0,2.197094082E0
1.170585112E1,6.371126175E-1,2.648443705E-1,-1.714272798E0,1.847914028E0
1.171585813E1,3.007035899E-1,-7.546416521E-2,-1.607000949E0,1.636633600E0
1.172586612E1,-1.535315108E-1,-3.032067829E-1,-1.404224919E0,1.444767767E0
1.173587312E1,-7.109647053E-1,-4.619434851E-1,-1.220560221E0,1.486145971E0
1.174588012E1,-1.437396466E0,-3.747100443E-1,-1.149507633E0,1.878266226E0
1.175588712E1,-2.350355574E0,-6.099581480E-2,-1.131410501E0,2.609210903E0
1.176589512E1,-3.169116624E0,2.716897058E-1,-1.100543050E0,3.365755558E0
1.177590212E1,-3.661914697E0,4.375851542E-1,-1.113829093E0,3.852494680E0
1.178590912E1,-3.915130125E0,4.443568146E-1,-1.327701969E0,4.157942928E0
1.179591612E1,-4.076954741E0,9.589492142E-2,-1.343264626E0,4.293613356E0
1.180592413E1,-4.649091929E0,-7.807483006E-1,-9.232111783E-1,4.803742557E0
1.181593112E1,-5.329309636E0,-2.051238919E0,-1.581883796E-1,5.712630380E0
1.182593812E1,-5.547620110E0,-3.101866043E0,7.373621066E-1,6.398543952E0
1.183594512E1,-4.757695189E0,-3.069560176E0,1.362914633E0,5.823692942E0
1.184595312E1,-3.219782163E0,-1.788756239E0,1.610649465E0,4.020054447E0
1.185596012E1,-1.449739938E0,-1.300859302E-1,1.566147476E0,2.138103401E0
1.186596712E1,2.976858419E-1,9.533820802E-1,1.328852116E0,1.662348399E0
1.187597412E1,1.355584563E0,8.876295555E-1,8.522030300E-1,1.830777359E0
1.188598212E1,1.603716422E0,5.343770385E-3,5.511244874E-1,1.695780976E0
1.189598913E1,1.379451728E0,-1.267513216E0,8.606779844E-1,2.061611849E0
1.190599612E1,8.912992680E-1,-2.749973003E0,1.532875650E0,3.272074825E0
1.191600313E1,3.817863446E-1,-4.222253373E0,2.280346277E0,4.813851213E0
1.192601112E1,3.059064424E-1,-5.220771280E0,2.764970527E0,5.915665096E0
1.193601812E1,5.432121813E-1,-5.543543431E0,2.723031957E0,6.200069055E0
1.194602512E1,7.124422967E-1,-4.952207496E0,2.270854492E0,5.494425650E0
1.195603212E1,5.133498663E-1,-3.511119683E0,1.542257946E0,3.869114767E0
1.196604013E1,8.726560056E-2,-1.959044700E0,7.356032641E-1,2.094417242E0
1.197604712E1,-1.102053970E-1,-9.716938055E-1,2.876151824E-1,1.019341245E0
1.198605413E1,-1.375019538E-1,-5.432957965E-1,3.944267093E-1,6.853098123E-1
1.199606112E1,1.062573570E-1,-2.424278998E-1,7.069902067E-1,7.549152700E-1
1.200606912E1,5.640276843E-1,2.158575672E-1,1.002876787E0,1.170676543E0
1.201607612E1,9.296189958E-1,7.183362901E-1,1.191012340E0,1.672934218E0
1.202608312E1,1.155916767E0,1.106198477E0,1.152687349E0,1.971929706E0
1.203609012E1,1.392331390E0,1.365346490E0,9.121866918E-1,2.152868388E0
1.204609812E1,1.646492897E0,1.583306131E0,6.491274031E-1,2.374692306E0
1.205610512E1,1.985721452E0,1.749164742E0,3.718355531E-1,2.672251608E0
1.206611212E1,2.164013582E0,1.924137408E0,6.772829890E-2,2.896523204E0
1.207611913E1,2.267660742E0,1.996065761E0,-2.161038812E-1,3.028739780E0
1.208612712E1,2.427870358E0,1.982045892E0,-4.089181562E-1,3.160739542E0
1.209613412E1,2.610688233E0,1.912320769E0,-5.505608158E-1,3.282648472E0
1.210614112E1,2.794088491E0,1.816808841E0,-6.439579529E-1,3.394467072E0
1.211614812E1,3.038569348E0,1.632422742E0,-6.599869251E-1,3.511878477E0
1.212615612E1,3.115518706E0,1.500166910E0,-7.922977940E-1,3.547491136E0
1.213616312E1,3.071775101E0,1.488563111E0,-8.791826677E-1,3.524852418E0
1.214617012E1,2.954442533E0,1.517716743E0,-9.898955300E-1,3.465845922E0
1.215617712E1,2.817415373E0,1.548176059E0,-1.176462201E0,3.423264788E0
1.216618513E1,2.445735356E0,1.581537933E0,-1.285054863E0,3.183433628E0
1.217619212E1,1.952026872E0,1.556877301E0,-1.464506496E0,2.894659758E0
1.218619913E1,1.392150126E0,1.579730558E0,-1.518528922E0,2.596066389E0
1.219620612E1,9.760160673E-1,1.730583460E0,-1.528512458E0,2.506766205E0
1.220621412E1,7.620161605E-1,1.882241523E0,-1.615365245E0,2.594784510E0
1.221622112E1,7.192741835E-1,1.898062334E0,-1.634902546E0,2.606319687E0
1.222622812E1,6.509594089E-1,1.723501897E0,-1.393383889E0,2.309918960E0
1.223623512E1,3.915693212E-1,1.306012453E0,-9.729276410E-1,1.674987539E0
1.224624271E1,2.380226076E-2,6.925676107E-1,-5.152257992E-1,8.635242135E-1
1.225624971E1,-3.261769849E-1,-3.859747052E-2,-3.755830336E-1,4.989426874E-1
1.226625671E1,-6.025304300E-1,-9.549163896E-1,-4.743775892E-1,1.224721326E0
1.227626371E1,-1.054707311E0,-1.996423026E0,-7.286543600E-1,2.372561820E0
1.228627171E1,-1.637871178E0,-2.650838140E0,-1.371796407E0,3.404613079E0
1.229627871E1,-2.039283117E0,-2.654987324E0,-2.325569081E0,4.076261139E0
1.230628571E1,-2.622784953E0,-2.102934737E0,-3.052886841E0,4.541085056E0
1.231629271E1,-3.490393642E0,-1.323032529E0,-3.376616181E0,5.033368622E0
1.232630071E1,-4.523364514E0,-9.613611907E-1,-3.165881944E0,5.604270724E0
1.233630771E1,-5.523381647E0,-1.254376277E0,-2.449944621E0,6.171177627E0
1.234631471E1,-5.970100152E0,-2.076458545E0,-1.296360455E0,6.452466686E0
1.235632171E1,-5.378856602E0,-3.014519750E0,-1.157516272E-1,6.167075978E0
1.236632971E1,-3.653827413E0,-3.618375744E0,7.690233906E-1,5.199470623E0
1.237633671E1,-1.575151604E0,-3.331005560E0,1.380751125E0,3.934866489E0
1.238634371E1,1.211431986E-1,-2.161808013E0,1.398780284E0,2.577726875E0
1.239635071E1,1.184435391E0,-3.143884134E-1,1.294663593E0,1.782661238E0
1.240635871E1,1.401816158E0,8.988386679E-1,1.536586293E0,2.265854569E0
1.241636571E1,7.739684540E-1,7.053238964E-1,1.905364337E0,2.174148620E0
1.242637271E1,2.875537866E-1,2.124878168E-3,2.240039080E0,2.258421302E0
1.243637971E1,3.874014258E-2,-6.510669976E-1,2.638363105E0,2.717783823E0
1.244638771E1,7.343868971E-2,-1.019867261E0,3.113358745E0,3.276968896E0
1.245639471E1,1.677735740E-1,-1.109598048E0,3.554372706E0,3.727320906E0
1.246640171E1,-7.723704100E-2,-1.209881305E0,3.939712404E0,4.122027676E0
1.247640871E1,-3.731599474E-1,-1.496801253E0,4.005099478E0,4.291909151E0
1.248641671E1,-6.709855378E-1,-1.815979121E0,3.533327408E0,4.028945809E0
1.249642371E1,-7.523647463E-1,-1.966612167E0,2.523767034E0,3.286794208E0
1.250643071E1,-6.595454603E-1,-1.849086056E0,1.302880100E0,2.356186752E0
1.251643771E1,-6.235014689E-1,-1.435791405E0,4.623275741E-1,1.632175795E0
1.252644571E1,-5.607631838E-1,-1.001238617E0,-1.007674793E-1,1.151993143E0
1.253645271E1,-2.452345634E-1,-6.380054873E-1,-4.546461600E-1,8.209105455E-1
1.254645971E1,1.957250190E-1,-3.327317137E-1,-4.816691402E-1,6.172712831E-1
1.255646671E1,7.328116572E-1,-5.183849037E-2,-3.071543113E-1,7.962687517E-1
1.256647471E1,1.232660887E0,1.127208692E-1,-1.080642928E-1,1.242512273E0
1.257648171E1,1.773917760E0,2.997417229E-1,6.005265892E-2,1.800065454E0
1.258648871E1,2.198273588E0,5.557801867E-1,2.187572014E-1,2.277971268E0
1.259649571E1,2.513063706E0,7.471344119E-1,3.810338080E-1,2.649317984E0
1.260650371E1,2.860115250E0,9.095718169E-1,4.846090472E-1,3.040135863E0
1.261651071E1,3.106388279E0,9.643783540E-1,5.279639585E-1,3.295211631E0
1.262651771E1,3.229956318E0,1.026463505E0,5.403423679E-1,3.431940416E0
1.263652471E1,3.232751872E0,1.057376565E0,4.820970833E-1,3.435279823E0
1.264653271E1,3.205578691E0,1.074545744E0,3.053858940E-1,3.394649297E0
1.265653971E1,3.159565197E0,1.047812274E0,5.700976789E-2,3.329266122E0
1.266654671E1,3.067737599E0,1.026534841E0,-2.771710320E-1,3.246784800E0
1.267655371E1,2.866753594E0,1.017072292E0,-7.186144714E-1,3.125558986E0
1.268656171E1,2.613391401E0,1.051532857E0,-1.180684987E0,3.054431699E0
1.269656871E1,2.287064143E0,1.063682202E0,-1.583522478E0,2.978191676E0
1.270657571E1,1.885722370E0,1.099574166E0,-1.855504106E0,2.864944623E0
1.271658271E1,1.501208884E0,1.107209460E0,-2.011537494E0,2.743323530E0
1.272659071E1,1.091058281E0,1.011370672E0,-1.967284158E0,2.466472333E0
1.273659771E1,9.264878118E-1,8.785564309E-1,-1.810181168E0,2.215174243E0
1.274660471E1,9.247564512E-1,7.548346102E-1,-1.653706023E0,2.039532641E0
1.275661171E1,8.176921785E-1,6.491824400E-1,-1.564246108E0,1.880671217E0
1.276661971E1,4.484311545E-1,3.643487781E-1,-1.415517208E0,1.528898132E0
1.277662671E1,-7.483208120E-2,-2.704337239E-3,-1.270741025E0,1.272945367E0
1.278663371E1,-5.145894760E-1,-2.761745203E-1,-1.091562311E0,1.237975352E0
1.279664071E1,-9.587322825E-1,-2.726293534E-1,-9.850288193E-1,1.401347968E0
1.280664871E1,-1.554157176E0,-1.979247415E-1,-8.867407787E-1,1.800246633E0
1.281665571E1,-2.350205886E0,-5.201624572E-2,-6.340323043E-1,2.434783431E0
1.282666271E1,-3.132715952E0,4.532586157E-2,-3.577497567E-1,3.153402696E0
1.283666971E1,-3.400826578E0,2.645724750E-1,-3.435065241E-1,3.428354815E0
1.284667771E1,-3.001395090E0,4.986686772E-1,-9.533440733E-1,3.188402086E0
1.285668471E1,-2.645837601E0,5.065173948E-1,-1.906685223E0,3.300373467E0
1.286669171E1,-2.984920560E0,-1.499869287E-1,-2.448666273E0,3.863704614E0
1.287669871E1,-3.912686573E0,-1.369548883E0,-2.156438661E0,4.672794460E0
1.288670571E1,-4.455853731E0,-2.649930652E0,-1.139407738E0,5.308014217E0
1.289671371E1,-3.884690105E0,-3.266113746E0,-8.334021851E-2,5.075949350E0
1.290672071E1,-2.517153248E0,-2.880320889E0,7.710688198E-1,3.902160430E0
1.291672771E1,-1.210601681E0,-2.128620971E0,1.314162449E0,2.779137746E0
1.292673471E1,-6.296223342E-2,-1.429665277E0,1.649327627E0,2.183618252E0
1.293674271E1,1.239485757E0,-5.138796240E-1,1.840498981E0,2.277681652E0
1.294674971E1,2.445592684E0,9.789466918E-2,1.789096693E0,3.031727877E0
1.295675671E1,3.008840935E0,-2.519372267E-1,1.507629712E0,3.374839772E0
1.296676371E1,2.682763352E0,-1.342890258E0,1.364033643E0,3.295627593E0
1.297677171E1,1.781727886E0,-2.602090487E0,1.632411633E0,3.551083905E0
1.298677871E1,1.056803538E0,-3.845740047E0,2.143788064E0,4.527955111E0
1.299678571E1,6.041466004E-1,-4.917928779E0,2.488502476E0,5.544696670E0
1.300679271E1,1.422358596E-1,-5.519938806E0,2.452856680E0,6.042057709E0
1.301680071E1,-3.265383428E-1,-5.142065418E0,1.857104927E0,5.476888055E0
1.302680771E1,-8.936141807E-1,-3.772259257E0,8.346806788E-1,3.965498461E0
1.303681471E1,-1.451449079E0,-2.191767976E0,-1.961148821E-2,2.628865896E0
1.304682171E1,-1.566797102E0,-1.029297650E0,-2.821235505E-1,1.895758558E0
1.305682971E1,-1.294850703E0,-3.609901375E-1,-1.499935068E-2,1.344312912E0
1.306683671E1,-8.891574329E-1,6.912227511E-2,3.874972471E-1,9.723851839E-1
1.307684371E1,-5.625898540E-1,5.372953838E-1,6.021695837E-1,9.837692213E-1
1.308685071E1,-1.385994762E-1,9.378208852E-1,5.276328599E-1,1.084948968E0
1.309685871E1,3.866266698E-1,1.110385083E0,2.408865738E-1,1.200192299E0
1.310686571E1,8.506646276E-1,1.209713489E0,-1.173934523E-1,1.483515506E0
1.311687271E1,1.312263712E0,1.256038640E0,-3.085920686E-1,1.842524947E0
1.312687971E1,1.786019157E0,1.193960506E0,-4.866754532E-1,2.202784401E0
1.313688771E1,2.157850617E0,1.070415856E0,-6.511710781E-1,2.495222067E0
1.314689471E1,2.465788967E0,9.781836301E-1,-7.550521997E-1,2.758090330E0
1.315690171E1,2.652866539E0,1.056252145E0,-8.029109289E-1,2.966148248E0
1.316690871E1,2.816097411E0,1.205206456E0,-8.824839326E-1,3.187742951E0
1.317691571E1,2.853673373E0,1.389389071E0,-8.301373923E-1,3.280698371E0
1.318692371E1,2.867369306E0,1.504774516E0,-7.446904220E-1,3.322757425E0
1.319693071E1,2.881521322E0,1.599549111E0,-7.480629498E-1,3.379544446E0
1.320693771E1,2.818188960E0,1.602772681E0,-7.084457248E-1,3.318578706E0
1.321694471E1,2.668297926E0,1.592869837E0,-7.337343478E-1,3.193025874E0
1.322695271E1,2.535021755E0,1.613266094E0,-7.656274009E-1,3.100830228E0
1.323695971E1,2.424714031E0,1.590052648E0,-8.660498214E-1,3.026144056E0
1.324696675E1,2.134862874E0,1.530301121E0,-1.085084327E0,2.841983287E0
1.325697375E1,1.799797536E0,1.525260821E0,-1.603823426E0,2.852707718E0
1.326698175E1,1.502811021E0,1.626376137E0,-2.124902142E0,3.068998113E0
1.327698875E1,1.170663444E0,1.877165555E0,-2.236003332E0,3.145459318E0
1.328699575E1,8.874699265E-1,1.989858357E0,-2.183262616E0,3.084440760E0
1.329700275E1,6.555909884E-1,2.018964627E0,-1.833687998E0,2.805072082E0
1.330701075E1,4.506209368E-1,1.859468372E0,-1.156891497E0,2.235862203E0
1.331701775E1,9.501140714E-2,1.428711011E0,-6.358811939E-1,1.566712231E0
1.332702475E1,-2.329039550E-1,8.434099871E-1,-3.667396315E-1,9.487268395E-1
1.333703175E1,-4.562190610E-1,1.505482614E-1,-5.100888741E-1,7.007076924E-1
1.334703975E1,-6.911660331E-1,-6.877647078E-1,-1.091534829E0,1.463618482E0
1.335704675E1,-1.206630837E0,-1.359862971E0,-1.887206393E0,2.620445239E0
1.336705375E1,-1.780435066E0,-1.255641029E0,-2.614519329E0,3.403277059E0
1.337706075E1,-2.229443341E0,-5.403675109E-1,-2.990595868E0,3.769095157E0
1.338706775E1,-2.723681583E0,1.171442878E-1,-3.138308229E0,4.157059380E0
1.339707575E1,-3.407618119E0,2.702629852E-1,-3.007073906E0,4.552735090E0
1.340708275E1,-4.270653116E0,-5.267943692E-1,-2.630086956E0,5.043148594E0
1.341708975E1,-5.297828227E0,-2.306033095E0,-2.625725518E0,6.346590191E0
1.342709675E1,-5.323622634E0,-3.927639658E0,-2.494911609E0,7.070494690E0
1.343710475E1,-3.711706662E0,-4.832112118E0,-1.195894765E0,6.209366969E0
1.344711175E1,-1.290707366E0,-5.245211472E0,2.907188845E-1,5.409499641E0
1.345711875E1,7.581762940E-1,-5.198865271E0,1.030303956E0,5.353929178E0
1.346712575E1,2.234303547E0,-4.258998445E0,1.651432625E0,5.085116499E0
1.347713375E1,2.702990626E0,-2.953812788E0,2.211804045E0,4.574193420E0
1.348714075E1,2.072408763E0,-1.882239769E0,2.626196219E0,3.838568901E0
1.349714775E1,9.234121764E-1,-1.324449309E0,2.777007020E0,3.212261510E0
1.350715475E1,-2.495767057E-2,-1.468367413E0,3.027356143E0,3.364760164E0
1.351716275E1,-2.032959938E-1,-2.344769145E0,3.611373703E0,4.310602235E0
1.352716975E1,-3.188603640E-2,-3.257411335E0,4.100284547E0,5.236800425E0
1.353717675E1,1.153743356E-1,-3.583552651E0,4.087248180E0,5.436980644E0
1.354718375E1,2.091122192E-1,-3.475928800E0,3.360093119E0,4.839011750E0
1.355719075E1,5.038077950E-2,-3.288130851E0,2.301530154E0,4.013898824E0
1.356719875E1,-1.760427064E-1,-2.999050941E0,1.233114631E0,3.247440419E0
1.357720575E1,-3.513404775E-1,-2.532955348E0,3.049147546E-1,2.575320550E0
1.358721275E1,-3.347449100E-1,-1.760010742E0,-2.080912954E-1,1.803605820E0
1.359721975E1,-1.719841540E-1,-8.277979213E-1,-3.200450829E-1,9.040225677E-1
1.360722775E1,6.713246763E-2,-1.095820838E-1,-3.105626533E-1,3.361014176E-1
1.361723475E1,3.471831071E-1,2.937956893E-1,-3.423674134E-1,5.692692357E-1
1.362724175E1,6.202340448E-1,4.318121982E-1,-3.397219869E-1,8.285910168E-1
1.363724875E1,9.131514823E-1,4.895546222E-1,-1.706064038E-1,1.050055190E0
1.364725675E1,1.277435941E0,5.430256552E-1,5.062358513E-2,1.388986031E0
1.365726375E1,1.579285585E0,7.145022708E-1,1.871354592E-1,1.743466700E0
1.366727075E1,1.934240811E0,1.018541697E0,2.933986634E-1,2.205628591E0
1.367727775E1,2.170169531E0,1.294068931E0,2.831769995E-1,2.542526186E0
1.368728575E1,2.330720040E0,1.530794626E0,1.816354220E-1,2.794383566E0
1.369729275E1,2.407891592E0,1.710814024E0,1.343614143E-1,2.956836068E0
1.370729975E1,2.464104969E0,1.816866143E0,8.804386497E-2,3.062771229E0
1.371730675E1,2.547838851E0,1.846973457E0,1.149971902E-2,3.146891483E0
1.372731375E1,2.476947209E0,1.756108310E0,-2.552800798E-1,3.047023431E0
1.373732175E1,2.292230158E0,1.636974215E0,-4.729953074E-1,2.856173706E0
1.374732875E1,2.158465744E0,1.511879468E0,-6.685858405E-1,2.718779307E0
1.375733575E1,2.040562488E0,1.376856734E0,-1.050746407E0,2.676508499E0
1.376734275E1,1.889769813E0,1.223484852E0,-1.639095877E0,2.784740638E0
1.377735075E1,1.671786198E0,1.128008591E0,-2.176974667E0,2.967573280E0
1.378735775E1,1.514900724E0,1.013782064E0,-2.555228562E0,3.138769071E0
1.379736475E1,1.423492956E0,8.306069237E-1,-2.845517092E0,3.288344200E0
1.380737175E1,1.293674828E0,6.369219983E-1,-3.012194898E0,3.339548217E0
1.381737975E1,1.078397305E0,4.290716082E-1,-3.115549989E0,3.324709751E0
1.382738675E1,8.073829526E-1,3.132593161E-1,-2.967202620E0,3.091001459E0
1.383739375E1,4.202750570E-1,3.709923846E-1,-2.608125983E0,2.667693314E0
1.384740075E1,-1.827839613E-3,4.224315101E-1,-2.052900844E0,2.095913547E0
1.385740775E1,-3.482940781E-1,2.503081924E-1,-1.418892075E0,1.482301479E0
1.386741575E1,-7.554433054E-1,-6.365454376E-2,-1.084589653E0,1.323284249E0
1.387742275E1,-1.160781065E0,-2.807540596E-1,-1.095364171E0,1.620511706E0
1.388742975E1,-1.670317962E0,-2.802897906E-1,-1.212915132E0,2.083191681E0
1.389743675E1,-2.221737295E0,-2.321695447E-1,-1.166076304E0,2.519871674E0
1.390744475E1,-2.643143204E0,-3.128400707E-1,-1.138606085E0,2.894909104E0
1.391745175E1,-2.741469982E0,-4.471465212E-1,-1.386427602E0,3.104477278E0
1.392745875E1,-2.826189120E0,-6.588075417E-1,-1.842097610E0,3.437251217E0
1.393746575E1,-3.282298254E0,-9.995668977E-1,-2.293855684E0,4.127273883E0
1.394747375E1,-4.198028943E0,-1.518972141E0,-2.444489315E0,5.089818403E0
1.395748075E1,-5.200942787E0,-2.167642949E0,-1.981468480E0,5.972830080E0
1.396748775E1,-5.815275822E0,-2.743363895E0,-9.968344939E-1,6.506700958E0
1.397749475E1,-5.530030516E0,-2.900569797E0,8.827073693E-2,6.245184895E0
1.398750275E1,-4.057402822E0,-2.606956540E0,6.609803671E-1,4.867816257E0
1.399750975E1,-1.993423405E0,-1.832564163E0,8.775214738E-1,2.846413923E0
1.400751675E1,-2.188338000E-1,-8.294684708E-1,1.027468057E0,1.338505429E0
1.401752375E1,8.636337519E-1,-2.587205815E-1,8.702089459E-1,1.253021630E0
1.402753075E1,1.309689767E0,-3.002317196E-1,5.568043265E-1,1.454461216E0
1.403753875E1,1.517000459E0,-8.288188452E-1,5.361180469E-1,1.809876690E0
1.404754575E1,1.730168307E0,-1.710684800E0,8.412340920E-1,2.574412487E0
1.405755275E1,1.650905791E0,-2.948079593E0,1.091983895E0,3.550928336E0
1.406755975E1,1.363996367E0,-4.314131842E0,1.171529417E0,4.673831492E0
1.407756775E1,6.812895012E-1,-5.371169853E0,9.692613637E-1,5.500280771E0
1.408757475E1,2.553572631E-1,-5.449626623E0,5.496248227E-1,5.483222146E0
1.409758175E1,6.221150941E-1,-4.570739239E0,1.762409270E-2,4.612916105E0
1.410758875E1,9.099846303E-1,-3.325593962E0,-5.178193317E-1,3.486514605E0
1.411759575E1,6.576877999E-1,-2.153041867E0,-8.542494093E-1,2.407879685E0
1.412760375E1,2.798991966E-1,-1.395059701E0,-8.131026989E-1,1.638801735E0
1.413761075E1,1.425141871E-1,-1.046049339E0,-4.848109223E-1,1.161710438E0
1.414761775E1,2.839676893E-1,-7.270246679E-1,-4.529691786E-3,7.805274078E-1
1.415762475E1,6.242621917E-1,-2.166492802E-1,5.005969428E-1,8.289978852E-1
1.416763275E1,1.000977246E0,2.848734230E-1,9.100232220E-1,1.382479866E0
1.417763975E1,1.371276151E0,6.668965799E-1,1.231378154E0,1.959959563E0
1.418764675E1,1.743215784E0,8.705241108E-1,1.264678486E0,2.322934603E0
1.419765375E1,2.080206025E0,9.258300000E-1,1.008887798E0,2.490436284E0
1.420766175E1,2.350388904E0,9.637351602E-1,7.537468819E-1,2.649763729E0
1.421766875E1,2.445581574E0,9.930946147E-1,4.093669300E-1,2.671083569E0
1.422767575E1,2.615809810E0,9.738368100E-1,-2.342540771E-3,2.791204862E0
1.423768275E1,2.797072910E0,1.005632215E0,-3.878640868E-1,2.997557600E0
1.424768958E1,2.765405560E0,1.120197880E0,-7.947529668E-1,3.087708451E0
1.425769758E1,2.752044672E0,1.257848353E0,-1.171427091E0,3.244714746E0
1.426770458E1,2.693476621E0,1.454591957E0,-1.431436399E0,3.379299370E0
1.427771158E1,2.590689586E0,1.630247578E0,-1.602290871E0,3.454955243E0
1.428771858E1,2.551914361E0,1.735505646E0,-1.665061754E0,3.506661859E0
1.429772658E1,2.469888450E0,1.841062506E0,-1.608248599E0,3.475100526E0
1.430773358E1,2.260256413E0,1.921112058E0,-1.501248791E0,3.324632089E0
1.431774058E1,2.078091087E0,1.941600702E0,-1.487657962E0,3.209579733E0
1.432774758E1,1.815493802E0,1.968420126E0,-1.546265628E0,3.092189019E0
1.433775558E1,1.444807227E0,1.994225643E0,-1.756449788E0,3.024817299E0
1.434776258E1,1.205219319E0,1.924189448E0,-2.067865623E0,3.071013981E0
1.435776958E1,1.040167624E0,1.875425423E0,-2.304501125E0,3.147998513E0
1.436777658E1,8.739084792E-1,2.074048907E0,-2.382220122E0,3.277250007E0
1.437778358E1,6.696617281E-1,2.202398214E0,-2.385689568E0,3.315195234E0
1.438779158E1,3.954401779E-1,2.106996798E0,-2.213655859E0,3.081571142E0
1.439779858E1,5.848034263E-2,1.715605232E0,-1.846412709E0,2.521103162E0
1.440780558E1,-2.147816795E-1,1.225171773E0,-1.355648298E0,1.839825902E0
1.441781258E1,-2.832549137E-1,5.440231901E-1,-7.998360975E-1,1.007934700E0
1.442782058E1,-3.973557258E-1,-3.653211701E-1,-3.780909044E-1,6.590173458E-1
1.443782758E1,-7.067640656E-1,-1.473844500E0,-5.779646690E-1,1.733717455E0
1.444783458E1,-1.373444299E0,-2.372369757E0,-1.241490183E0,3.009283200E0
1.445784158E1,-2.122235227E0,-2.170339685E0,-2.310985687E0,3.815089979E0
1.446784858E1,-2.802530116E0,-1.229958889E0,-3.422404557E0,4.591277260E0
1.447785658E1,-3.472901112E0,-5.179036778E-1,-4.016749470E0,5.335123490E0
1.448786358E1,-4.055932247E0,-7.706741327E-1,-3.829181317E0,5.630910634E0
1.449787058E1,-4.526276427E0,-2.435295153E0,-2.952862616E0,5.927667197E0
1.450787758E1,-4.647330748E0,-4.721609098E0,-1.590688971E0,6.813337431E0
1.451788558E1,-4.221089777E0,-6.184167302E0,-2.513794023E-1,7.491643059E0
1.452789258E1,-3.195134395E0,-6.388802893E0,1.098587668E0,7.227211154E0
1.453789958E1,-1.945996054E0,-5.299660744E0,2.011601229E0,5.993316623E0
1.454790658E1,-8.590050960E-1,-3.006101514E0,2.139040855E0,3.788143589E0
1.455791458E1,2.372075057E-1,-2.048548615E-1,1.616497412E0,1.646601590E0
1.456792158E1,8.129109102E-1,1.054309115E0,1.467469719E0,1.981378115E0
1.457792858E1,3.839866519E-1,1.654709405E-1,1.603107142E0,1.656737423E0
1.458793558E1,1.369300961E-2,-1.144756771E0,1.814430778E0,2.145417118E0
1.459794258E1,8.261063218E-2,-1.804681131E0,2.004410469E0,2.698399494E0
1.460795058E1,2.636328274E-1,-1.895145743E0,2.308167475E0,2.998118868E0
1.461795758E1,1.954753429E-1,-1.610350088E0,2.574268266E0,3.042744669E0
1.462796458E1,2.284799516E-2,-1.342743493E0,2.658074069E0,2.978059750E0
1.463797158E1,-2.421560043E-1,-1.124064059E0,2.766673236E0,2.996104193E0
1.464797858E1,-4.579153383E-1,-9.837174350E-1,3.072222998E0,3.258211258E0
1.465798658E1,-5.676681608E-1,-1.050425395E0,2.882879630E0,3.120358251E0
1.466799358E1,-5.803899479E-1,-1.116769073E0,2.128401262E0,2.472674177E0
1.467800058E1,-5.228989542E-1,-9.365450227E-1,1.349505213E0,1.723863166E0
1.468800758E1,-2.854587293E-1,-5.731616199E-1,7.640637092E-1,9.968923113E-1
1.469801558E1,7.173013330E-2,-1.916331375E-1,4.252937222E-1,4.719568005E-1
1.470802258E1,5.326725751E-1,1.102621150E-1,2.676567350E-1,6.062490694E-1
1.471802958E1,1.074573226E0,2.524260539E-1,2.092431968E-1,1.123480861E0
1.472803658E1,1.480930156E0,3.321300352E-1,1.149771635E-1,1.522065778E0
1.473804358E1,1.859226297E0,4.930664599E-1,7.308902621E-2,1.924884143E0
1.474805158E1,2.181997279E0,7.164681047E-1,2.151205257E-2,2.296715359E0
1.475805858E1,2.488065104E0,8.899538237E-1,-5.463813722E-2,2.643004181E0
1.476806558E1,2.708899237E0,1.097748080E0,2.702758491E-2,2.922997847E0
1.477807258E1,2.850149256E0,1.253453001E0,7.352698267E-2,3.114466475E0
1.478808058E1,2.904880364E0,1.393198532E0,5.768044353E-2,3.222213387E0
1.479808758E1,2.956017773E0,1.467068161E0,-2.849172771E-2,3.300173002E0
1.480809458E1,2.980821662E0,1.483277228E0,-1.876348114E-1,3.334758753E0
1.481810158E1,2.975175591E0,1.359624989E0,-4.726456439E-1,3.305093616E0
1.482810958E1,2.934763729E0,1.139076785E0,-7.832672811E-1,3.244047118E0
1.483811658E1,2.711496570E0,9.547643620E-1,-1.205389766E0,3.117170692E0
1.484812358E1,2.493743336E0,9.386301398E-1,-1.715919374E0,3.169252540E0
1.485813058E1,2.225953138E0,1.042424065E0,-2.136426419E0,3.256659814E0
1.486813758E1,1.964113652E0,1.281156524E0,-2.485540861E0,3.417165177E0
1.487814558E1,1.561593665E0,1.418852021E0,-2.669087884E0,3.402314795E0
1.488815258E1,8.634068799E-1,1.367788287E0,-2.766906540E0,3.205009834E0
1.489815958E1,3.163226724E-1,1.191159689E0,-2.808566490E0,3.067077952E0
1.490816658E1,1.642161280E-1,9.394551820E-1,-2.585774709E0,2.756043146E0
1.491817458E1,1.984936756E-1,7.032990056E-1,-2.175514032E0,2.294970705E0
1.492818158E1,1.460429817E-1,5.030359626E-1,-1.699610905E0,1.778496826E0
1.493818858E1,-8.886247516E-2,3.395852351E-1,-1.227587258E0,1.276787041E0
1.494819558E1,-5.954529601E-1,1.610100996E-1,-8.919737443E-1,1.084484043E0
1.495820258E1,-1.231134764E0,2.282460630E-2,-7.690293109E-1,1.451764392E0
1.496821058E1,-2.118935643E0,-3.954764307E-2,-9.139788634E-1,2.307988223E0
1.497821758E1,-3.120890543E0,-1.459172666E-2,-1.136903375E0,3.321553851E0
1.498822458E1,-3.874052850E0,-7.450989962E-2,-1.269815850E0,4.077532281E0
1.499823158E1,-3.993647706E0,-1.267734826E-1,-1.551928802E0,4.286464338E0
1.500823958E1,-3.719501585E0,-1.134406614E-1,-2.079903724E0,4.263045898E0
1.501824658E1,-3.552219762E0,-2.238922262E-1,-2.538336541E0,4.371675349E0
1.502825358E1,-3.743190994E0,-7.679370511E-1,-2.520180352E0,4.577391740E0
1.503826058E1,-4.172424570E0,-1.752274291E0,-1.492670780E0,4.765255297E0
1.504826758E1,-4.577437225E0,-2.799169137E0,1.272207946E-1,5.366979088E0
1.505827558E1,-4.477666769E0,-3.374980130E0,1.291341789E0,5.753916422E0
1.506828258E1,-3.397335205E0,-2.597678179E0,1.711731452E0,4.606500079E0
1.507828958E1,-1.978233508E0,-7.960820389E-1,1.372803151E0,2.536088113E0
1.508829658E1,-1.044630804E0,5.622349280E-1,9.171392834E-1,1.499501949E0
1.509830458E1,-5.391366720E-2,8.132699293E-1,7.805037408E-1,1.128494905E0
1.510831158E1,9.947002602E-1,6.117357016E-2,9.598717587E-1,1.383663473E0
1.511831858E1,1.578154734E0,-1.049440724E0,1.525361247E0,2.432822462E0
1.512832558E1,1.869984004E0,-2.655555089E0,2.282455952E0,3.969687416E0
1.513833258E1,1.548234531E0,-4.353060849E0,2.993232377E0,5.505053041E0
1.514834058E1,9.495036221E-1,-5.703434374E0,3.587431694E0,6.804438768E0
1.515834758E1,3.928095156E-1,-6.232270006E0,3.544344147E0,7.180380503E0
1.516835458E1,-5.968194544E-2,-5.568261951E0,2.788815472E0,6.227888472E0
1.517836158E1,-2.740239143E-1,-3.963770773E0,1.443384014E0,4.227283437E0
1.518836858E1,-7.494493246E-1,-2.305833120E0,7.388600171E-2,2.425695737E0
1.519837658E1,-9.629294139E-1,-1.106579715E0,-8.386450911E-1,1.689697402E0
1.520838358E1,-7.606689620E-1,-3.073781866E-1,-9.760160673E-1,1.275031758E0
1.521839058E1,-1.792323625E-1,2.388651913E-1,-6.091348600E-1,6.783996588E-1
1.522839758E1,5.196063870E-1,5.950845855E-1,-3.002985241E-1,8.451601416E-1
1.523840558E1,1.058722594E0,8.525088394E-1,-9.072481334E-2,1.362312682E0
1.524841346E1,1.559044279E0,1.048725609E0,1.333302578E-1,1.883672324E0
1.525842046E1,1.963735921E0,1.189190932E0,2.668211679E-1,2.311196092E0
1.526842746E1,2.400466797E0,1.322332617E0,2.933178256E-1,2.756236518E0
1.527843446E1,2.634068910E0,1.543164995E0,2.784046483E-1,3.065483057E0
1.528844246E1,2.788610820E0,1.678454363E0,2.686245954E-1,3.265841166E0
1.529844946E1,2.848256512E0,1.701786507E0,2.748893023E-1,3.329295211E0
1.530845646E1,2.734283170E0,1.824372799E0,2.803267743E-1,3.298973122E0
1.531846346E1,2.644881581E0,1.909385467E0,2.411317183E-1,3.270977827E0
1.532847146E1,2.753850292E0,1.932176160E0,2.260532109E-1,3.371660748E0
1.533847846E1,2.798270420E0,2.020106004E0,3.029623693E-1,3.464524759E0
1.534848546E1,2.863223630E0,2.040084186E0,3.289790437E-1,3.531036711E0
1.535849246E1,2.844117268E0,2.005758106E0,2.183275042E-1,3.487081232E0
1.536849946E1,2.790560281E0,1.917427728E0,-3.716906883E-2,3.386020867E0
1.537850746E1,2.612386850E0,2.022686380E0,-3.416886248E-1,3.321532231E0
1.538851446E1,2.200646389E0,2.228275652E0,-7.951320125E-1,3.231144043E0
1.539852146E1,1.734035656E0,2.375426096E0,-1.190168075E0,3.172700560E0
1.540852846E1,1.167960277E0,2.488316535E0,-1.352909462E0,3.063692934E0
1.541853546E1,5.089831656E-1,2.556199785E0,-1.364549514E0,2.941974945E0
1.542854346E1,9.063768983E-3,2.554623960E0,-1.813437336E0,3.132848656E0
1.543855046E1,-2.116779774E-1,2.174138621E0,-2.240356146E0,3.129038506E0
1.544855746E1,-1.163367873E-1,1.810798488E0,-2.345122901E0,2.965152076E0
1.545856446E1,1.803906959E-1,1.481338876E0,-2.389362350E0,2.817083263E0
1.546857246E1,2.205546355E-1,8.794101244E-1,-2.184121572E0,2.364824213E0
1.547857946E1,-8.250655174E-2,1.206397533E-1,-1.620936472E0,1.627512312E0
1.548858646E1,-5.338589752E-1,-5.994840306E-1,-1.091597979E0,1.354980685E0
1.549859346E1,-1.148539335E0,-1.412477387E0,-8.368710458E-1,2.003643710E0
1.550860046E1,-2.064620857E0,-1.918079692E0,-9.559310277E-1,2.975818058E0
1.551860846E1,-2.920137504E0,-1.727773288E0,-1.701577177E0,3.795756639E0
1.552861546E1,-3.688910707E0,-9.868000871E-1,-2.581704170E0,4.609450405E0
1.553862246E1,-4.493040268E0,-1.521211624E-2,-3.088264250E0,5.452065511E0
1.554862946E1,-5.010981953E0,2.704992127E-1,-3.073550901E0,5.884711131E0
1.555863646E1,-5.140242841E0,-7.269141555E-1,-2.360917985E0,5.703019760E0
1.556864446E1,-5.320412512E0,-2.290677722E0,-1.259147605E0,5.927853441E0
1.557865146E1,-4.498542498E0,-3.246770571E0,-6.051166534E-2,5.548158741E0
1.558865846E1,-2.856563067E0,-3.425095446E0,1.165111513E0,4.609632980E0
1.559866546E1,-1.321984123E0,-3.473591668E0,1.677883675E0,4.077839467E0
1.560867346E1,-4.536106181E-1,-3.127441764E0,1.820340559E0,3.646956859E0
1.561868046E1,2.437774372E-1,-1.737231744E0,1.784622842E0,2.502454847E0
1.562868746E1,9.569477123E-1,-1.443443656E-1,1.757543802E0,2.006375946E0
1.563869446E1,9.051554149E-1,-8.322751343E-2,2.065974487E0,2.257096304E0
1.564870146E1,1.878301084E-1,-1.042317646E0,2.478024850E0,2.694867971E0
1.565870946E1,-2.411257249E-1,-1.875774502E0,2.890660520E0,3.454358094E0
1.566871646E1,-4.353105873E-1,-2.271814020E0,3.274578175E0,4.009176533E0
1.567872346E1,-5.801361787E-1,-2.081575443E0,3.816605126E0,4.385885201E0
1.568873046E1,-6.867110395E-1,-1.613360234E0,4.119902540E0,4.477510496E0
1.569873746E1,-7.767230773E-1,-1.103547349E0,3.905298032E0,4.131884341E0
1.570874546E1,-6.649208057E-1,-8.106731808E-1,3.302391626E0,3.464837822E0
1.571875246E1,-5.052304226E-1,-6.525457585E-1,2.611620864E0,2.738911697E0
1.572875946E1,-3.158426160E-1,-5.166687459E-1,1.879318500E0,1.974472379E0
1.573876646E1,-1.917214304E-1,-3.389648455E-1,1.289101136E0,1.346638783E0
1.574877446E1,1.199205458E-2,-8.854614079E-2,9.652816757E-1,9.694085526E-1
1.575878146E1,3.119735134E-1,2.290968329E-1,7.427435915E-1,8.375445508E-1
1.576878846E1,8.267109239E-1,4.910608649E-1,4.607348657E-1,1.066240283E0
1.577879546E1,1.375705417E0,6.941288173E-1,3.186536649E-1,1.573505757E0
1.578880246E1,1.936725878E0,8.228617018E-1,2.178250822E-1,2.115527422E0
1.579881046E1,2.373037509E0,9.649993283E-1,3.479900229E-1,2.585271316E0
1.580881746E1,2.699795707E0,1.150596970E0,5.872422999E-1,2.992928961E0
1.581882446E1,2.818143352E0,1.315846885E0,7.537131143E-1,3.200229435E0
1.582883146E1,2.888694102E0,1.502881188E0,7.492597286E-1,3.341346378E0
1.583883846E1,2.872427148E0,1.599000642E0,5.164863127E-1,3.327821943E0
1.584884646E1,2.831953306E0,1.637178283E0,1.722022551E-1,3.275662661E0
1.585885346E1,2.739387204E0,1.630739914E0,-2.423670888E-2,3.188125207E0
1.586886046E1,2.658231944E0,1.594537463E0,-2.467489922E-1,3.109603166E0
1.587886746E1,2.591281909E0,1.499759944E0,-5.282212360E-1,3.040236750E0
1.588887446E1,2.484176706E0,1.388526607E0,-8.743639773E-1,2.977188675E0
1.589888246E1,2.323040891E0,1.229751313E0,-1.229916350E0,2.901982340E0
1.590888946E1,2.060231937E0,1.097496650E0,-1.562591346E0,2.809047213E0
1.591889646E1,1.760859173E0,9.681001067E-1,-1.950302236E0,2.800271711E0
1.592890346E1,1.389562148E0,9.190121466E-1,-2.216072659E0,2.772443745E0
1.593891146E1,9.518202889E-1,9.316134810E-1,-2.329557028E0,2.683412285E0
1.594891846E1,6.083577651E-1,9.503128767E-1,-2.302644634E0,2.564247656E0
1.595892546E1,4.735227263E-1,9.235495859E-1,-2.072810613E0,2.318126711E0
1.596893246E1,4.734625000E-1,7.853430426E-1,-1.778282852E0,2.000804922E0
1.597893946E1,4.091197389E-1,6.152346754E-1,-1.499702057E0,1.671825028E0
1.598894746E1,2.815481114E-1,4.465161914E-1,-1.174234047E0,1.287428307E0
1.599895446E1,6.598641336E-2,2.325513679E-1,-7.707660802E-1,8.077838175E-1
1.600896146E1,-3.600481510E-1,3.332562089E-2,-6.059855497E-1,7.056654692E-1
1.601896846E1,-1.037964393E0,6.416909873E-2,-7.384660609E-1,1.275468494E0
1.602897546E1,-1.942993509E0,2.562320065E-1,-8.467446542E-1,2.134913376E0
1.603898346E1,-2.981623900E0,4.433107477E-1,-8.499734867E-1,3.131941958E0
1.604899046E1,-3.735901855E0,3.902829337E-1,-7.345161206E-1,3.827374736E0
1.605899746E1,-3.999376223E0,1.478953797E-1,-8.815947904E-1,4.098059613E0
1.606900446E1,-3.848316330E0,-1.704989612E-2,-1.534135286E0,4.142873442E0
1.607901246E1,-3.703525822E0,-2.140958011E-1,-2.379821595E0,4.407435915E0
1.608901946E1,-3.978097621E0,-5.785398889E-1,-2.819982886E0,4.910424886E0
1.609902646E1,-4.458827625E0,-1.147592670E0,-2.582699951E0,5.279057848E0
1.610903346E1,-4.771769437E0,-1.852919490E0,-1.685606677E0,5.389282333E0
1.611904046E1,-4.672009506E0,-2.323657188E0,-4.205042678E-1,5.234871478E0
1.612904746E1,-4.028142770E0,-2.241190397E0,5.520441082E-1,4.642587777E0
1.613905546E1,-2.965925295E0,-1.515518775E0,1.053232058E0,3.493251749E0
1.614906246E1,-1.640929856E0,-5.015098393E-1,1.233923886E0,2.113464234E0
1.615906946E1,-5.333993840E-1,3.449722749E-1,1.225641890E0,1.380477749E0
1.616907646E1,4.405988091E-1,6.567446440E-1,1.075153708E0,1.334689602E0
1.617908446E1,1.433977014E0,4.806528211E-1,8.458237177E-1,1.732840146E0
1.618909146E1,1.959520079E0,-2.168422383E-1,1.004540101E0,2.212654584E0
1.619909846E1,2.003132706E0,-1.482492532E0,1.629510244E0,2.977520509E0
1.620910546E1,1.812677783E0,-3.089543620E0,2.506801922E0,4.372086047E0
1.621911246E1,1.129637040E0,-4.466803812E0,3.084370589E0,5.544525053E0
1.622912046E1,8.100071830E-1,-5.395339319E0,3.242089875E0,6.346411959E0
1.623912746E1,7.013097829E-1,-5.624634372E0,3.146677934E0,6.483049379E0
1.624913421E1,7.168803334E-1,-4.753362402E0,2.462533822E0,5.401152133E0
1.625914121E1,5.214470905E-1,-3.161705863E0,1.397682615E0,3.495970212E0
1.626914821E1,1.328838229E-1,-1.666033707E0,5.117072372E-1,1.747904666E0
1.627915621E1,-1.064953387E-1,-5.974556315E-1,2.915582523E-2,6.075726713E-1
1.628916321E1,-1.417096102E-1,2.067867815E-2,-3.149032608E-2,1.466317223E-1
1.629917021E1,8.731997967E-2,3.870634568E-1,1.574392051E-1,4.268840612E-1
1.630917721E1,4.832910848E-1,6.809825224E-1,3.761524062E-1,9.158592147E-1
1.631918521E1,8.316874892E-1,9.087380040E-1,5.848601443E-1,1.363660598E0
1.632919221E1,1.176736363E0,1.054072303E0,5.968350957E-1,1.688783295E0
1.633919921E1,1.575638092E0,1.122015780E0,5.307008209E-1,2.005791158E0
1.634920621E1,1.992380261E0,1.225213873E0,5.005561584E-1,2.391920695E0
1.635921321E1,2.307250485E0,1.392679299E0,4.003787363E-1,2.724566675E0
1.636922121E1,2.500853550E0,1.591769391E0,3.265616586E-1,2.982388437E0
1.637922821E1,2.674393648E0,1.708995540E0,2.501240051E-1,3.183647147E0
1.638923521E1,2.808062752E0,1.784153311E0,2.656804492E-1,3.337514877E0
1.639924221E1,2.760628969E0,1.885818849E0,2.285887829E-1,3.351065184E0
1.640924921E1,2.790746807E0,1.949249445E0,1.998443093E-1,3.409952916E0
1.641925721E1,2.816856380E0,1.990628436E0,1.190446329E-1,3.451297300E0
1.642926421E1,2.747414846E0,2.046857015E0,-1.426647529E-3,3.426063925E0
1.643927121E1,2.677639437E0,2.100522176E0,-2.906101263E-1,3.415611309E0
1.644927821E1,2.499331520E0,2.149245270E0,-5.370328438E-1,3.339808011E0
1.645928521E1,2.232797889E0,2.163474469E0,-7.838005471E-1,3.206298721E0
1.646929321E1,2.005276296E0,2.045545485E0,-1.041860393E0,3.048091605E0
1.647930021E1,1.713331835E0,1.827508076E0,-1.279926270E0,2.813094915E0
1.648930721E1,1.347064000E0,1.639623004E0,-1.495739983E0,2.596186263E0
1.649931421E1,9.907826257E-1,1.615931255E0,-1.642760035E0,2.508295151E0
1.650932121E1,6.860257459E-1,1.702858302E0,-1.763962290E0,2.545961642E0
1.651932921E1,4.968332362E-1,1.712116783E0,-1.897308043E0,2.603452507E0
