"Time (s)","Linear Acceleration x (m/s^2)","Linear Acceleration y (m/s^2)","Linear Acceleration z (m/s^2)","Absolute acceleration (m/s^2)"
8.686000001E-3,1.630387180E-1,1.032653368E-1,-1.967554153E0,1.976996383E0
1.867800000E-2,7.059496947E-1,-5.248987019E-2,-1.977295030E0,2.100194227E0
2.867100000E-2,1.165728906E0,-5.536342585E-1,-2.128349075E0,2.489036874E0
3.866400000E-2,1.384298046E0,-1.088299272E0,-2.033255807E0,2.689759388E0
4.865600000E-2,1.488934263E0,-1.179551212E0,-1.726709095E0,2.567058745E0
5.864900000E-2,1.331710966E0,-9.623467389E-1,-6.839616787E-1,1.779710348E0
6.864100000E-2,5.417224935E-1,-6.093968153E-1,1.492712880E0,1.700887850E0
7.863400000E-2,1.148995052E-1,-5.955681503E-3,3.364137053E0,3.366103902E0
8.862700000E-2,1.148232356E0,-1.843871216E0,4.441874208E0,4.944547005E0
9.861900000E-2,7.883488038E-1,-2.598828034E0,4.161142368E0,4.968954295E0
1.086120000E-1,4.876083034E-1,-1.488467216E-1,2.870606909E0,2.915527608E0
1.186040000E-1,-3.091294277E-1,5.428496540E-2,8.053650784E-1,8.643614812E-1
1.285970000E-1,-5.377723704E-1,7.467271534E-1,-1.143992540E0,1.468168756E0
1.385900000E-1,-6.804570770E-1,2.001361877E0,-1.687939131E0,2.705108077E0
1.485820000E-1,-1.339752350E0,2.782395814E0,-1.677909402E0,3.514547309E0
1.585750000E-1,-2.240429674E0,3.061768469E0,-1.938440866E0,4.260458224E0
1.685670000E-1,-2.336103571E0,3.240911077E0,-2.052859767E0,4.491672041E0
1.785600000E-1,-1.552499637E0,3.474687436E0,-2.502366809E0,4.554728043E0
1.885530000E-1,-8.566895255E-1,3.426902236E0,-2.840703079E0,4.532898616E0
1.985450000E-1,-1.012867778E0,2.780019506E0,-2.684839114E0,3.995343622E0
2.085380000E-1,-1.170532174E0,1.022145044E0,-1.712954105E0,2.312820319E0
2.185300000E-1,-1.332747531E0,-1.247899316E0,2.567383754E-1,1.843741652E0
2.285230000E-1,-1.151745655E0,-3.109670321E0,1.863722806E0,3.803949298E0
2.385160000E-1,-3.275096384E-1,-3.601177914E0,2.750708583E0,4.543362481E0
2.485080000E-1,7.987001297E-1,-3.504046014E0,2.652489393E0,4.466761729E0
2.585010000E-1,1.377141054E0,-3.483156543E0,3.012971408E0,4.806963043E0
2.684930000E-1,1.201859509E0,-2.199769014E0,8.520404774E-1,2.647531486E0
2.784860000E-1,1.134601327E0,-2.984562126E-1,-1.233761918E0,1.702517181E0
2.884790000E-1,3.654315363E-1,1.635391227E0,-1.077965780E0,1.992499661E0
2.984710000E-1,-1.074074312E0,2.910428202E0,5.960558081E-1,3.159036321E0
3.084640000E-1,-2.438598391E0,2.975929297E0,1.934775247E0,4.306538349E0
3.184560000E-1,-2.718881896E0,1.894598151E0,3.183552230E0,4.595304747E0
3.284490000E-1,-2.192487476E0,2.044319616E-1,2.315234858E0,3.195169199E0
3.384410000E-1,-1.304918147E0,-1.463943702E0,1.169650122E0,2.283423732E0
3.484340000E-1,-1.411795601E-2,-2.797332819E0,-6.793651825E-1,2.878681515E0
3.584270000E-1,5.327889347E-1,-2.806873721E0,-2.256025953E0,3.640337516E0
3.684190000E-1,1.159077771E0,-1.658649259E0,-3.593719205E0,4.124244945E0
3.784120000E-1,1.900338363E0,-2.730394259E-1,-4.141089342E0,4.564477775E0
3.884040000E-1,3.801622805E-1,-8.785232480E-1,-5.284950319E0,5.370942779E0
3.983970000E-1,-7.204162909E-1,-4.245231761E0,-7.414128529E0,8.573814448E0
4.083900000E-1,4.478452635E-1,-6.094354654E0,-7.475949971E0,9.655648709E0
4.183820000E-1,9.433342248E-2,-5.135501334E0,-8.883352559E0,1.026139491E1
4.283750000E-1,5.063029189E0,-2.838322678E0,-1.197823176E1,1.331046116E1
4.383670000E-1,1.235374931E1,-1.362460450E0,-1.091068221E1,1.653827097E1
4.483600000E-1,3.745863172E0,-2.623118244E0,-2.944300538E0,5.438855200E0
4.583530000E-1,1.584118894E0,-2.608240297E0,-8.663000822E-1,3.172195761E0
4.683450000E-1,1.617595958E0,-3.492083780E0,2.372829348E-1,3.855848674E0
4.783380000E-1,-5.238000101E-1,-4.992491303E0,7.959972543E-1,5.082612270E0
4.883300000E-1,-2.098242347E0,-4.249600216E0,1.727762178E0,5.044490567E0
4.983230000E-1,-3.958348650E0,-3.741042143E0,3.433390014E0,6.438329545E0
5.083160000E-1,-5.708359483E0,-3.542393223E0,6.582033489E0,9.405162550E0
5.183080000E-1,-8.528617773E0,-5.831906472E0,1.451774535E1,1.781890525E1
5.283010000E-1,-9.156354965E0,-4.601226037E0,1.571700109E1,1.876257553E1
5.382930000E-1,-1.164043695E1,1.781967621E0,1.195072880E1,1.677781570E1
5.482901250E-1,-1.321237083E1,4.602824958E0,9.701514269E0,1.702563125E1
5.582831250E-1,-1.242937720E1,4.825241347E0,6.154382755E0,1.468498548E1
5.682751250E-1,-1.180998398E1,5.619270136E0,1.042580770E0,1.312017123E1
5.782681250E-1,-1.097384968E1,5.919164472E0,-2.884919432E0,1.279783751E1
5.882601250E-1,-9.909844716E0,5.503183025E0,-2.473494545E1,2.720859372E1
5.982531250E-1,-8.172228810E0,5.009539445E0,-2.818005474E1,2.976568989E1
6.082461250E-1,-3.792579501E0,-1.239742742E0,-4.151045688E0,5.757760124E0
6.182381250E-1,1.827756582E0,-3.428170204E0,-6.514219236E-1,3.939212561E0
6.282311250E-1,4.928887630E0,-3.561558057E0,-3.579151745E0,7.056128987E0
6.382231250E-1,5.404416536E0,-2.435622012E0,-4.429505300E0,7.400033100E0
6.482161250E-1,6.225452737E0,8.085529804E-3,-3.200002202E0,6.999738656E0
6.582081250E-1,5.600536242E0,1.204580804E0,1.458737049E-1,5.730471207E0
6.682011250E-1,9.285974872E-1,3.404586922E0,4.963393219E0,6.090055636E0
6.781941250E-1,-6.031692383E0,6.754002441E0,6.050620989E0,1.089072432E1
6.881861250E-1,-1.288611958E1,7.580041519E0,3.933180479E0,1.545894615E1
6.981791250E-1,-1.410488515E1,6.443305959E0,2.982531973E0,1.579112009E1
7.081711250E-1,-6.375745475E0,1.178282366E0,3.610853301E0,7.421370579E0
7.181641250E-1,-4.556462093E0,-3.477456093E-1,2.723773384E-1,4.577822979E0
7.281571250E-1,-4.891257289E0,3.964412212E-3,-2.253658707E0,5.385479659E0
7.381491250E-1,-7.554454688E0,-9.499503493E-1,-2.638618044E0,8.058194369E0
7.481421250E-1,-9.147091806E0,-3.342895288E0,-1.800905876E0,9.903913337E0
7.581341250E-1,-8.660000616E0,-3.883079197E0,-1.694115838E0,9.640743912E0
7.681271250E-1,-1.099905118E1,-6.811602777E-1,8.267015684E0,1.377630773E1
7.781201250E-1,-9.177231864E0,4.980240217E0,2.152182794E1,2.392098358E1
7.881121250E-1,1.391233867E0,2.176923065E0,-4.930279852E0,5.566164310E0
7.981051250E-1,1.074064986E1,2.703344382E0,-1.193257203E1,1.628053763E1
8.080971250E-1,1.664770007E1,4.223400596E0,-4.799898638E0,1.783317294E1
8.180901250E-1,1.983894080E1,2.234067319E0,2.255099754E0,2.009129423E1
8.280821250E-1,1.745689507E1,2.330793715E0,-2.316261045E0,1.776346954E1
8.380751250E-1,1.198049581E1,5.708116824E0,-5.288410116E0,1.428573271E1
8.480681250E-1,8.962808619E0,5.551866358E0,-7.558792738E0,1.297268307E1
8.580601250E-1,9.988410244E0,1.272664028E-1,-6.349228937E0,1.183626816E1
8.680531250E-1,1.390198092E1,-4.986327753E0,-5.677202595E0,1.582274209E1
8.780451250E-1,1.971010325E1,-9.490809853E0,-8.336625617E0,2.341074473E1
8.880381250E-1,1.822841179E1,-1.163458622E1,-5.780949157E0,2.238432412E1
8.980311250E-1,6.778337967E0,-1.579272721E0,-3.285648124E0,7.696457076E0
9.080231250E-1,-1.367354306E1,5.969273940E0,9.102809672E0,1.747738983E1
9.180161250E-1,-2.752080457E1,8.351962863E0,1.485834566E1,3.237159872E1
9.280081250E-1,-2.522008191E1,1.333908701E1,2.783519649E0,2.866586394E1
9.380011250E-1,-1.133440420E1,6.200060034E0,-5.276259018E0,1.395522742E1
9.479931250E-1,-9.416496420E-1,1.065831639E0,-5.488320572E0,5.669599971E0
9.579861250E-1,1.705244551E0,-2.863541719E0,-1.108352298E0,3.512289135E0
9.679791250E-1,-3.592038131E-1,-2.142401689E0,1.845425114E0,2.850351948E0
9.779711250E-1,-4.376690032E0,-2.227648830E0,5.677278024E-1,4.943697989E0
9.879641250E-1,-4.077470466E0,2.711769050E-1,-2.850710589E0,4.982554884E0
9.979561250E-1,-5.405892373E0,4.640970147E0,-5.187687734E0,8.813307000E0
1.007949125E0,-4.012697935E0,5.843330178E0,1.618169569E0,7.270813231E0
1.017942125E0,5.306669801E-1,4.522664017E0,5.738581987E0,7.325805108E0
1.027934125E0,4.136718548E0,-4.364969873E-1,4.535496901E0,6.154161365E0
1.037927125E0,7.268477896E0,-8.685257079E0,2.622754548E0,1.162511518E1
1.047919125E0,2.192336910E0,-1.081649176E1,1.739242163E0,1.117263614E1
1.057912125E0,-2.007984141E0,-1.406803833E1,-2.395063385E-2,1.421063955E1
1.067904125E0,-3.510337910E0,-1.289851100E1,2.705041829E-1,1.337038634E1
1.077897125E0,-4.864493998E0,-1.049011538E1,-2.191648985E0,1.176899094E1
1.087890125E0,-3.269068051E0,-7.223828557E0,-1.889160094E0,8.151038634E0
1.097882125E0,-9.647847354E-1,-1.734606929E0,4.344168404E-1,2.031843688E0
1.107875125E0,7.494075170E-1,-8.393239528E-1,1.797455726E0,2.120595061E0
1.117867125E0,1.215342604E0,3.660707831E-2,1.885422700E0,2.243483114E0
1.127860125E0,1.714750369E0,-2.504239672E-1,-1.068502062E0,2.035872699E0
1.137853125E0,-3.942818445E-1,-2.051671028E-2,-4.845552528E-1,6.250383199E-1
1.147845125E0,-2.961737520E-1,6.358077528E0,1.575633999E0,6.557094726E0
1.157838125E0,2.024579124E0,6.834191156E0,-3.478239620E-1,7.136250479E0
1.167830125E0,1.029287418E0,3.569555587E-1,-5.232357538E0,5.344568763E0
1.177823125E0,-1.351110858E0,3.928235489E-1,-1.927127674E0,2.386133266E0
1.187815125E0,-2.039824862E0,1.253510889E0,2.087488732E0,3.176442070E0
1.197808125E0,-1.961867444E0,1.025364813E0,6.602594054E-1,2.310030162E0
1.207801125E0,-1.349113742E0,8.129231894E-1,-3.653059673E-1,1.616910774E0
1.217793125E0,-3.800567383E-1,-6.488017863E-1,-2.137421615E0,2.265823921E0
1.227786125E0,1.159953099E-1,-1.927515344E0,-1.994637287E0,2.776211126E0
1.237778125E0,1.002804793E0,-1.730896870E0,-4.211083583E-1,2.044248928E0
1.247771125E0,9.642640409E-1,-8.423586577E-1,5.358890554E-1,1.388002280E0
1.257763125E0,6.115398198E-2,1.363218103E0,9.537205609E-1,1.664838225E0
1.267756125E0,1.691688366E0,5.904986728E0,-6.817488000E-4,6.142530281E0
1.277749125E0,4.900925660E0,1.408478476E1,2.733538234E-1,1.491559440E1
1.287741125E0,3.236259909E0,5.608896006E0,2.376518210E-1,6.479936033E0
1.297734125E0,8.080588907E-1,1.971161885E0,-1.982827080E0,2.910333586E0
1.307726125E0,9.326763587E-1,3.608605047E0,-1.997831036E0,4.228858525E0
1.317719125E0,1.206303978E0,4.406884469E0,-1.500542886E0,4.809098561E0
1.327711125E0,1.636558624E0,5.133348389E0,-1.565230633E0,5.610662773E0
1.337704125E0,1.925661338E0,8.035364202E0,-1.127940836E0,8.339514373E0
1.347697125E0,4.012382770E-1,8.175672235E0,4.178397647E-1,8.196169759E0
1.357689125E0,-6.041525938E-2,4.945001972E0,8.754744367E-1,5.022265424E0
1.367682125E0,-1.067692807E-1,2.878704718E0,4.926138854E-1,2.922500466E0
1.377674125E0,-9.130840932E-1,-4.768928275E0,5.664139330E-1,4.888478720E0
1.387667125E0,-1.747279307E0,-1.128263763E1,1.305638816E0,1.149154427E1
1.397659125E0,-1.263371341E0,-7.565141644E0,-1.697474917E0,7.855501024E0
1.407652125E0,-4.480022612E-1,-6.659131367E0,-3.240184268E0,7.419132744E0
1.417645125E0,-8.244958524E-1,-7.502784013E0,4.745788796E-1,7.562855709E0
1.427637125E0,-6.784788908E-1,-8.857568677E0,1.978904914E0,9.101259316E0
1.437630125E0,-4.407046437E-1,-1.060366714E1,-7.211955786E-1,1.063729761E1
1.447622125E0,6.886778967E-1,-7.863452554E0,-1.270418405E0,7.995131408E0
1.457615125E0,4.043437332E-1,-2.933397235E0,-4.552935930E-1,2.995931482E0
1.467607125E0,1.101571575E-1,-1.317194669E0,4.050132394E-1,1.382451489E0
1.477600125E0,8.951914671E-1,-3.537138623E-1,9.229223259E-1,1.333516734E0
1.487593125E0,1.336111873E0,3.417007577E-1,2.141375795E0,2.547046258E0
1.497585125E0,1.502777107E0,1.544121015E-1,1.647170005E0,2.235028223E0
1.507578125E0,1.645114416E0,1.945544064E0,2.941740919E0,3.891706924E0
1.517570125E0,2.864548025E-1,5.987188055E0,3.951202183E0,7.179169579E0
1.527563125E0,-4.666484472E-1,6.976715283E0,4.206357132E0,8.160009635E0
1.537555125E0,-6.953143403E-1,6.003767835E0,3.982420175E0,7.237980429E0
1.547548125E0,-1.590190935E0,6.040117636E0,1.661729864E0,6.463209296E0
1.557541125E0,-1.995850876E0,4.944539457E0,2.612457893E0,5.937745987E0
1.567533125E0,-9.222611520E-1,3.382879719E0,3.402879243E0,4.886105603E0
1.577526125E0,-3.073705852E-1,1.675843581E0,2.966797700E0,3.421230331E0
1.587518125E0,-1.855540797E-2,1.256422802E0,2.133499303E0,2.476037527E0
1.597511125E0,2.911771600E-1,1.457104506E0,1.124943480E0,1.863715513E0
1.607503125E0,2.868394031E-1,1.564793846E0,2.124705675E-1,1.604992326E0
1.617496125E0,-5.219692469E-2,2.104808185E0,3.342364946E-1,2.131819891E0
1.627489125E0,-4.907939395E-1,3.839181810E0,5.968100989E-1,3.916168785E0
1.637481125E0,-1.160420877E0,6.369180222E0,3.759174943E-1,6.484932326E0
1.647474125E0,-1.462099490E0,8.692941490E0,-6.196007913E-1,8.836790809E0
1.657466125E0,-9.044584268E-1,8.667622461E0,-2.665816367E0,9.113303522E0
1.667459125E0,-7.675327161E-1,6.622588608E0,-3.725288574E0,7.637117342E0
1.677451125E0,7.675090349E-1,4.787086219E0,-2.828263713E0,5.612872724E0
1.687444125E0,1.182883540E0,7.836607402E0,-5.504988061E0,9.649690285E0
1.697436125E0,-4.638508469E0,1.528115549E1,-5.085790645E0,1.675991469E1
1.707429125E0,-3.741380696E0,1.456646669E-1,-9.617997319E-1,3.865773717E0
1.717422125E0,-5.114005215E0,-5.170213330E0,3.055730926E0,7.888069898E0
1.727414125E0,-2.642318746E-1,-1.390278900E1,-1.723303676E0,1.401167856E1
1.737407125E0,4.517863453E0,-1.701150096E1,-3.071775686E0,1.786723429E1
1.747399125E0,7.969752011E-1,-3.772484960E0,-2.309826184E0,4.494675655E0
1.757392125E0,-2.402371528E0,3.252586797E0,-6.456852204E-1,4.094828352E0
1.767384125E0,-1.868389761E0,1.809585775E0,-1.640360922E0,3.075104052E0
1.777377125E0,9.970639971E-1,-2.257715213E0,-3.563228899E-1,2.493668102E0
1.787370125E0,2.570054470E0,-6.133906390E0,-1.033100680E0,6.730325742E0
1.797362125E0,2.668724772E0,-5.416182888E0,-2.040609850E0,6.373477665E0
1.807355125E0,5.850601190E0,-7.371940868E0,-3.456448216E0,1.002607005E1
1.817347125E0,7.648321211E0,-1.017018848E1,-4.483540297E0,1.349191183E1
1.827340125E0,6.907892970E0,-9.698766078E0,-5.499927880E0,1.311618296E1
1.837332125E0,6.511686807E0,-7.470333136E0,-4.931904209E0,1.106940023E1
1.847325125E0,7.079044481E0,-7.096269209E0,-4.219847243E0,1.087552381E1
1.857317125E0,6.379526285E0,-8.241879088E0,-4.744987435E0,1.145171744E1
1.867310125E0,6.434701781E0,-8.535125724E0,-5.226484010E0,1.189831472E1
1.877303125E0,6.567914218E0,-8.043453825E0,-5.101992111E0,1.157000303E1
1.887295125E0,4.394680161E0,-2.975364456E0,-6.613575709E0,8.479704654E0
1.897288125E0,9.540977794E-1,7.638861001E-1,-7.056549073E0,7.161613601E0
1.907280125E0,-4.008585295E0,3.898735117E0,-4.265629773E0,7.033099526E0
1.917273125E0,-3.718839388E0,7.456289293E0,-3.726778445E0,9.127699271E0
1.927265125E0,2.434847841E-1,2.459655238E0,-4.445708812E0,5.086601574E0
1.937258125E0,9.819875363E-1,-5.187591255E0,-5.840508896E0,7.873178946E0
1.947251125E0,2.826893418E0,-8.510269210E0,-7.242865922E0,1.152714688E1
1.957243125E0,4.460833805E0,-8.559384068E0,-7.152617072E0,1.201341021E1
1.967236125E0,4.083728741E0,-7.564796659E0,-6.728669963E0,1.091686715E1
1.977228125E0,2.927735960E0,-7.053393915E0,-5.280427498E0,9.284660367E0
1.987221125E0,2.357171089E0,-7.587259322E0,-4.296051666E0,9.032099395E0
1.997213125E0,2.404007579E0,-9.385068805E0,-2.785802402E0,1.008064799E1
2.007206125E0,3.157655497E0,-1.163142522E1,-1.397346547E0,1.213315368E1
2.017198125E0,4.019356744E0,-1.384608504E1,-3.167998052E-1,1.442115327E1
2.027191125E0,4.283874840E0,-1.487921087E1,3.302893317E-1,1.548714275E1
2.037184125E0,3.932886072E0,-1.373817351E1,7.155188093E-1,1.430793386E1
2.047176125E0,3.035857995E0,-1.109864213E1,1.051890707E0,1.155433966E1
2.057169125E0,2.017614798E0,-6.857272455E0,1.136888465E0,7.237780763E0
2.067161125E0,1.100585734E0,-2.505213234E0,1.356963336E0,3.054297268E0
2.077154125E0,5.662955269E-1,1.356996666E0,1.041803237E0,1.802077845E0
2.087146125E0,-1.540568832E-1,5.092907292E0,1.029146500E-1,5.096276055E0
2.097139125E0,-1.779211244E0,8.464581991E0,-8.551180132E-1,8.691718343E0
2.107131125E0,-3.671742112E0,1.114252431E1,-1.629735947E0,1.184455898E1
2.117124125E0,-5.224280194E0,1.311368620E1,-1.856763450E0,1.423760653E1
2.127117125E0,-5.781050314E0,1.380369273E1,-1.272998489E0,1.501942079E1
2.137109125E0,-4.956701081E0,1.294825444E1,-7.067354874E-1,1.388256653E1
2.147102125E0,-4.701404629E0,1.209272609E1,1.870454121E-1,1.297583199E1
2.157094125E0,-3.876148492E0,9.555188282E0,1.553712788E0,1.042785566E1
2.167087125E0,-2.267913927E0,6.721515310E0,5.459147644E-1,7.114789145E0
2.177079125E0,-2.186107579E0,6.592703488E0,-1.363791715E0,7.078328438E0
2.187072125E0,-3.196566086E0,7.578293202E0,-2.186499635E0,8.510543064E0
2.197065125E0,-4.095297457E0,8.270864906E0,-2.557908926E0,9.577137653E0
2.207057125E0,-4.167861988E0,8.544936182E0,-1.040624292E0,9.563990110E0
2.217050125E0,-3.932933435E0,8.878960131E0,1.075314726E0,9.770373594E0
2.227042125E0,-3.319961047E0,9.126066388E0,1.996147184E0,9.914223754E0
2.237035125E0,-2.188833259E0,9.184290622E0,2.178097186E0,9.689493930E0
2.247027125E0,-1.412209876E0,9.218716689E0,1.894924718E0,9.516817421E0
2.257020125E0,-1.630467726E0,9.004827295E0,1.567035084E0,9.284446056E0
2.267012125E0,-2.041518508E0,8.687523460E0,1.463922944E0,9.043446913E0
2.277005125E0,-2.253333310E0,8.888021561E0,1.406889203E0,9.276517423E0
2.286998125E0,-2.527256067E0,9.461728726E0,1.201704631E0,9.866885412E0
2.296990125E0,-3.064072857E0,9.898943167E0,6.071246604E-1,1.038008760E1
2.306983125E0,-4.010290636E0,1.011140058E1,6.946726084E-2,1.087785265E1
2.316975125E0,-4.915453652E0,1.005316933E1,-5.271922722E-3,1.119052840E1
2.326968125E0,-5.259214969E0,9.676758912E0,1.624472722E-1,1.101478072E1
2.336960125E0,-4.518601372E0,9.203678820E0,2.313953733E-1,1.025568164E1
2.346953125E0,-3.420538126E0,8.974822893E0,1.046756852E-1,9.605128007E0
2.356945125E0,-2.612241254E0,8.931948184E0,-7.712236248E-2,9.306419859E0
2.366938125E0,-2.140696348E0,8.953376475E0,-2.343224895E-1,9.208715339E0
2.376931125E0,-1.872897672E0,8.975367268E0,-4.735344938E-1,9.180914889E0
2.386923125E0,-1.748618027E0,8.991364081E0,-7.443388581E-1,9.190012697E0
2.396916125E0,-1.901096747E0,9.000114439E0,-9.951983698E-1,9.252386101E0
2.406908125E0,-2.155091024E0,8.978914774E0,-1.317325062E0,9.327415138E0
2.416901125E0,-2.318528010E0,8.861959936E0,-1.882003395E0,9.351569003E0
2.426893125E0,-2.410512021E0,8.770592514E0,-2.620068337E0,9.465654723E0
2.436886125E0,-2.741645399E0,9.096686468E0,-3.451172566E0,1.010825980E1
2.446878125E0,-2.993462173E0,9.419699525E0,-3.788297585E0,1.058502496E1
2.456871125E0,-2.373009150E0,8.332656527E0,-2.798927647E0,9.104852178E0
2.466863125E0,-7.118955821E-2,4.193797313E0,-1.110862070E0,4.339011223E0
2.476856125E0,3.044307221E0,-2.396392457E0,1.550240711E0,4.172978496E0
2.486849125E0,4.539106680E0,-1.331317449E1,2.421695406E0,1.427265613E1
2.496841125E0,5.419419322E0,-2.740072849E1,1.281080628E1,3.072924966E1
2.506834125E0,3.763489019E0,-3.176210349E1,9.177648185E0,3.327498000E1
2.516826125E0,8.219204755E0,-2.728728782E1,-1.696556992E1,3.316597603E1
2.526819125E0,1.458797860E1,-4.963595650E1,-4.628623166E1,6.941867572E1
2.536811125E0,3.346638091E0,-5.267045092E1,-2.104954365E1,5.681953603E1
2.546799625E0,-3.434355389E0,-1.577370388E1,1.853919949E1,2.458264528E1
2.556791625E0,8.974160403E-1,7.374415995E0,1.743262211E1,1.894950344E1
2.566784625E0,5.783761668E0,1.384985767E1,-7.656554675E-1,1.502852903E1
2.576777625E0,7.136550093E0,1.495541646E1,-4.887931685E-1,1.657811049E1
2.586769625E0,6.035330520E0,1.076774586E1,4.702245458E0,1.320911343E1
2.596762625E0,5.118570721E0,1.794950779E0,5.038690739E0,7.403378883E0
2.606754625E0,5.286931940E0,-8.988486081E0,-9.330331850E-1,1.046972217E1
2.616747625E0,8.332108058E0,-2.395893807E1,-2.212712703E0,2.546273425E1
2.626739625E0,2.158556376E0,-2.374098428E1,-4.350079939E-2,2.383895116E1
2.636732625E0,-5.742775610E0,-8.974694254E0,1.070768004E0,1.070846174E1
2.646724625E0,-5.068496336E0,-3.303445294E0,9.421245821E-1,6.122908185E0
2.656717625E0,-4.282713875E0,5.479150969E-1,1.449316453E0,4.554378911E0
2.666710625E0,-1.910270151E0,2.675837325E0,2.246669677E0,3.982055007E0
2.676702625E0,-1.344538003E-2,3.330716708E0,8.723237376E-1,3.443080491E0
2.686695625E0,1.499883613E0,4.395443223E0,-3.665372448E-1,4.658746776E0
2.696687625E0,2.844245322E0,5.530149214E0,-2.854656728E-1,6.225252801E0
2.706680625E0,2.840890775E0,6.356411072E0,-2.591778338E-1,6.967194217E0
2.716672625E0,1.417687840E0,6.208111650E0,-4.543111145E-1,6.384112128E0
2.726665625E0,-4.273803011E-1,5.731094627E0,-6.502921685E-1,5.783682171E0
2.736657625E0,-1.675660563E0,4.668960768E0,-3.539623690E-1,4.973160196E0
2.746650625E0,-2.191538181E0,3.716933488E0,1.667965773E-1,4.318130990E0
2.756642625E0,-2.067799403E0,3.500643811E0,4.954967089E-1,4.095829397E0
2.766635625E0,-1.436767890E0,3.396825913E0,1.167638680E0,3.868605477E0
2.776628625E0,-9.513487110E-1,2.991530253E0,1.627964094E0,3.536182223E0
2.786620625E0,-7.426300094E-1,2.289233460E0,1.794413420E0,3.002000781E0
2.796613625E0,-7.953926522E-1,1.587485721E0,1.653781013E0,2.426469044E0
2.806605625E0,-6.291747299E-1,9.877818346E-1,1.708486393E0,2.071352107E0
2.816598625E0,-5.743255082E-1,1.041306662E0,2.205192160E0,2.505402526E0
2.826590625E0,-1.018986086E0,1.524081438E0,2.062225106E0,2.759334931E0
2.836583625E0,-1.417314496E0,1.811114237E0,1.358739721E0,2.671158698E0
2.846575625E0,-1.897509187E0,2.133825577E0,5.341489971E-1,2.905007377E0
2.856568625E0,-2.492044719E0,2.758466084E0,-2.498199499E-1,3.725833065E0
2.866560625E0,-2.962038943E0,3.660140651E0,-7.088800268E-1,4.761597965E0
2.876553625E0,-3.282029282E0,4.568962855E0,-5.571823490E-1,5.653104452E0
2.886546625E0,-3.306252542E0,5.159266757E0,1.336071235E-1,6.129207959E0
2.896538625E0,-2.707711083E0,5.395557420E0,1.020889647E0,6.122577468E0
2.906531625E0,-1.525221352E0,5.042304903E0,1.554730788E0,5.492570139E0
2.916523625E0,-9.714374050E-2,4.102217637E0,1.758783996E0,4.464408986E0
2.926516625E0,9.041141720E-1,3.072611838E0,1.843480915E0,3.695509143E0
2.936508625E0,1.491537151E0,1.867308319E0,1.646197905E0,2.901980526E0
2.946501625E0,1.416661654E0,1.009395483E0,6.313776684E-1,1.850526207E0
2.956493625E0,8.615473191E-1,6.470599008E-1,-1.685632405E0,2.000576642E0
2.966486625E0,2.595222348E-1,8.274219453E-1,-4.395643782E0,4.480364173E0
2.976478625E0,-5.714966252E-2,2.257557338E0,-6.016072716E0,6.425960017E0
2.986471625E0,-7.984519154E-3,4.741939282E0,-6.070122038E0,7.702754927E0
2.996464625E0,7.654905760E-1,6.578949668E0,-4.059007882E0,7.768146468E0
3.006456625E0,1.989369530E0,6.837262114E0,2.921309870E-1,7.126786432E0
3.016449625E0,3.355355997E0,4.753773462E0,2.973093397E0,6.534222245E0
3.026441625E0,3.829489465E0,2.319317969E0,8.449899048E-1,4.556120427E0
3.036434625E0,1.264049618E0,-1.004960369E0,-1.482922887E0,2.192447734E0
3.046426625E0,-2.370771420E0,-6.353921328E0,-4.085506879E0,7.917337925E0
3.056419625E0,-3.767357829E0,-8.257758957E0,-2.538142998E0,9.424740733E0
3.066411625E0,-2.651797960E0,-5.258132064E0,1.128337789E0,5.996093011E0
3.076404625E0,1.095912347E0,-4.583023655E0,-1.596267069E0,4.975258611E0
3.086396625E0,3.806670999E0,-7.765180739E0,-5.428016483E0,1.021039367E1
3.096389625E0,3.927456640E0,-1.168563008E1,-9.337567195E0,1.546509059E1
3.106381625E0,4.431880147E0,-1.518803273E1,-1.105865887E1,1.930315611E1
3.116374625E0,5.982813168E0,-1.749972125E1,-8.922132463E0,2.053384389E1
3.126367625E0,6.649878148E0,-1.634084170E1,-7.247155439E0,1.907263088E1
3.136359625E0,6.062546386E0,-1.127628639E1,-5.772880000E0,1.404404667E1
3.146352625E0,4.132782495E0,-6.674380905E0,-4.802818152E0,9.202951365E0
3.156344625E0,2.517788841E0,-4.567577650E0,-6.003342742E0,7.952493340E0
3.166337625E0,1.720417491E0,-4.918664943E0,-6.387510658E0,8.243384837E0
3.176329625E0,1.379746281E0,-7.303326132E0,-5.920583591E0,9.502398773E0
3.186322625E0,1.514828073E0,-1.050743366E1,-3.994685294E0,1.134276760E1
3.196314625E0,2.179916693E0,-1.382104025E1,-2.463326120E0,1.420708154E1
3.206307625E0,2.863876764E0,-1.656782126E1,-1.734168388E0,1.690271668E1
3.216299625E0,3.293907608E0,-1.780297306E1,-1.392567325E0,1.815860459E1
3.226292625E0,3.644406671E0,-1.610389264E1,-1.557559378E0,1.658442189E1
3.236284625E0,3.281486660E0,-1.164926858E1,-1.741101431E0,1.222722566E1
3.246277625E0,2.110620171E0,-6.137442786E0,-1.749800334E0,6.721958247E0
3.256270625E0,9.657087417E-1,-1.843193232E0,-1.368001856E0,2.490257766E0
3.266262625E0,-1.138591759E-1,1.442134464E0,-9.060118859E-1,1.706919231E0
3.276255625E0,-7.639935426E-1,4.292880136E0,-9.925250959E-1,4.471868968E0
3.286247625E0,-1.432441535E0,7.112271284E0,-1.175426002E0,7.349688283E0
3.296240625E0,-1.988213097E0,9.886736519E0,-1.498013381E0,1.019532218E1
3.306232625E0,-2.063375107E0,1.218065184E1,-1.232636329E0,1.241552208E1
3.316225625E0,-1.857742712E0,1.350393873E1,1.093406304E-1,1.363156354E1
3.326217625E0,-1.025120692E0,1.358335444E1,1.591170051E0,1.371459852E1
3.336210625E0,9.195226085E-1,1.252919618E1,1.699195021E0,1.267728451E1
3.346202625E0,1.521212209E0,1.137985578E1,8.665374792E-1,1.151373490E1
3.356195625E0,6.148429120E-1,9.557873324E0,-9.239840341E-1,9.622095446E0
3.366187625E0,-5.994048008E-1,7.415301481E0,-2.942235886E0,8.000170884E0
3.376180625E0,-2.804897362E0,7.133792546E0,-2.524162306E0,8.070306106E0
3.386172625E0,-5.031161279E0,7.370089055E0,2.904604375E-1,8.928334882E0
3.396165625E0,-6.041202294E0,8.423440982E0,2.676000463E0,1.070567427E1
3.406157625E0,-5.484021115E0,9.763240401E0,3.665907176E0,1.178279365E1
3.416150625E0,-3.923422061E0,1.036991417E1,4.140633259E0,1.183525261E1
3.426143625E0,-1.514900140E0,1.019642143E1,3.956890354E0,1.104168980E1
3.436135625E0,4.030362958E-1,1.004942009E1,2.750378215E0,1.042678583E1
3.446128625E0,9.401549475E-1,1.046155992E1,1.252405473E0,1.057812113E1
3.456120625E0,6.877199766E-1,1.020086999E1,2.067926288E-1,1.022611708E1
3.466113625E0,-7.558735143E-1,9.747711366E0,-1.005334445E-1,9.777490916E0
3.476105625E0,-1.979153421E0,9.202857286E0,-3.275960311E-1,9.418967547E0
3.486098625E0,-2.672951725E0,9.008573021E0,-2.448557369E-1,9.399947507E0
3.496090625E0,-3.032937310E0,9.176161823E0,4.059054514E-1,9.672921677E0
3.506083625E0,-3.228477557E0,9.374926225E0,1.061026470E0,9.971864732E0
3.516075625E0,-3.406370323E0,9.515519017E0,1.317347427E0,1.019234346E1
3.526068625E0,-3.436655391E0,9.602867648E0,1.185008492E0,1.026790692E1
3.536060625E0,-3.314050974E0,9.589999096E0,9.226334734E-1,1.018833986E1
3.546053625E0,-3.157870382E0,9.470121235E0,6.706943464E-1,1.000525724E1
3.556045625E0,-3.040297785E0,9.276446834E0,3.963125825E-1,9.770002055E0
3.566038625E0,-2.967266062E0,9.054490036E0,1.708463589E-1,9.529829284E0
3.576030625E0,-2.971430449E0,8.851979908E0,-1.415033497E-2,9.337405820E0
3.586023625E0,-3.091669083E0,8.863404783E0,-1.560105841E-1,9.388434447E0
3.596016625E0,-3.300782472E0,9.074576392E0,-1.233551272E-1,9.657034643E0
3.606008625E0,-3.447405205E0,8.954733029E0,-2.508791730E-2,9.595440358E0
3.616001625E0,-3.291945575E0,8.316189598E0,-4.290145978E-1,8.954326810E0
3.625993625E0,-2.494077796E0,7.127548304E0,-2.606468883E0,7.988494784E0
3.635986625E0,-1.352927296E0,5.360936056E0,-9.845651643E0,1.129189550E1
3.645978625E0,-1.046584797E0,2.151880610E0,-1.762560713E1,1.778729762E1
3.655971625E0,3.976125939E0,-3.182341272E0,-6.875688261E0,8.556398922E0
3.665963625E0,1.638359771E1,-9.981028719E0,1.116415200E1,2.219642985E1
3.675956625E0,2.529540107E1,-1.368079127E1,1.484792826E1,3.236483182E1
3.685948625E0,3.344166239E1,-2.927948097E1,-3.399379859E1,5.595722592E1
3.695941625E0,2.411494061E-1,-6.640791341E1,-5.756120243E1,8.788265552E1
3.705933625E0,-4.149761932E1,-6.524839183E1,2.434742240E1,8.106911880E1
3.715926625E0,-1.377303461E1,-2.358910402E1,2.208348809E1,3.512581325E1
3.725918625E0,8.950752245E0,8.913411341E0,-1.004134743E1,1.613671359E1
3.735911625E0,7.089123327E0,1.881726617E1,1.268658101E0,2.014831678E1
3.745903625E0,-2.058830213E0,1.961859199E1,1.469551474E1,2.459849766E1
3.755896625E0,-1.766304100E0,1.534731322E1,-1.686791323E0,1.554043495E1
3.765888625E0,3.354226608E0,4.635721101E0,-8.283555703E0,1.006767308E1
3.775881625E0,3.483844176E0,-6.608219075E0,1.134023622E-1,7.471183955E0
3.785874625E0,4.842853161E0,-1.794521593E1,4.399092762E0,1.910068111E1
3.795866625E0,7.340503898E0,-3.057784118E1,-3.817930689E-1,3.144889719E1
3.805859625E0,3.006048889E0,-2.431473646E1,-1.666174918E0,2.455644270E1
3.815851625E0,-2.472833400E0,-5.732486265E0,2.202588834E0,6.620249343E0
3.825844625E0,-4.096166353E0,3.474290995E0,2.834254185E0,6.073077761E0
3.835836625E0,-4.308876364E0,6.887215462E0,1.724341557E0,8.305028967E0
3.845829625E0,-3.405072826E0,7.518479109E0,6.987337920E-1,8.283132136E0
3.855821625E0,-2.445341400E0,8.047196043E0,-2.381247877E-1,8.413902907E0
3.865814625E0,-1.730165676E0,7.768062832E0,-4.506225447E-1,7.971156384E0
3.875806625E0,-1.225003958E0,6.268849018E0,-5.525805902E-1,6.411275069E0
3.885799625E0,-9.274970412E-1,4.799943661E0,-4.088792722E-1,4.905801889E0
3.895791625E0,-3.996210833E-1,3.614965063E0,4.022548154E-2,3.637208752E0
3.905784625E0,6.472144134E-1,1.829756330E0,5.548798616E-1,2.018610013E0
3.915776625E0,1.513615799E0,6.102850074E-1,1.258015730E0,2.060602862E0
3.925769625E0,1.363782798E0,1.592980349E-1,1.784936253E0,2.251949558E0
3.935761625E0,6.938934669E-1,1.962682253E-1,2.685509205E0,2.780641841E0
3.945754625E0,-1.783810079E-1,1.318437202E0,4.179642373E0,4.386286221E0
3.955746625E0,-9.387809980E-1,2.556567575E0,3.954183093E0,4.801344756E0
3.965739625E0,-1.156006229E0,2.877907743E0,1.970850813E0,3.674636894E0
3.975731625E0,-9.208673219E-1,2.612067592E0,7.735723051E-1,2.875640422E0
3.985724625E0,7.328441092E-1,1.931466892E0,2.239639131E0,3.046901423E0
3.995717625E0,3.626973490E0,2.417872789E0,3.672943715E0,5.700136933E0
4.005709625E0,4.738605199E0,5.360404544E0,2.583369457E0,7.606715051E0
4.015702625E0,3.322547563E0,7.466883278E0,3.003677843E0,8.707223943E0
4.025694625E0,-3.133569646E-1,8.228194265E0,2.835212544E0,8.708605147E0
4.035687625E0,-3.189597666E0,8.526106979E0,2.087416519E0,9.339450798E0
4.045679625E0,-4.434949058E0,8.567414049E0,1.339306499E0,9.739768916E0
4.055672625E0,-4.886237162E0,8.311046972E0,2.039976597E-2,9.641018179E0
4.065664625E0,-4.595868818E0,7.038093506E0,-1.117624228E0,8.479731972E0
4.075657625E0,-3.572778572E0,4.575590090E0,-1.540922588E0,6.006264547E0
4.085649625E0,-2.419795353E0,2.182603635E0,-1.518305558E0,3.595054930E0
4.095642625E0,-9.825275266E-1,4.248376393E-1,-2.189731976E0,2.437370199E0
4.105634625E0,1.720978969E0,-2.438131052E-1,-3.699905811E0,4.087849857E0
4.115627625E0,3.102831710E0,2.410382506E0,-1.017233090E0,4.058604638E0
4.125619625E0,2.292021558E0,7.011761740E0,6.693570297E0,9.961026496E0
4.135612625E0,1.528929072E0,6.941455988E0,8.602149433E0,1.115878175E1
4.145604625E0,5.030209937E0,1.929467145E0,-8.882024072E0,1.038827257E1
4.155597625E0,9.604846346E0,-4.453693770E0,-2.322769931E1,2.552674043E1
4.165589625E0,7.423325030E0,-1.071325682E1,-8.779626462E0,1.571500770E1
4.175582625E0,4.693560004E-3,-1.668507898E1,4.750963874E0,1.734830079E1
4.185574625E0,3.611433345E-1,-1.670745043E1,-3.399457744E0,1.705361068E1
4.195567625E0,3.024699753E0,-9.223588589E0,-9.253593577E0,1.341090560E1
4.205559625E0,1.511169324E0,-1.464544503E0,-6.497265235E0,6.829566520E0
4.215552625E0,3.471062163E0,1.381308219E0,-5.359848474E0,6.533319263E0
4.225544625E0,5.261865512E0,-1.290947102E0,-8.012199288E0,9.672078914E0
4.235537625E0,4.092872032E0,-5.715321763E0,-9.397872453E0,1.173611993E1
4.245530625E0,2.716052721E0,-9.306113852E0,-8.931138344E0,1.318127192E1
4.255522625E0,2.955609637E0,-1.147291305E1,-8.151116853E0,1.438068385E1
4.265515625E0,3.872259217E0,-1.133371891E1,-8.694288104E0,1.479993991E1
4.275507625E0,4.639166865E0,-9.360336252E0,-8.706672506E0,1.359940845E1
4.285500625E0,4.958226035E0,-6.998437105E0,-7.778852699E0,1.157897563E1
4.295492625E0,4.827728460E0,-5.085699429E0,-7.710211065E0,1.042202741E1
4.305485625E0,4.085796901E0,-4.127536080E0,-7.293285878E0,9.323213465E0
4.315477625E0,2.793715439E0,-4.446080695E0,-5.438819799E0,7.559976210E0
4.325470625E0,1.516801508E0,-6.478864632E0,-2.952292512E0,7.279588231E0
4.335462625E0,1.975402871E-1,-1.064298031E1,-7.589171362E-1,1.067183242E1
4.345455625E0,-5.883613108E-1,-1.657718616E1,1.753009578E0,1.667999738E1
4.355447625E0,-5.019052573E-1,-2.379587092E1,2.584100651E0,2.394103084E1
4.365440625E0,1.007533729E-1,-2.674399495E1,1.416686505E0,2.678168064E1
4.375432625E0,-2.946360804E-1,-2.158713198E1,5.062824829E-1,2.159507814E1
4.385425625E0,-1.282337077E0,-1.138332786E1,4.492532730E-2,1.145541618E1
4.395417625E0,-1.649669105E0,-7.305984861E-1,-1.214300630E0,2.174789260E0
4.405410625E0,-1.448668582E0,8.080291284E0,-3.564760870E0,8.949707702E0
4.415402625E0,-2.003267046E-1,1.230905085E1,-4.310084399E0,1.304337729E1
4.425395625E0,1.350829023E0,1.317914461E1,-1.886006545E0,1.338176417E1
4.435387625E0,2.587630908E0,1.209150052E1,8.794434536E-1,1.239651722E1
4.445380625E0,2.909265776E0,1.028965061E1,2.265651054E0,1.093041224E1
4.455372625E0,8.305021124E-1,9.088652394E0,2.263667679E-1,9.129325167E0
4.465365625E0,2.589292979E0,6.071827086E0,-4.025003985E0,7.731246948E0
4.475358625E0,4.692406933E0,5.508364828E0,-5.004397988E0,8.797997791E0
4.485350625E0,1.845745688E0,7.613247272E0,-3.635162516E0,8.636128629E0
4.495343625E0,-3.273135959E0,1.109459703E1,-1.815712488E0,1.170898433E1
4.505335625E0,-7.832285725E0,1.332882397E1,6.010225061E-1,1.547137603E1
4.515328625E0,-1.053354382E1,1.248853582E1,4.005912241E0,1.682160531E1
4.525320625E0,-9.987025623E0,1.089976897E1,5.048006523E0,1.562139604E1
4.535313625E0,-6.624688343E0,1.052492269E1,2.503523973E0,1.268574497E1
4.545305625E0,-2.050353212E0,1.081889262E1,6.748797834E-1,1.103212802E1
4.555298667E0,1.435466007E0,1.014697387E1,6.992439616E-1,1.027183447E1
4.565290667E0,1.816274990E0,9.495000553E0,8.617031474E-1,9.705484153E0
4.575283667E0,8.230668660E-1,8.612296692E0,1.355299365E0,8.757050288E0
4.585275667E0,2.399988203E-1,7.803647817E0,1.811003140E0,8.014627319E0
4.595268667E0,-3.891307399E-2,7.892375221E0,2.475272566E0,8.271521936E0
4.605260667E0,-4.634787447E-1,8.803962573E0,3.202211280E0,9.379697576E0
4.615253667E0,-1.055763830E0,9.939487760E0,3.474332510E0,1.058201496E1
4.625245667E0,-1.328952835E0,1.058744345E1,3.254951996E0,1.115593058E1
4.635238667E0,-1.269798893E0,1.061130009E1,2.595677261E0,1.099770973E1
4.645230667E0,-1.055434997E0,1.024129764E1,1.913280298E0,1.047180796E1
4.655223667E0,-8.318849058E-1,9.655255777E0,1.588043106E0,9.820278892E0
4.665215667E0,-6.846031183E-1,9.304240404E0,1.628913828E0,9.470529615E0
4.675208667E0,-6.339348020E-1,9.242479189E0,1.165353661E0,9.337202153E0
4.685200667E0,-6.054531607E-1,9.453661907E0,6.047038400E-1,9.492310768E0
4.695193667E0,-6.762705436E-1,9.870586510E0,2.660518205E-1,9.897302838E0
4.705185667E0,-8.692296834E-1,1.021306962E1,-1.473486650E-1,1.025105180E1
4.715178667E0,-1.152203346E0,1.024371254E1,-4.951620289E-1,1.032019402E1
4.725170667E0,-1.540855784E0,9.927096341E0,-3.561795601E-1,1.005228045E1
4.735163667E0,-1.875234219E0,9.332964267E0,2.641970837E-1,9.523157327E0
4.745156667E0,-1.949490350E0,8.836754928E0,9.787034476E-1,9.102011356E0
4.755148667E0,-1.957008261E0,8.788594921E0,1.596205673E0,9.144241607E0
4.765141667E0,-1.923842269E0,9.061392090E0,2.029300750E0,9.483040505E0
4.775133667E0,-1.677335059E0,9.324414468E0,1.975451403E0,9.677838928E0
4.785126667E0,-1.250039543E0,9.322308885E0,1.482148861E0,9.521806922E0
4.795118667E0,-7.766948645E-1,9.147042105E0,6.166719941E-1,9.200647723E0
4.805111667E0,-7.970089687E-1,8.727741194E0,-3.257263108E-1,8.770107597E0
4.815103667E0,-1.446748356E0,8.059550040E0,-1.409707414E0,8.308832809E0
4.825096667E0,-2.432209577E0,7.197219048E0,-2.818814027E0,8.103167157E0
4.835088667E0,-3.142922852E0,6.312372183E0,-4.484831947E0,8.356896806E0
4.845081667E0,-2.034004105E0,4.331071810E0,-1.084623537E1,1.185479555E1
4.855073667E0,2.203686941E0,-2.533716656E0,-2.103840120E1,2.130470092E1
4.865066667E0,1.120850430E1,-1.184483806E1,-1.832342086E1,2.452913593E1
4.875058667E0,1.778266568E1,-1.753621022E1,1.179398483E1,2.761955730E1
4.885051667E0,2.753060684E1,-2.630810607E1,2.005278050E1,4.303678385E1
4.895043667E0,4.335270228E1,-5.956266224E1,-5.980134559E1,9.488608150E1
4.905036667E0,-1.273488252E1,-6.857402614E1,-1.211181491E1,7.079032670E1
4.915028667E0,-4.642777170E1,-2.940651290E1,8.052558057E1,9.749179510E1
4.925021667E0,-1.448801109E1,1.851064754E0,7.294574019E0,1.632604411E1
4.935014667E0,5.435788018E0,2.602682226E1,-4.296252927E1,5.052447120E1
4.945006667E0,-3.169996045E0,3.141517883E1,1.166579164E1,3.366085309E1
4.954999667E0,-6.846565034E0,1.702729429E1,9.352976362E0,2.059811570E1
4.964991667E0,-5.235226766E0,-6.714434917E0,-1.014267500E1,1.324254853E1
4.974984667E0,1.454527199E0,-1.989431394E1,-8.514285663E0,2.168853238E1
4.984976667E0,6.694408203E0,-3.450850794E1,-8.051341134E-1,3.516106458E1
4.994969667E0,6.817072263E0,-3.205716803E1,-2.428022971E0,3.286380671E1
5.004961667E0,5.961761438E0,-1.419785471E1,-2.298376166E0,1.556933559E1
5.014954667E0,2.889147553E0,-1.990621419E0,-3.557868757E0,4.996816717E0
5.024946667E0,2.031970151E0,6.245271290E0,-5.215784774E0,8.386699410E0
5.034939667E0,2.726426266E0,8.292398447E0,-3.786912088E0,9.515144526E0
5.044931667E0,1.258547973E0,4.990478691E0,-7.995386204E-1,5.208462592E0
5.054924667E0,-2.111750438E0,1.532807238E0,6.892782596E-1,2.698905789E0
5.064916667E0,-4.617835053E0,-1.186761999E0,5.479931572E-1,4.799281313E0
5.074909667E0,-5.976205230E0,-2.794214206E0,-1.880756915E-1,6.599851093E0
5.084901667E0,-6.185567125E0,-3.348809747E0,-3.493714276E-1,7.042572525E0
5.094894667E0,-4.477939249E0,-3.219639491E0,-7.827609122E-2,5.515808691E0
5.104886667E0,-1.439227521E0,-1.135486010E0,6.236280611E-1,1.936392599E0
5.114879667E0,5.953541422E-1,2.039305921E0,2.095307044E0,2.983877813E0
5.124871667E0,1.185175503E0,4.669356624E0,3.635008442E0,6.034966332E0
5.134864667E0,1.247087138E0,6.921298297E0,4.726499417E0,8.473452259E0
5.144857667E0,1.087107171E0,8.906024553E0,5.371998403E0,1.045741087E1
5.154849667E0,6.198371650E-1,1.049628302E1,5.396548523E0,1.181858246E1
5.164842667E0,2.620980795E-1,1.055125153E1,4.733217867E0,1.156723630E1
5.174834667E0,-9.677653536E-2,9.080894893E0,3.718366055E0,9.813167882E0
5.184827667E0,-1.747798540E-1,7.565962009E0,2.312407730E0,7.913378458E0
5.194819667E0,-1.600106643E-1,6.572124798E0,1.109273527E0,6.667001989E0
5.204812667E0,-5.535586832E-1,5.869928577E0,1.337178698E0,6.045703895E0
5.214804667E0,-1.149637734E0,5.766073256E0,2.308561431E0,6.316543643E0
5.224797667E0,-1.697342039E0,6.048558092E0,2.598614902E0,6.798442792E0
5.234789667E0,-2.066002700E0,6.353165283E0,1.971044649E0,6.965349472E0
5.244782667E0,-2.210205563E0,6.405414832E0,6.060703343E-1,6.803063211E0
5.254774667E0,-2.369214307E0,6.242493278E0,-3.409979224E-1,6.685669625E0
5.264767667E0,-2.510176935E0,5.931587466E0,6.794142991E-2,6.441221480E0
5.274759667E0,-3.030310156E0,5.459305519E0,1.937721074E0,6.537702911E0
5.284752667E0,-3.413337573E0,4.937040988E0,4.407960357E0,7.446835677E0
5.294744667E0,-1.956081478E0,3.083378316E0,4.831319236E0,6.055998856E0
5.304737667E0,2.137508154E0,-9.841741025E-1,1.954022527E-1,2.361296638E0
5.314730667E0,6.422205112E0,-5.327546700E0,-3.592923984E0,9.084964232E0
5.324722667E0,8.096231963E0,-8.584308409E0,-5.735696971E0,1.312011976E1
5.334715667E0,4.869013311E0,-1.052252065E1,-5.932247617E0,1.302391236E1
5.344707667E0,7.070871243E-1,-1.127194074E1,-7.286317166E0,1.344049992E1
5.354700667E0,8.524217159E-1,-9.097620853E0,-3.990473253E0,9.970817657E0
5.364692667E0,4.422248321E0,-7.279325066E0,-5.001108345E0,9.877040969E0
5.374685667E0,4.075007034E0,-1.064643484E1,-1.001236278E1,1.517233224E1
5.384677667E0,1.422600379E0,-1.534019833E1,-9.928572178E0,1.832817564E1
5.394670667E0,2.077045313E0,-1.816713999E1,-7.942836108E0,1.993609134E1
5.404662667E0,5.144873836E0,-1.588121079E1,-7.676518239E0,1.837420788E1
5.414655667E0,6.710968688E0,-8.884399796E0,-7.506723867E0,1.342834925E1
5.424647667E0,6.836877367E0,-5.312058011E0,-7.197630107E0,1.125907330E1
5.434640667E0,6.737823780E0,-5.286194606E0,-8.154997650E0,1.182565471E1
5.444632667E0,5.273124910E0,-5.816353464E0,-9.399372264E0,1.224679603E1
5.454625667E0,3.097777669E0,-7.215245429E0,-8.065675583E0,1.125660320E1
5.464617667E0,1.656179687E0,-1.009233398E1,-6.861856087E0,1.231597358E1
5.474610667E0,2.667923704E-2,-1.309138960E1,-6.411286021E0,1.457702925E1
5.484603667E0,-1.619074572E0,-1.685767358E1,-5.697003021E0,1.786780357E1
5.494595667E0,-1.933366799E0,-2.147953854E1,-4.860264122E0,2.210725334E1
5.504588667E0,-2.225866599E0,-2.307750072E1,-3.200720532E0,2.340448960E1
5.514580667E0,-2.677154118E0,-1.906741824E1,-2.885515555E0,1.946945794E1
5.524573667E0,-2.406110530E0,-1.024705247E1,-3.307622545E0,1.103321436E1
5.534565667E0,-1.833938697E0,-9.846377867E-1,-3.382520700E0,3.971685914E0
5.544558667E0,-1.383940928E0,5.548829899E0,-2.572053341E0,6.270587223E0
5.554550750E0,-1.584489900E0,1.027972671E1,-6.716966323E-1,1.042279070E1
5.564543750E0,-1.924604162E0,1.310379739E1,2.277460091E0,1.343876600E1
5.574535750E0,-1.762498147E0,1.398339872E1,5.303547388E0,1.505886630E1
5.584528750E0,1.378153281E-1,1.367496043E1,7.363761199E0,1.553217676E1
5.594520750E0,3.757050942E0,1.258378930E1,6.864738765E0,1.481863095E1
5.604513750E0,7.790567011E0,1.144955927E1,3.251716146E0,1.422529436E1
5.614505750E0,1.021737668E1,1.072197151E1,-2.267128865E-1,1.481238867E1
5.624498750E0,8.183756595E0,9.535869666E0,-2.576456294E0,1.282750207E1
5.634490750E0,3.512707494E0,8.318603328E0,-3.193240482E0,9.577842140E0
5.644483750E0,1.552894762E-1,9.351773590E0,-1.271861937E0,9.439142804E0
5.654476750E0,-2.790314698E0,1.133808444E1,8.930743365E-1,1.171049088E1
5.664468750E0,-5.258911498E0,1.123701883E1,1.564703068E0,1.250500052E1
5.674461750E0,-7.000342128E0,1.023716366E1,2.498459115E0,1.265095284E1
5.684453750E0,-7.464686480E0,9.255489244E0,3.026691899E0,1.226973876E1
5.694446750E0,-5.993287286E0,8.265028800E0,3.511208560E0,1.079623912E1
5.704438750E0,-3.019334933E0,7.857319409E0,3.736962540E0,9.209709049E0
5.714431750E0,-5.063230480E-1,8.347804323E0,3.347002373E0,9.008031135E0
5.724423750E0,1.092206236E0,9.043803665E0,2.524371636E0,9.452817112E0
5.734416750E0,2.099903248E0,9.614170901E0,1.171619391E0,9.910326319E0
5.744408750E0,2.652733807E0,1.012877383E1,3.591286764E-3,1.047039010E1
5.754401750E0,2.812156972E0,1.061257128E1,-5.378970623E-1,1.099200752E1
5.764393750E0,2.311735300E0,1.119805532E1,-6.606851558E-1,1.145325578E1
5.774386750E0,1.428139008E0,1.124921027E1,-5.373532712E-1,1.135222715E1
5.784378750E0,3.667617048E-1,1.091453202E1,-5.679013916E-1,1.093544857E1
5.794371750E0,-6.202075861E-1,1.030985625E1,-8.650511169E-1,1.036465661E1
5.804363750E0,-1.337136305E0,9.774416769E0,-6.787061282E-1,9.888771344E0
5.814356750E0,-1.512614463E0,9.710977403E0,4.209293604E-1,9.837086264E0
5.824349750E0,-1.356762485E0,9.414248750E0,1.319047505E0,9.602539783E0
5.834341750E0,-1.009662554E0,9.074310343E0,1.334252751E0,9.227283299E0
5.844334750E0,-7.275594688E-1,8.940148319E0,1.041003045E0,9.029910414E0
5.854326750E0,-8.736343179E-1,9.006860957E0,7.637493483E-1,9.081304657E0
5.864319750E0,-1.275044722E0,9.159677353E0,4.815766811E-1,9.260526138E0
5.874311750E0,-1.738809177E0,9.327330474E0,-1.171080351E-2,9.488028682E0
5.884304750E0,-2.287822965E0,9.484932817E0,-4.077146530E-1,9.765465462E0
5.894296750E0,-2.609989199E0,9.601000632E0,-3.585932176E-1,9.955895030E0
5.904289750E0,-2.520509258E0,9.265874484E0,-5.043676659E-2,9.602704865E0
5.914281750E0,-2.284927716E0,8.566656250E0,3.543867306E-1,8.873222860E0
5.924274750E0,-1.758850362E0,8.066171427E0,4.653812094E-1,8.268812234E0
5.934266750E0,-9.974554682E-1,7.893357553E0,-3.389528587E-2,7.956202597E0
5.944259750E0,-5.399163982E-1,8.288906490E0,-7.863570960E-1,8.343610609E0
5.954251750E0,-1.856016614E-1,8.637072514E0,-3.173092146E0,9.203368044E0
5.964244750E0,1.355391751E0,6.400858097E0,-9.396601853E0,1.145007413E1
5.974236750E0,3.304914992E-1,-5.005859792E-2,-6.082977726E0,6.092154669E0
5.984229750E0,-5.844423022E0,-5.899738852E0,1.202896221E1,1.461711773E1
5.994221750E0,-6.523913920E0,-1.147491513E1,2.589297715E1,2.906340304E1
6.004214750E0,5.913299130E0,-3.162131189E1,-7.922187835E0,3.313058304E1
6.014207750E0,3.167389240E1,-6.645693646E1,-7.284229242E1,1.035652424E2
6.024199750E0,1.905832699E1,-6.499858007E1,-4.042196845E0,6.785554210E1
6.034192750E0,-2.237102141E1,-1.924304638E1,5.334614581E1,6.096366709E1
6.044184750E0,-1.255129047E1,1.327316199E0,1.114455447E1,1.683739158E1
6.054177750E0,5.354238070E0,1.168388761E1,-1.838276191E1,2.243004749E1
6.064169750E0,7.108241383E0,1.777074321E1,3.125658363E-1,1.914220748E1
6.074162750E0,5.335267949E0,1.315961725E1,1.166710142E0,1.424787081E1
6.084154750E0,6.614756262E-1,-3.089524909E0,-6.841772071E0,7.536083813E0
6.094147750E0,3.487011905E-1,-1.976480980E1,-3.140999703E0,2.001587316E1
6.104139750E0,-2.100854444E0,-3.637471464E1,-1.373511541E0,3.646121211E1
6.114132750E0,-8.952415777E0,-2.572568597E1,-3.044573269E0,2.740850403E1
6.124124750E0,-3.947212335E0,-9.514381734E0,1.096776858E0,1.035890267E1
6.134117750E0,3.929752842E-1,-1.860244297E0,8.362456861E-1,2.077076134E0
6.144109750E0,2.477733659E0,1.696243347E0,1.339086352E0,3.287789202E0
6.154102750E0,4.225499747E0,2.270218899E0,2.166672896E0,5.263384215E0
6.164095750E0,5.205367375E0,3.451399730E0,-8.324251154E-1,6.300868288E0
6.174087750E0,5.663314873E0,4.510393635E0,-3.030916805E0,7.848773329E0
6.184080750E0,3.537804329E0,4.743387637E0,-1.899208681E0,6.214722790E0
6.194072750E0,2.294356790E-1,4.210463047E0,-1.351028413E-2,4.216731237E0
6.204065750E0,-2.985217599E0,3.168174053E0,9.780237088E-1,4.461544723E0
6.214057750E0,-5.329842902E0,2.470390726E0,1.736273093E0,6.125740767E0
6.224050750E0,-5.958393441E0,2.863886120E0,2.117808592E0,6.941859214E0
6.234042750E0,-4.947042065E0,4.546345240E0,1.762169242E0,6.946057924E0
6.244035750E0,-3.316638659E0,6.692331857E0,1.630996899E0,7.645099644E0
6.254027750E0,-2.680525038E0,7.713628178E0,2.112789634E0,8.434995802E0
6.264020750E0,-2.102193018E0,6.664405555E0,2.867940287E0,7.553714211E0
6.274012750E0,-1.698994462E0,5.438125150E0,3.854505900E0,6.878735571E0
6.284005750E0,-1.380066709E0,5.071806445E0,4.662785231E0,7.026334097E0
6.293997750E0,-1.185601619E0,5.388660629E0,4.410194578E0,7.063506975E0
6.303990750E0,-1.620284361E0,5.910987725E0,3.393645904E0,7.005849686E0
6.313982750E0,-2.133324617E0,6.708819836E0,2.190957845E0,7.372898602E0
6.323975750E0,-1.945241178E0,7.796813006E0,1.166718328E0,8.120066992E0
6.333967750E0,-7.597306301E-1,8.430811982E0,1.177780675E0,8.546516753E0
6.343960750E0,8.390185820E-1,8.228672567E0,2.107547313E0,8.535617147E0
6.353952750E0,2.111012519E0,7.754044132E0,3.127546137E0,8.623405308E0
6.363945750E0,3.396560449E0,7.193527116E0,3.397859116E0,8.650370040E0
6.373938750E0,4.520176612E0,6.546370152E0,3.088312197E0,8.533734879E0
6.383930750E0,5.513228542E0,5.525445714E0,4.076978715E0,8.806133927E0
6.393923750E0,4.914162587E0,3.690842627E0,6.423759302E0,8.890219165E0
6.403915750E0,2.499539680E0,1.033806438E0,3.182361152E0,4.176586749E0
6.413908750E0,1.293839720E0,-1.673264374E0,-8.546918389E0,8.804751492E0
6.423900750E0,7.719268987E-1,-4.851805540E0,-1.314091551E1,1.402923906E1
6.433893750E0,5.098304272E-2,-8.705224151E0,-5.643531404E0,1.037463125E1
6.443885750E0,2.445673960E-1,-1.086553352E1,-1.697861856E0,1.100010758E1
6.453878750E0,4.962149516E0,-1.157975922E1,-1.197480997E1,1.738130678E1
6.463870750E0,6.918775223E0,-1.252273384E1,-1.350203254E1,1.967214264E1
6.473863750E0,4.649033457E-1,-1.432145198E1,-6.888273808E0,1.589869297E1
6.483855750E0,-1.642261998E0,-1.208423477E1,-5.201560253E0,1.325827981E1
6.493848750E0,1.059926828E0,-5.483365642E0,-7.639657976E0,9.463356573E0
6.503840750E0,1.794340476E0,-3.592053918E0,-7.462855716E0,8.474474883E0
6.513833750E0,1.450348779E0,-7.286945742E0,-6.509958370E0,9.878392977E0
6.523825750E0,2.227870294E0,-1.095655245E1,-5.870933129E0,1.262843234E1
6.533818750E0,3.997129723E0,-1.266262380E1,-6.531939808E0,1.479815276E1
6.543810750E0,4.487431034E0,-1.295372860E1,-6.052548816E0,1.498564210E1
6.553803917E0,3.959038036E0,-1.229645478E1,-5.930023921E0,1.421414669E1
6.563795917E0,3.634483654E0,-1.118845302E1,-5.830594357E0,1.312961473E1
6.573788917E0,2.836099859E0,-1.030341612E1,-4.734666515E0,1.168849491E1
6.583781917E0,1.728667766E0,-1.039710372E1,-4.106613281E0,1.131160160E1
6.593773917E0,2.729633756E-1,-1.203231851E1,-3.857882667E0,1.263860975E1
6.603766917E0,-1.327435628E0,-1.453476776E1,-3.576103006E0,1.502697814E1
6.613758917E0,-2.824151366E0,-1.749096329E1,-2.954854177E0,1.796220451E1
6.623751917E0,-4.671571550E0,-1.961768333E1,-1.415450696E0,2.021584974E1
6.633743917E0,-4.634120134E0,-1.679228183E1,8.632490051E-1,1.744135882E1
6.643736917E0,-1.283324087E0,-6.954446747E0,9.527370592E-1,7.135752110E0
6.653728917E0,3.195198714E0,1.542652194E0,-5.881119271E-1,3.596518630E0
6.663721917E0,6.192932278E0,7.332853401E0,-1.111777890E0,9.662256428E0
6.673713917E0,7.688747690E0,1.112941953E1,-8.329896641E-1,1.355266365E1
6.683706917E0,7.513363965E0,1.297681341E1,2.406514792E-1,1.499687425E1
6.693698917E0,5.398690943E0,1.426461471E1,2.594093835E-1,1.525425809E1
6.703691917E0,1.762892542E0,1.498250778E1,-2.115619687E0,1.523348864E1
6.713683917E0,-7.661207597E-1,1.309408867E1,-6.570165396E0,1.467000929E1
6.723676917E0,-3.372617270E0,1.083978472E1,-8.506862622E0,1.418598575E1
6.733668917E0,-6.349641166E0,1.096968997E1,-4.236554493E0,1.336414737E1
6.743661917E0,-8.307582496E0,1.184049943E1,2.598986785E0,1.469585268E1
6.753653917E0,-8.234206372E0,1.174498984E1,6.604389149E0,1.579129181E1
6.763646917E0,-4.578271330E0,1.097822457E1,5.628152057E0,1.315895432E1
6.773638917E0,-2.619347960E-1,1.042942362E1,2.755381093E0,1.079044076E1
6.783631917E0,2.175378816E0,9.989294343E0,6.564283097E-1,1.024447034E1
6.793623917E0,2.894712056E0,9.904364705E0,1.136941894E0,1.038115769E1
6.803616917E0,2.425809799E0,9.492776856E0,2.205151083E0,1.004291078E1
6.813609917E0,1.252504583E0,9.155987760E0,1.778863335E0,9.410910389E0
6.823601917E0,4.240982224E-1,9.116880412E0,9.113319019E-1,9.172125903E0
6.833594917E0,4.850595386E-1,8.879062457E0,5.634646706E-1,8.910136099E0
6.843586917E0,6.778674182E-1,8.654824660E0,7.088380730E-1,8.710220752E0
6.853579917E0,6.462790051E-1,8.629058905E0,1.279007088E0,8.747239179E0
6.863571917E0,8.922944641E-1,8.660864834E0,1.379389747E0,8.815298359E0
6.873564917E0,1.188452429E0,8.771030470E0,1.169930788E0,8.928165138E0
6.883556917E0,1.403500156E0,9.099741054E0,1.213801205E0,9.287002385E0
6.893549917E0,1.295361165E0,9.663361187E0,1.488815711E0,9.862813098E0
6.903541917E0,8.423501793E-1,1.014535653E1,1.496442819E0,1.028966248E1
6.913534917E0,3.513930659E-1,1.043986909E1,1.174088232E0,1.051155682E1
6.923526917E0,-4.941397894E-2,1.046342752E1,6.915514378E-1,1.048637214E1
6.933519917E0,-2.993236470E-1,1.011044865E1,4.786647677E-2,1.011499173E1
6.943511917E0,-7.436252055E-1,9.717322217E0,-2.607004488E-1,9.749220186E0
6.953504917E0,-9.783289334E-1,9.285359745E0,-1.768887985E-1,9.338432564E0
6.963496917E0,-1.032919197E0,8.709112549E0,3.986646250E-2,8.770242460E0
6.973489917E0,-1.133445259E0,8.209952121E0,3.407217877E-1,8.294823888E0
6.983481917E0,-1.367171990E0,8.129089807E0,6.179957306E-1,8.266388514E0
6.993474917E0,-1.828728682E0,8.557089036E0,8.955139410E-1,8.796019928E0
7.003466917E0,-2.261036724E0,9.046127349E0,1.133241995E0,9.393026376E0
7.013459917E0,-2.539195497E0,9.416632660E0,1.433993532E0,9.857830485E0
7.023451917E0,-2.635016744E0,9.654140128E0,1.812746634E0,1.017014185E1
7.033444917E0,-2.665484830E0,9.692943420E0,2.131819983E0,1.027631344E1
7.043436917E0,-2.578079189E0,9.608486822E0,2.029713418E0,1.015328754E1
7.053429917E0,-1.972242743E0,9.352138456E0,8.123580560E-1,9.592296949E0
7.063422917E0,-8.193057176E-1,9.047251183E0,-2.245215036E0,9.357617560E0
7.073414917E0,9.420555849E-1,7.160182199E0,-6.925859125E0,1.000615823E1
7.083407917E0,2.112255345E0,1.569547632E0,-7.632052503E0,8.072999927E0
7.093399917E0,-4.808036792E-1,-4.782592049E0,3.803558233E0,6.129552522E0
7.103392917E0,-1.835073057E0,-1.102173136E1,1.905000406E1,2.208503362E1
7.113384917E0,6.862464783E0,-3.219119089E1,-9.069658298E0,3.414124918E1
7.123377917E0,2.357988881E1,-6.438032355E1,-7.245471090E1,9.975230498E1
7.133369917E0,1.100857630E1,-6.654405530E1,-1.183256827E1,6.847853474E1
7.143362917E0,-2.044515440E1,-2.396072966E1,5.578610470E1,6.406411149E1
7.153354917E0,-1.010186728E1,2.428652131E0,1.301762814E1,1.665547106E1
7.163347917E0,7.219333218E0,1.468994468E1,-1.958894193E1,2.552723825E1
7.173339917E0,1.044791135E1,2.028252929E1,1.128653246E0,2.284324198E1
7.183332917E0,8.201317538E0,1.638420699E1,-2.572032875E0,1.850187021E1
7.193324917E0,4.836486420E0,-1.108494093E0,-7.108575259E0,8.669036986E0
7.203317917E0,3.177276998E0,-1.298150872E1,-4.254045269E-1,1.337144819E1
7.213309917E0,3.817762874E0,-3.228702441E1,-2.387298283E-1,3.251283209E1
7.223302917E0,-2.159370309E0,-3.367442835E1,-2.537838943E0,3.383889229E1
7.233294917E0,-4.202020252E0,-1.438694314E1,-1.906274748E0,1.510877197E1
7.243287917E0,-3.379681876E0,-5.486334858E0,3.231223994E-1,6.451862355E0
7.253279917E0,-3.981899188E0,-1.176729346E0,3.058622667E0,5.157071428E0
7.263272917E0,-8.515973315E-1,1.416558158E0,3.400728052E0,3.781111783E0
7.273265917E0,2.061752359E0,2.573957194E0,2.152817042E0,3.938362558E0
7.283257917E0,1.743039052E0,4.070968947E0,1.977657849E0,4.849959162E0
7.293250917E0,1.182412182E0,4.646533772E0,1.536549456E0,5.034814683E0
7.303242917E0,7.721677309E-1,4.544798067E0,1.310924992E0,4.792698281E0
7.313235917E0,3.229855746E-3,4.093072591E0,6.682461172E-1,4.147264947E0
7.323227917E0,-1.006459961E0,2.134248331E0,2.206215861E-1,2.369947568E0
7.333220917E0,-2.009312921E0,-2.483359265E-1,2.277294615E-1,2.037368365E0
7.343212917E0,-2.519467576E0,-1.163347993E0,7.982925788E-1,2.887622978E0
7.353205917E0,-2.118901729E0,-4.313496834E-1,9.049875998E-1,2.344101031E0
7.363197917E0,-1.381857857E0,1.476731270E0,7.632744813E-1,2.161678587E0
7.373190917E0,-8.035471791E-1,3.758069819E0,8.362182042E-1,3.932942629E0
7.383182917E0,-6.287464213E-1,5.295557168E0,9.679575808E-1,5.419888344E0
7.393175917E0,-1.077241895E0,6.056817284E0,6.343106318E-1,6.184483462E0
7.403167917E0,-1.631712598E0,5.738898906E0,-2.268601267E-1,5.970670999E0
7.413160917E0,-2.032292771E0,4.625186173E0,-9.123983610E-1,5.133715205E0
7.423152917E0,-1.809666759E0,3.306515082E0,-1.086238421E0,3.922734974E0
7.433145917E0,-1.562907827E0,2.416440221E0,-8.413313019E-1,2.998283271E0
7.443137917E0,-1.498506886E0,2.066275034E0,-6.805635694E-1,2.641624912E0
7.453130917E0,-1.040427752E0,2.216246760E0,-5.093056396E-1,2.500726263E0
7.463122917E0,-3.698141706E-1,2.663269320E0,-2.604607129E-1,2.701408110E0
7.473115917E0,-1.425495628E-1,3.374061533E0,1.494302738E-1,3.380375868E0
7.483107917E0,-1.529053471E-1,4.073475648E0,4.111788359E-1,4.097029648E0
7.493100917E0,-3.944145763E-1,5.018526616E0,4.773748720E-1,5.056585707E0
7.503092917E0,-4.707552391E-1,6.049824014E0,1.161631250E-1,6.069223588E0
7.513085917E0,-2.025677962E-1,6.954283025E0,-7.717631766E-1,6.999907464E0
7.523077917E0,4.228096788E-1,7.491224653E0,-2.225931211E0,7.826364710E0
7.533070917E0,1.600451337E0,7.442796258E0,-4.194974650E0,8.692207599E0
7.543062917E0,2.877179180E0,7.235508955E0,-3.757173441E0,8.645640644E0
7.553056125E0,3.418944760E0,6.930193666E0,2.876559960E0,8.245687644E0
7.563049125E0,7.704453604E-1,5.834355871E0,2.786912203E0,6.511541608E0
7.573041125E0,-1.173893446E0,3.064522215E0,-4.363701028E-1,3.310549969E0
7.583034125E0,-1.027121609E0,4.843687266E-1,6.667082995E-1,1.316849202E0
7.593026125E0,-6.564648548E-1,-1.756799451E0,-2.368138711E0,3.020822963E0
7.603019125E0,1.439429542E-1,-3.810410001E0,-1.831602296E0,4.230214051E0
7.613011125E0,5.585567370E-1,-6.543060043E0,-3.449208194E-1,6.575909878E0
7.623004125E0,1.305509301E-1,-9.338895097E0,-2.488598371E-1,9.343122412E0
7.632996125E0,-2.724510133E-2,-1.077102965E1,-1.943051981E0,1.094491997E1
7.642989125E0,1.868198557E-1,-1.011387746E1,-2.680030364E0,1.046460614E1
7.652981125E0,1.710779817E0,-7.560313014E0,-4.236578466E0,8.833668408E0
7.662974125E0,3.466086474E0,-6.377649329E0,-5.325630568E0,9.002805527E0
7.672966125E0,4.311220513E0,-8.307091330E0,-7.453239970E0,1.196432926E1
7.682959125E0,4.337019306E0,-1.117347713E1,-8.090956605E0,1.446097875E1
7.692951125E0,4.096506661E0,-1.207658193E1,-8.118394665E0,1.511732549E1
7.702944125E0,3.626133538E0,-1.155899108E1,-7.830169618E0,1.442465512E1
7.712936125E0,2.161463173E0,-1.049477327E1,-6.890498673E0,1.273935481E1
7.722929125E0,8.899663952E-1,-9.853622568E0,-6.740366734E0,1.197156889E1
7.732921125E0,4.980349852E-1,-9.894829066E0,-5.586139228E0,1.137368157E1
7.742914125E0,1.025712284E0,-1.031068421E1,-4.459357967E0,1.128043297E1
7.752906125E0,2.282219432E0,-1.104944366E1,-4.224071564E0,1.204746908E1
7.762899125E0,3.326262884E0,-1.189319337E1,-3.556302288E0,1.285143413E1
7.772891125E0,3.634436876E0,-1.270549324E1,-3.465985902E0,1.366205505E1
7.782884125E0,2.871626371E0,-1.299846798E1,-3.554530581E0,1.377828348E1
7.792876125E0,1.506607326E0,-1.259132519E1,-2.782667710E0,1.298285697E1
7.802869125E0,4.916078719E-1,-1.169101653E1,-1.550993832E0,1.180369127E1
7.812861125E0,5.010040551E-3,-1.005658527E1,-2.658231944E-2,1.005662165E1
7.822854125E0,-4.911352707E-1,-6.767798946E0,4.029352851E-1,6.797549063E0
7.832846125E0,-5.520019352E-1,-2.042261689E0,-2.532917342E-1,2.130656153E0
7.842839125E0,2.190376485E-1,2.550632651E0,-1.106565828E0,2.788941079E0
7.852831125E0,1.326932622E0,6.829026895E0,-2.385835894E0,7.354493282E0
7.862824125E0,1.670489578E0,1.054780167E1,-3.416109445E0,1.121233514E1
7.872816125E0,5.170648947E-1,1.208989136E1,-1.740686864E0,1.222549876E1
7.882809125E0,-1.616779686E0,1.138996796E1,1.050314298E0,1.155199146E1
7.892802125E0,-3.985617432E0,1.030086908E1,1.285382892E0,1.111958899E1
7.902794125E0,-4.433153378E0,8.846027443E0,-1.158249221E0,9.962258361E0
7.912787125E0,-3.015945886E0,8.414915156E0,-1.789833881E0,9.116481339E0
7.922779125E0,-2.000040114E0,9.390367552E0,-2.409089102E0,9.898629881E0
7.932772125E0,-1.325419947E0,1.104325730E1,-2.863917110E0,1.148530762E1
7.942764125E0,-1.255703156E0,1.216480706E1,-1.239030844E0,1.229205104E1
7.952757125E0,-1.023842783E0,1.179788258E1,1.034034480E0,1.188728374E1
7.962749125E0,-7.504116301E-1,1.057870421E1,2.777323354E0,1.096292047E1
7.972742125E0,5.081606086E-1,9.279496157E0,2.860841475E0,9.723769335E0
7.982734125E0,2.005545414E0,8.405364314E0,2.281341473E0,8.937386675E0
7.992727125E0,2.458741903E0,7.902638839E0,1.936124346E0,8.499746458E0
8.002719125E0,2.277926991E0,7.722753342E0,1.481382730E0,8.186840988E0
8.012712125E0,1.791323166E0,7.800561072E0,7.193432537E-1,8.035860031E0
8.022704125E0,1.258145977E0,7.896359514E0,2.504947186E-3,7.995963428E0
8.032697125E0,6.877160297E-1,8.130548102E0,-1.793667023E-1,8.161552438E0
8.042689125E0,-1.269454638E-1,8.563732642E0,1.501004378E-1,8.565988679E0
8.052682125E0,-8.013959885E-1,9.172821894E0,9.520097387E-1,9.256847172E0
8.062674125E0,-1.202671688E0,9.948724022E0,1.750312550E0,1.017286208E1
8.072667125E0,-1.461936645E0,1.064264117E1,2.208531944E0,1.096725504E1
8.082659125E0,-1.454936651E0,1.095787860E1,2.256504840E0,1.128201038E1
8.092652125E0,-1.365300589E0,1.101478019E1,2.067796479E0,1.129004919E1
8.102644125E0,-1.224203913E0,1.084768080E1,1.763706475E0,1.105809724E1
8.112637125E0,-1.029026778E0,1.051379660E1,1.377921219E0,1.065351970E1
8.122629125E0,-8.666357855E-1,1.019372470E1,1.121749804E0,1.029181244E1
8.132622125E0,-7.124097716E-1,9.960337762E0,1.038019796E0,1.003958869E1
8.142614125E0,-4.564781658E-1,9.700966385E0,9.517127732E-1,9.758221063E0
8.152607125E0,-4.841478480E-1,9.443843848E0,9.185415919E-1,9.500752834E0
8.162599125E0,-7.965775904E-1,9.209982119E0,8.928242218E-1,9.287380770E0
8.172592125E0,-1.277982948E0,9.088143686E0,8.362993343E-1,9.215584227E0
8.182584125E0,-1.846599673E0,9.099856828E0,7.719823010E-1,9.317364505E0
8.192577125E0,-2.369418082E0,9.151964875E0,8.292839912E-1,9.490011331E0
8.202569125E0,-2.611171798E0,9.122813582E0,9.767471154E-1,9.539286175E0
8.212562125E0,-2.722080323E0,9.036063706E0,9.684347136E-1,9.486729382E0
8.222554125E0,-2.825614339E0,9.040322818E0,5.624984913E-1,9.488305307E0
8.232547125E0,-3.175822211E0,9.154607817E0,-2.110458934E-1,9.692122129E0
8.242539125E0,-2.627326486E0,8.168542140E0,-2.001155616E0,8.810933490E0
8.252532125E0,-1.539900349E0,5.198769962E0,-5.400698876E0,7.652845912E0
8.262524125E0,-2.208589977E0,-2.026030403E0,-5.402987477E0,6.178587424E0
8.272517125E0,1.057902083E0,-1.228574502E1,1.376840946E-1,1.233197650E1
8.282509125E0,9.816743009E0,-3.084925022E1,6.127701325E0,3.294834451E1
8.292502125E0,1.510171847E1,-4.415000054E1,-1.170387690E1,4.810681015E1
8.302494125E0,3.420635482E0,-2.331088180E1,-2.601526348E1,3.509831750E1
8.312487125E0,1.929482932E0,-1.907622532E1,-1.221731389E1,2.273517177E1
8.322479125E0,1.074132229E1,-4.893885612E1,-2.725407798E1,5.703658834E1
8.332472125E0,1.302611274E0,-3.287728914E1,7.009428701E0,3.364141834E1
8.342464125E0,-6.751710332E0,-4.771829664E0,2.259041830E1,2.405582984E1
8.352457125E0,1.772056737E0,3.871677711E0,-9.491159517E-1,4.362441343E0
8.362449125E0,1.086490319E1,7.237301127E0,-5.768852438E0,1.427250179E1
8.372442125E0,9.123949696E0,4.990585111E0,3.986476681E0,1.113752190E1
8.382434125E0,2.250951885E0,-2.068571236E0,3.173672774E0,4.406582602E0
8.392427125E0,-3.687037843E-1,-7.474268312E0,-1.357010699E0,7.605399879E0
8.402419125E0,3.028017171E-1,-1.035273622E1,-2.850835427E0,1.074235071E1
8.412412125E0,1.585993950E0,-1.273034040E1,-3.507368986E0,1.329957070E1
8.422404125E0,1.961920799E0,-1.362508134E1,-5.276223350E0,1.474213375E1
8.432397125E0,6.304413830E-1,-1.130543008E1,-3.935012120E0,1.198726516E1
8.442389125E0,-7.352230489E-1,-6.623582634E0,4.571002364E-2,6.664419649E0
8.452382125E0,-9.806306899E-2,-2.208088140E0,1.071478879E0,2.456285119E0
8.462374125E0,2.011558544E0,1.029751979E0,-8.382685304E-1,2.410280283E0
8.472367125E0,3.331927081E0,3.322929386E0,-3.140171152E0,5.657231889E0
8.482359125E0,3.886673480E0,4.422450342E0,-4.259144626E0,7.266678107E0
8.492352125E0,3.817244811E0,4.038586482E0,-3.072375610E0,6.349884299E0
8.502344125E0,2.099202313E0,3.216341076E0,-7.020439008E-1,3.904403400E0
8.512337125E0,-3.371190257E-1,2.881623064E0,1.500784669E0,3.266459144E0
8.522329125E0,-2.587863335E0,2.742970378E0,2.803494322E0,4.698989631E0
8.532322125E0,-3.839344947E0,3.366453720E0,2.837351163E0,5.841587275E0
8.542314125E0,-4.234633098E0,5.024549248E0,2.499863616E0,7.030471585E0
8.552306625E0,-4.469467803E0,7.073183232E0,2.514436339E0,8.736615682E0
8.562298625E0,-4.610698234E0,8.726141396E0,2.526425178E0,1.018758588E1
8.572291625E0,-4.184232438E0,9.464465808E0,2.391997690E0,1.062099652E1
8.582283625E0,-3.333408181E0,9.301347787E0,2.408583025E0,1.016995344E1
8.592276625E0,-2.301035041E0,8.887782410E0,2.918649680E0,9.633584711E0
8.602268625E0,-1.612817467E0,8.346120910E0,3.786879343E0,9.305878228E0
8.612261625E0,-1.713802536E0,7.637702082E0,4.411307303E0,8.985056725E0
8.622253625E0,-2.324456795E0,7.305948023E0,4.851190998E0,9.072707975E0
8.632246625E0,-2.926014540E0,7.643259276E0,4.985226138E0,9.582977256E0
8.642238625E0,-3.252775662E0,8.135742769E0,4.772239261E0,9.977230451E0
8.652231625E0,-2.951501384E0,8.520983648E0,4.212839648E0,9.953217603E0
8.662223625E0,-2.231255247E0,8.780062079E0,3.583695908E0,9.742220818E0
8.672216625E0,-8.248371837E-1,9.051274652E0,2.963423272E0,9.559696998E0
8.682208625E0,1.435716122E0,9.778886966E0,2.077894329E0,1.009977999E1
8.692201625E0,4.425578018E0,9.172126660E0,2.949393463E0,1.060247943E1
8.702193625E0,7.089318624E0,6.129236219E0,3.618420183E0,1.004584192E1
8.712186625E0,7.309693750E0,2.472764111E0,1.286683897E0,7.823154128E0
8.722178625E0,5.379868755E0,-1.177528076E0,-4.902484528E0,7.373188912E0
8.732171625E0,1.999480828E0,-6.446437728E0,-9.580648229E0,1.171935593E1
8.742163625E0,1.364464145E0,-1.229898896E1,-9.490958372E0,1.559503712E1
8.752156625E0,3.059253289E0,-1.811871569E1,-1.241316988E1,2.217506878E1
8.762148625E0,1.595405482E-1,-2.082475096E1,-4.446706347E0,2.129480930E1
8.772141625E0,-5.171868092E0,-1.423521257E1,3.853867092E0,1.562823688E1
8.782133625E0,-6.690683819E-1,-1.668169695E0,-4.731172804E0,5.061070907E0
8.792126625E0,4.975194654E0,6.909540131E0,-7.681869026E0,1.146758119E1
8.802118625E0,5.526273095E0,6.969814399E0,-5.845652107E0,1.064376135E1
8.812111625E0,2.423832710E0,-3.428214351E0,-6.562327203E0,7.790491445E0
8.822103625E0,1.223965493E-1,-1.147177752E1,-7.313931227E0,1.360552279E1
8.832096625E0,-2.818533361E-2,-1.588987169E1,-7.315692408E0,1.749308926E1
8.842088625E0,4.869938341E-1,-1.686989076E1,-7.021486244E0,1.827926821E1
8.852081625E0,1.974727371E0,-1.414774758E1,-6.864458683E0,1.584863094E1
8.862073625E0,3.902489614E0,-1.093933357E1,-6.596939796E0,1.335732229E1
8.872066625E0,5.018447093E0,-9.022908055E0,-6.605157473E0,1.225666293E1
8.882058625E0,5.057094265E0,-8.088692563E0,-6.330886806E0,1.144907322E1
8.892051625E0,4.085154292E0,-7.705305836E0,-6.199910345E0,1.070042578E1
8.902043625E0,2.931560624E0,-7.592641684E0,-6.029479212E0,1.012901155E1
8.912036625E0,1.192206487E0,-7.885628704E0,-5.087101007E0,9.459550360E0
8.922028625E0,-7.214072478E-1,-9.072743289E0,-4.068977678E0,9.969537530E0
8.932021625E0,-1.716819114E0,-1.143573177E1,-3.090720080E0,1.196979447E1
8.942013625E0,-1.821123793E0,-1.426511757E1,-2.448355494E0,1.458782080E1
8.952006625E0,-1.873004530E0,-1.571048379E1,-2.325919183E0,1.599178998E1
8.961998625E0,-1.742295433E0,-1.539858278E1,-2.551638372E0,1.570550233E1
8.971990625E0,-1.144635733E0,-1.348561823E1,-2.549989457E0,1.377223788E1
8.981983625E0,-1.592310843E-1,-8.833255370E0,-2.545430968E0,9.194072752E0
8.991975625E0,7.192309141E-1,-2.645837601E0,-2.502717057E0,3.712323045E0
9.001968625E0,2.314054306E0,3.157980602E0,-2.692972591E0,4.751819671E0
9.011960625E0,2.781541536E0,8.432701217E0,-2.227260575E0,9.154677100E0
9.021953625E0,2.497192608E0,1.301344621E1,-4.796108472E-1,1.325955428E1
9.031945625E0,3.088746060E0,1.570825015E1,1.499993833E0,1.607916218E1
9.041938625E0,3.289655513E0,1.617606950E1,3.906230078E0,1.696306845E1
9.051930625E0,2.428110386E0,1.382957952E1,4.728712880E0,1.481599525E1
9.061923625E0,1.452215357E0,1.041566863E1,2.683864968E0,1.085348855E1
9.071915625E0,1.325404744E0,6.693603626E0,-8.054773450E-1,6.870940328E0
9.081908625E0,-1.033607414E0,3.696907943E0,-5.170398687E0,6.439603653E0
9.091900625E0,-4.644202780E0,3.200712054E0,-5.824719075E0,8.108053368E0
9.101893625E0,-7.251158443E0,5.651264346E0,-4.173464205E0,1.009623152E1
9.111885625E0,-8.132822084E0,8.834966850E0,2.321812391E-2,1.200832933E1
9.121878625E0,-6.636317285E0,1.122173421E1,4.064398431E0,1.365603750E1
9.131870625E0,-3.254160283E0,1.247572924E1,4.428105769E0,1.363236957E1
9.141863625E0,8.725278054E-1,1.258621823E1,2.509472930E0,1.286357837E1
9.151855625E0,4.331764120E0,1.193006006E1,1.628297532E-1,1.269318821E1
9.161848625E0,6.093021489E0,1.136885834E1,-3.378135288E-1,1.290309919E1
9.171840625E0,5.275418773E0,1.070785166E1,2.905622522E-1,1.194037507E1
9.181833625E0,2.776422591E0,9.118190773E0,2.669953419E-1,9.535261501E0
9.191825625E0,5.996459985E-1,8.095104620E0,-5.213050032E-1,8.134005965E0
9.201818625E0,-1.133925096E0,8.027157635E0,-8.875130497E-2,8.107337579E0
9.211810625E0,-2.530789247E0,8.365201544E0,1.625518935E0,8.889533334E0
9.221803625E0,-3.026050752E0,8.832113408E0,2.725705304E0,9.725876815E0
9.231795625E0,-2.536944611E0,9.435673533E0,3.598353124E0,1.041230849E1
9.241788625E0,-1.588015186E0,9.773394091E0,3.651054078E0,1.055325638E1
9.251780625E0,-1.059625477E0,1.009368351E1,2.716390690E0,1.050638051E1
9.261773625E0,-1.004358983E0,1.043209931E1,1.573132560E0,1.059774405E1
9.271765625E0,-1.099569196E0,1.067870797E1,7.775171292E-1,1.076328895E1
9.281757625E0,-1.166823578E0,1.063977603E1,3.272709990E-1,1.070856749E1
9.291750625E0,-9.836341853E-1,1.043054395E1,1.990533272E-1,1.047871201E1
9.301742625E0,-6.019276551E-1,1.007697217E1,3.004558142E-1,1.009940388E1
9.311735625E0,-1.565285743E-1,9.742730123E0,6.211638252E-1,9.763766483E0
9.321727625E0,2.934230024E-1,9.440346628E0,9.600635473E-1,9.493574855E0
9.331720625E0,5.819882843E-1,9.185409780E0,1.195425818E0,9.281137111E0
9.341712625E0,6.731600442E-1,9.041554241E0,1.226883984E0,9.149212636E0
9.351705625E0,5.483816316E-1,9.007084320E0,1.085830359E0,9.088856800E0
9.361697625E0,4.244384938E-1,8.920903378E0,7.327789859E-1,8.961006091E0
9.371690625E0,4.872861218E-1,8.763410379E0,1.881669811E-1,8.778964406E0
9.381682625E0,3.579101166E-1,8.656785232E0,-5.386151004E-1,8.680906429E0
9.391675625E0,-7.117179729E-2,8.595241533E0,-1.401203224E0,8.708996091E0
9.401667625E0,1.597561643E-2,8.168060330E0,-3.410327426E0,8.851429146E0
9.411660625E0,1.391080232E0,6.249811653E0,-1.048847582E1,1.228834305E1
9.421652625E0,4.184218404E0,6.382171565E-1,-1.872686821E1,1.919923431E1
9.431645625E0,8.321302403E0,-7.296618791E0,-7.481574408E0,1.335884258E1
9.441637625E0,6.967430490E0,-1.284512241E1,1.707679331E1,2.247574531E1
9.451630625E0,8.323880441E0,-2.137021899E1,1.324278804E1,2.648291299E1
9.461622625E0,2.040235278E1,-4.704119140E1,-5.801041828E1,7.742311229E1
9.471615625E0,4.700842127E0,-7.004401148E1,-4.124237198E1,8.141986679E1
9.481607625E0,-3.380009671E1,-3.881461740E1,5.510803350E1,7.540501587E1
9.491600625E0,-1.609257594E1,-7.845941312E0,3.143097333E1,3.617230819E1
9.501592625E0,1.539743789E1,7.865899029E0,-1.806957335E1,2.500925713E1
9.511584625E0,1.366533591E1,1.915431371E1,-1.312060521E0,2.356587877E1
9.521577625E0,-3.815996723E-1,1.508183677E1,9.089879140E0,1.761344150E1
9.531569625E0,-1.407781926E0,-5.025528072E0,-1.482952123E1,1.572108400E1
9.541562625E0,2.243167925E0,-2.152055091E1,-1.408583024E1,2.581814337E1
9.551554875E0,2.326448210E0,-2.930056370E1,-2.530100153E0,2.950147117E1
9.561547875E0,-4.400922064E0,-2.213926819E1,7.957841232E-1,2.258646903E1
9.571539875E0,-2.283182761E0,-9.918739500E0,1.018618881E0,1.022897361E1
9.581532875E0,8.514807527E-1,-1.777984498E0,-1.548044204E0,2.506529315E0
9.591524875E0,2.137263009E0,1.317416278E0,-1.395205589E0,2.872294807E0
9.601517875E0,3.136735328E0,1.100847105E0,-1.111402791E0,3.505166049E0
9.611509875E0,3.752068237E0,9.474699605E-1,-1.835372581E0,4.283025554E0
9.621502875E0,3.754845080E0,1.287590801E0,-2.097730423E0,4.489679785E0
9.631494875E0,2.410070411E0,1.157780859E0,-7.168706855E-1,2.768176201E0
9.641487875E0,5.686700812E-1,1.252250229E0,1.297323783E0,1.890652082E0
9.651479875E0,-1.331592999E0,1.596663510E0,2.221667129E0,3.042742038E0
9.661472875E0,-3.034515766E0,1.997653280E0,2.298156019E0,4.298886559E0
9.671464875E0,-4.285344830E0,2.612493269E0,1.737443998E0,5.311121636E0
9.681457875E0,-4.366792158E0,3.524577050E0,1.058613105E0,5.710707385E0
9.691449875E0,-3.139670046E0,4.679468215E0,9.388106726E-1,5.712820341E0
9.701442875E0,-1.213635436E0,5.794671988E0,1.387203235E0,6.080745615E0
9.711434875E0,3.685307799E-1,6.691002200E0,1.904198841E0,6.966440885E0
9.721426875E0,1.022866444E0,7.375165608E0,2.467782575E0,7.844059813E0
9.731419875E0,1.075682004E0,7.867302945E0,3.266371315E0,8.586077625E0
9.741411875E0,1.094186395E0,7.791087998E0,4.084847606E0,8.864777268E0
9.751404875E0,7.205143780E-1,7.502879907E0,4.408194830E0,8.731811355E0
9.761396875E0,1.650069639E-1,7.230417784E0,4.598694777E0,8.570540373E0
9.771389875E0,-6.372127511E-2,6.967585441E0,4.615330106E0,8.357785548E0
9.781381875E0,-4.732962929E-2,6.794517213E0,4.094118074E0,7.932812052E0
9.791374875E0,3.865755066E-2,6.802841309E0,3.093522358E0,7.473287420E0
9.801366875E0,4.313958764E-2,6.942803187E0,1.950261598E0,7.211650117E0
9.811359875E0,4.578931189E-1,7.092287840E0,1.109898595E0,7.193197328E0
9.821351875E0,1.214227978E0,6.591432304E0,5.978400859E-1,6.728948073E0
9.831344875E0,1.933165655E0,5.482192690E0,2.810069516E-1,5.819839435E0
9.841336875E0,1.952948393E0,4.883916110E0,-2.852584621E-1,5.267638597E0
9.851329875E0,8.876180072E-1,4.147166938E0,-7.812786430E-2,4.241811323E0
9.861321875E0,-7.827125265E-1,2.376846970E0,-1.843102015E0,3.107903708E0
9.871314875E0,-2.007053411E0,-2.964169961E-1,-5.014779135E0,5.409633648E0
9.881306875E0,-2.019949883E-1,-3.660884417E0,-5.378796376E0,6.509556601E0
9.891298875E0,2.821413699E0,-6.359177390E0,-3.712925514E0,7.885767446E0
9.901291875E0,3.393983581E0,-6.677922564E0,9.620692885E-1,7.552440111E0
9.911283875E0,-1.276314884E0,-5.049716249E0,4.283272576E0,6.743518209E0
9.921276875E0,-2.283790141E0,-3.062811320E0,-1.704878515E0,4.183673187E0
9.931268875E0,2.043695426E-1,-6.409846437E-1,-5.661691101E0,5.701523862E0
9.941261875E0,-1.463613626E-1,-4.769866168E-2,-5.304806294E0,5.307039347E0
9.951253875E0,-1.850247605E0,-3.757405576E0,-5.891531115E0,7.228530400E0
9.961246875E0,-1.487720235E0,-6.642549832E0,-2.625918476E0,7.296041914E0
9.971238875E0,9.740534493E-1,-6.784318500E0,-5.300287566E0,8.664225638E0
9.981231875E0,4.067303912E0,-6.730072711E0,-7.212591963E0,1.067044154E1
9.991223875E0,4.463758582E0,-7.910712090E0,-5.451212972E0,1.059340499E1
1.000121687E1,4.902535106E0,-9.893997592E0,-6.570735499E0,1.284914798E1
1.001120887E1,4.589271405E0,-1.122766679E1,-7.178386921E0,1.409436598E1
1.002120187E1,3.724912013E0,-1.186095182E1,-7.470614387E0,1.450404174E1
1.003119387E1,3.044727636E0,-1.127006261E1,-7.309708952E0,1.377376211E1
1.004118587E1,3.161869585E0,-9.818383738E0,-7.188327187E0,1.257259425E1
1.005117888E1,3.860028596E0,-8.254333073E0,-7.774913430E0,1.197844373E1
1.006117088E1,3.823847487E0,-6.760769423E0,-8.058301660E0,1.119223116E1
1.007116387E1,3.601362393E0,-5.564389924E0,-7.217691904E0,9.799353180E0
1.008115587E1,2.933909743E0,-5.033104309E0,-6.605575549E0,8.807587280E0
1.009114887E1,2.336049046E0,-5.377541564E0,-5.562814685E0,8.082078051E0
1.010114087E1,1.476766646E0,-6.827806581E0,-3.762037740E0,7.934274409E0
1.011113387E1,6.573628409E-1,-9.490036851E0,-2.151473351E0,9.753038651E0
1.012112588E1,4.480428994E-4,-1.276268135E1,-1.043531820E0,1.280527212E1
1.013111888E1,-1.131343989E0,-1.536035953E1,-3.351410589E-1,1.540561273E1
1.014111087E1,-2.551720818E0,-1.541986080E1,-1.378378764E-1,1.563017548E1
1.015110387E1,-3.209652154E0,-1.231715276E1,1.975389715E-1,1.273000945E1
1.016109587E1,-2.583861208E0,-6.974516146E0,1.233944790E0,7.539418675E0
1.017108887E1,-1.061601470E0,-1.103514605E0,1.992397657E0,2.512845118E0
1.018108087E1,9.895914748E-1,3.931988232E0,1.441702209E0,4.303292693E0
1.019107288E1,2.671322106E0,8.107022415E0,-3.802830255E-1,8.544260612E0
1.020106588E1,3.559698643E0,1.171452234E1,-2.735932084E0,1.254539009E1
1.021105787E1,3.597182803E0,1.441113424E1,-3.158736062E0,1.518545777E1
1.022105087E1,2.397842713E0,1.536319894E1,-1.404724563E0,1.561252005E1
1.023104287E1,-2.931225652E-1,1.466742705E1,4.410110744E-1,1.467698293E1
1.024103587E1,-2.073203400E0,1.371110090E1,1.745964561E0,1.397643919E1
1.025102787E1,-2.705602577E0,1.232373438E1,2.369509299E0,1.283780701E1
1.026102088E1,-1.442697551E0,8.968854640E0,2.525757426E0,9.428742246E0
1.027101288E1,-6.123189613E-2,7.429430693E0,8.362734604E-1,7.476599699E0
1.028100588E1,1.880851932E-1,7.612601740E0,-1.795110408E0,7.823650214E0
1.029099787E1,-2.265587758E-1,7.285046566E0,-4.688171210E0,8.666151490E0
1.030099087E1,-6.741972671E-1,7.518458059E0,-4.208326474E0,8.642439775E0
1.031098287E1,-9.729167506E-1,8.144834604E0,-1.540128536E0,8.346070551E0
1.032097487E1,-1.164830043E0,8.691413612E0,2.298365422E-1,8.772133403E0
1.033096788E1,-4.773340876E-1,9.335717136E0,2.190647650E-1,9.350478685E0
1.034095988E1,5.899896873E-1,1.013388429E1,-5.901302032E-1,1.016818333E1
1.035095288E1,1.060670374E0,1.102066600E1,-1.285937208E0,1.114601881E1
1.036094487E1,5.485886230E-1,1.183234841E1,-9.728386903E-1,1.188494146E1
1.037093787E1,-7.800686348E-1,1.202578483E1,-1.081396488E-1,1.205154355E1
1.038092987E1,-2.684968922E0,1.163680466E1,1.774653339E-1,1.194385929E1
1.039092287E1,-4.293649045E0,1.072953664E1,-9.092654228E-2,1.155710372E1
1.040091488E1,-5.120857567E0,9.674874939E0,-4.916934971E-1,1.095756131E1
1.041090788E1,-4.713413933E0,8.804005843E0,-6.535128880E-1,1.000769049E1
1.042089988E1,-3.226435125E0,8.209824067E0,-6.918308616E-1,8.848148098E0
1.043089187E1,-1.552330506E0,8.030922657E0,-7.683989811E-1,8.215587972E0
1.044088487E1,-2.914201118E-2,7.975420886E0,-8.056445754E-1,8.016062048E0
1.045087687E1,1.259522411E0,7.898612446E0,-5.948536205E-1,8.020494131E0
1.046086987E1,2.219897323E0,7.926907123E0,-2.428500688E-1,8.235458506E0
1.047086188E1,2.736005175E0,8.003827245E0,1.594968037E-1,8.460048115E0
1.048085488E1,2.797364978E0,7.983037469E0,7.569735217E-1,8.492770277E0
1.049084687E1,2.448378298E0,8.142999748E0,1.619046067E0,8.655883049E0
1.050083987E1,1.717478680E0,8.494443721E0,2.666998090E0,9.067424439E0
1.051083187E1,1.052187453E0,8.579964513E0,3.663723825E0,9.388597432E0
1.052082387E1,8.551889838E-1,8.660695265E0,4.441840879E0,9.770820900E0
1.053081687E1,8.242967547E-1,8.791484615E0,4.729706614E0,1.001697517E1
1.054080888E1,8.841074851E-1,8.874978177E0,4.391758307E0,9.941550418E0
1.055080188E1,7.851625829E-1,8.469197198E0,4.317575852E0,9.538618490E0
1.056079438E1,4.538157092E-1,8.070798329E0,3.817207389E0,8.939508187E0
1.057078737E1,9.960132524E-2,4.562178916E0,2.200003487E0,5.065906851E0
1.058077937E1,-7.229485738E-1,-9.528160697E-1,-1.737544278E0,2.109401152E0
1.059077237E1,-6.993842947E-1,-6.864784958E0,-6.680718117E0,9.604499231E0
1.060076437E1,-9.165712264E-1,-1.655733018E1,1.104622652E0,1.661943070E1
1.061075737E1,-5.939565992E0,-2.591521762E1,-4.429824558E0,2.695366940E1
1.062074938E1,8.119413249E0,-4.024542171E1,-4.175958861E1,5.856178004E1
1.063074238E1,2.256971681E1,-6.556200374E1,-4.466439179E1,8.247833864E1
1.064073437E1,-1.467051438E1,-3.307547700E1,3.072423441E1,4.746777592E1
1.065072637E1,-1.742417873E1,-7.423547809E0,1.825085808E1,2.630218408E1
1.066071937E1,8.883263097E0,1.509555784E0,-1.301582486E1,1.583043962E1
1.067071137E1,1.328898572E1,9.439060825E0,-1.381006503E0,1.635848984E1
1.068070437E1,1.192945078E1,-3.235697114E-1,-1.815190039E0,1.207109805E1
1.069069638E1,7.694303130E0,-1.337745293E1,-7.004425238E0,1.694758155E1
1.070068938E1,1.534870574E0,-1.812779875E1,-4.330137133E0,1.870088241E1
1.071068137E1,-2.081480718E0,-1.627168902E1,-1.168113766E0,1.644581756E1
1.072067437E1,-2.526487159E0,-9.843876429E0,1.808350843E-1,1.016453353E1
1.073066637E1,-2.008830672E0,-5.591426865E0,-1.219169899E0,6.065132339E0
1.074065937E1,-2.227140707E0,-3.889427519E0,-9.876061258E-1,4.589462715E0
1.075065137E1,-1.579733482E-1,-3.099005000E0,1.470567428E0,3.433854413E0
1.076064338E1,2.610513694E0,-2.001914147E0,1.379682108E0,3.567347014E0
1.077063638E1,3.608249244E0,7.997470737E-2,1.456716835E0,3.892028070E0
1.078062837E1,3.144640764E0,3.076767454E0,1.797093491E0,4.752347685E0
1.079062137E1,2.272305917E0,6.527804657E0,1.930726927E0,7.176580961E0
1.080061337E1,7.492591439E-1,9.448051504E0,2.385811628E0,9.773390589E0
1.081060637E1,-1.984761486E0,1.099795074E1,3.597247123E0,1.174028898E1
1.082059837E1,-4.058690963E0,1.137378871E1,3.683466072E0,1.262552828E1
1.083059138E1,-5.034726326E0,1.060917639E1,2.530589273E0,1.201278381E1
1.084058338E1,-5.489733260E0,8.384228384E0,1.309716372E0,1.010682016E1
1.085057537E1,-4.761277778E0,6.582461506E0,7.834342191E-1,8.161637993E0
1.086056837E1,-2.936670506E0,5.651740894E0,1.199779947E0,6.481178961E0
1.087056037E1,-1.532911464E0,5.536531450E0,2.281240608E0,6.181185709E0
1.088055337E1,-5.043539250E-1,6.838626269E0,3.485363283E0,7.692134901E0
1.089054537E1,1.305585314E-1,8.697737376E0,4.231693410E0,9.673412537E0
1.090053838E1,6.964340821E-2,9.977327431E0,4.166491693E0,1.081256519E1
1.091053038E1,-4.861961277E-1,1.053226211E1,3.762987035E0,1.119486504E1
1.092052337E1,-1.025053303E0,1.066146102E1,3.261248570E0,1.119612556E1
1.093051537E1,-1.265801444E0,1.044031581E1,2.212626749E0,1.074700724E1
1.094050737E1,-7.151283614E-1,1.001872104E1,3.533636141E-1,1.005042515E1
1.095050037E1,1.187886857E0,9.330064048E0,1.362419958E0,9.503544521E0
1.096049237E1,3.645719371E0,7.015778192E0,3.892497307E0,8.812715170E0
1.097048538E1,6.285379096E0,3.248299618E0,-2.603157312E0,7.538824098E0
1.098047738E1,8.139457505E0,-1.869379987E0,-8.921856474E0,1.222067400E1
1.099047037E1,2.177042641E0,-8.836456720E0,-4.963362814E0,1.036616865E1
1.100046237E1,-3.816582322E0,-1.421378018E1,-3.437510839E-1,1.472127754E1
1.101045537E1,-2.565658533E0,-1.689080625E1,-3.994089755E0,1.754521850E1
1.102044737E1,1.182718357E0,-1.706583329E1,-1.381804647E1,2.199045013E1
1.103044037E1,3.447903095E0,-1.581265803E1,-1.616263845E1,2.287267084E1
1.104043238E1,-2.100991415E0,-1.503015557E1,-6.503344000E0,1.651100313E1
1.105042438E1,-2.880078229E0,-1.060915884E1,-6.411498275E0,1.272620965E1
1.106041737E1,3.778589745E0,-5.073641886E0,-1.168200012E1,1.328490532E1
1.107040937E1,4.716836016E0,-5.436539969E0,-8.678060911E0,1.127445121E1
1.108040237E1,2.860911349E0,-9.719668704E0,-6.920462145E0,1.226986429E1
1.109039437E1,3.308341168E0,-1.280587240E1,-7.045535842E0,1.498582879E1
1.110038737E1,4.091237735E0,-1.447767789E1,-6.635274142E0,1.644287828E1
1.111037938E1,4.814116727E0,-1.501058143E1,-5.793719476E0,1.679465570E1
1.112037238E1,5.010234094E0,-1.428727501E1,-3.625431872E0,1.556831491E1
1.113036437E1,3.798972262E0,-1.254529006E1,-3.149132887E0,1.348085794E1
1.114035637E1,2.431743115E0,-1.263388473E1,-2.920199777E0,1.319302788E1
1.115034937E1,7.937720963E-1,-1.552630234E1,-1.982147488E0,1.567242952E1
1.116034137E1,-1.048447136E0,-1.800765367E1,-1.305960267E0,1.808536326E1
1.117033437E1,-2.309212811E0,-1.634574635E1,-1.499230625E0,1.657599408E1
1.118032638E1,-1.838236839E0,-1.027664757E1,-1.614735500E0,1.056389941E1
1.119031938E1,-1.887378155E-1,-2.804694756E0,-1.707307595E0,3.288895538E0
1.120031137E1,1.007156291E0,3.702371582E0,-1.709820582E0,4.200643468E0
1.121030437E1,1.527699110E0,8.998895295E0,-2.855826902E-1,9.132115777E0
1.122029637E1,2.126973225E0,1.250791934E1,2.424152699E0,1.291698794E1
1.123028837E1,2.594562197E0,1.412705779E1,4.898331835E0,1.517561101E1
1.124028137E1,2.096081508E0,1.447973494E1,6.465078651E0,1.599542196E1
1.125027338E1,1.434776182E0,1.416906419E1,5.286595725E0,1.519108479E1
1.126026638E1,1.232310347E0,1.270667555E1,1.222309561E0,1.282467282E1
1.127025837E1,-2.789825725E-1,8.273570412E0,-3.234058140E0,8.887571699E0
1.128025137E1,-1.420415420E0,4.879669862E0,-8.965517049E0,1.030578740E1
1.129024337E1,-1.697028336E0,4.185029413E0,-1.140085079E1,1.226269853E1
1.130023637E1,-2.000854923E0,6.446588001E0,-6.831269302E0,9.603549217E0
1.131022837E1,-2.115370011E0,9.321049980E0,-2.390484431E0,9.852470696E0
1.132022038E1,-1.302308389E0,1.119869384E1,3.385043188E0,1.177137495E1
1.133021338E1,1.367957564E0,1.081987028E1,5.746589749E0,1.232737581E1
1.134020537E1,4.041786663E0,9.939501793E0,4.418871846E0,1.160414425E1
1.135019837E1,5.189989783E0,9.759164892E0,2.963391112E0,1.144373104E1
1.136019037E1,4.373868751E0,9.469523649E0,2.565214437E0,1.074164471E1
1.137018337E1,2.655161863E0,9.365163714E0,1.817907532E0,9.902573590E0
1.138017537E1,6.379809290E-1,1.025488891E1,1.313426138E0,1.035832296E1
1.139016838E1,-1.140816771E0,1.063471702E1,8.652499223E-1,1.073067223E1
1.140016038E1,-2.584830092E0,1.033832400E1,-3.110254604E-2,1.065660627E1
1.141015237E1,-4.077275169E0,1.003465353E1,1.347444069E-1,1.083220201E1
1.142014537E1,-4.827470013E0,9.798363456E0,1.052510512E-1,1.092352832E1
1.143013737E1,-3.545656262E0,9.689033972E0,-2.481382906E-1,1.032039874E1
1.144013037E1,-2.006189046E0,9.827555680E0,4.013844208E-1,1.003826452E1
1.145012237E1,-1.093139963E0,9.990894141E0,8.382042110E-1,1.008541060E1
1.146011538E1,-5.643220916E-1,1.010866876E1,1.205574245E0,1.019593315E1
1.147010738E1,-8.469783235E-2,9.805450282E0,1.471656471E0,9.915634206E0
1.148009937E1,1.815059061E-1,9.176451260E0,1.526889271E0,9.304385685E0
1.149009237E1,4.025674222E-1,8.548200683E0,1.545099839E0,8.696040993E0
1.150008437E1,6.049957623E-1,8.191040472E0,1.271280577E0,8.311156249E0
1.151007737E1,7.155522846E-1,7.987892413E0,7.334887648E-1,8.053349988E0
1.152006937E1,4.953984391E-1,7.943909072E0,5.695261136E-3,7.959343151E0
1.153006238E1,2.638625499E-1,7.998313905E0,-7.325203197E-1,8.036120630E0
1.154005438E1,1.152301652E-1,8.235184026E0,-1.266041472E0,8.332730342E0
1.155004737E1,-3.610666263E-1,8.937079700E0,-1.862329999E0,9.136193721E0
1.156003963E1,-1.311928374E0,9.755912670E0,-2.625838369E0,1.018793479E1
1.157003163E1,-2.300357788E0,1.029020142E1,-3.421266689E0,1.108534875E1
1.158002463E1,-3.255672080E0,1.065059572E1,-4.112827410E0,1.187223396E1
1.159001662E1,-3.996610198E0,1.106646841E1,-4.342927040E0,1.254195485E1
1.160000962E1,-4.749061483E0,1.189597080E1,-3.927584109E0,1.339752302E1
1.161000162E1,-4.695614131E0,1.269561730E1,-3.881229722E0,1.408159916E1
1.161999462E1,-1.141730106E0,1.143373904E1,-3.267467376E0,1.194614076E1
1.162998663E1,3.837448403E0,6.955779328E0,2.859063629E0,8.442933207E0
1.163997863E1,6.168799649E0,1.354799282E0,5.164802316E0,8.158722521E0
1.164997163E1,1.767956874E1,-1.089787798E1,-3.044317980E1,3.685265379E1
1.165996362E1,4.651170497E1,-6.020353111E1,-7.448044836E1,1.064666194E2
1.166995662E1,2.305004570E-1,-7.131798411E1,-1.277450091E1,7.245340477E1
1.167994862E1,-3.905803465E1,-4.294549750E1,6.102558414E1,8.422569529E1
1.168994162E1,-1.608385423E1,9.971940976E-1,3.327400167E1,3.697085271E1
1.169993363E1,4.455695271E0,2.028536169E1,-2.180367309E1,3.011227788E1
1.170992663E1,1.174906067E1,2.896903826E1,-4.026497948E0,3.151917337E1
1.171991862E1,3.998723089E0,3.237923734E1,1.217216753E1,3.482192499E1
1.172991062E1,-4.285906747E-2,1.710809697E1,-1.372758771E1,2.193480073E1
1.173990362E1,1.364519255E0,-8.029749121E0,-8.401531464E0,1.170147489E1
1.174989562E1,3.727034845E0,-2.284770982E1,-3.615890678E0,2.343039261E1
1.175988862E1,2.446759057E0,-3.751716001E1,-9.459122622E-1,3.760875796E1
1.176988063E1,-1.344219038E0,-4.833889438E1,-1.847615481E0,4.839286432E1
1.177987363E1,-3.784405679E-1,-2.364626406E1,1.541984735E0,2.369950924E1
1.178986562E1,4.602647495E0,2.837074882E-1,1.075544448E0,4.735150448E0
1.179985762E1,5.757588362E0,1.117431095E1,-1.178496374E0,1.262552583E1
1.180985062E1,4.101621805E0,1.446156296E1,-1.083741660E0,1.507098539E1
1.181984262E1,2.151509604E0,1.010560482E1,-4.512173527E-1,1.034194563E1
1.182983562E1,8.568033269E-1,4.841700382E0,9.011968499E-1,4.998832893E0
1.183982763E1,-1.098767835E0,3.267215946E0,1.815443223E0,3.895872802E0
1.184982063E1,-2.996345435E0,2.226291107E0,2.346741410E0,4.409269022E0
1.185981262E1,-3.652629318E0,1.534861364E0,2.026442631E0,4.450165175E0
1.186980462E1,-3.088977025E0,1.752321653E0,1.812944708E0,3.987377428E0
1.187979762E1,-1.773674223E0,2.435394555E0,2.327036878E0,3.806857959E0
1.188978962E1,-7.747936423E-1,3.114084384E0,2.986633210E0,4.383811660E0
1.189978262E1,-5.809574202E-1,3.944434615E0,3.579372477E0,5.357983136E0
1.190977463E1,-7.807655498E-1,4.426523513E0,4.069637828E0,6.063469082E0
1.191976763E1,-1.053616805E0,4.638145357E0,4.430517161E0,6.500152539E0
1.192975962E1,-1.553195455E0,5.039421641E0,4.510416439E0,6.939167317E0
1.193975162E1,-1.970109825E0,5.386209476E0,4.362754071E0,7.205984202E0
1.194974462E1,-1.863809052E0,5.293007782E0,3.854034030E0,6.807590901E0
1.195973662E1,-1.142715069E0,4.765849716E0,2.392936753E0,5.453922217E0
1.196972962E1,3.965806773E-1,3.994280959E0,3.264120430E-1,4.027170401E0
1.197972163E1,2.313134831E0,2.998488439E0,9.681123859E-1,3.908806373E0
1.198971463E1,4.045124546E0,1.865148357E0,4.323741741E0,6.207781699E0
1.199970662E1,3.621116919E0,1.762682920E0,5.731163040E0,7.004696182E0
1.200969962E1,1.240499080E0,1.959824134E0,4.951507584E0,5.467831010E0
1.201969162E1,-2.621277541E-2,3.284428394E0,1.873552560E0,3.781316726E0
1.202968362E1,-1.001214935E0,5.211763059E0,7.789374179E-1,5.363921051E0
1.203967662E1,-2.583067156E0,4.274704067E0,1.756836873E-1,4.997618988E0
1.204966863E1,-6.056119126E-1,1.245371565E0,-3.094603801E0,3.390322817E0
1.205966163E1,1.980429137E0,-1.915315129E0,-4.597900726E0,5.360151368E0
1.206965362E1,1.863093353E0,-6.362015043E0,-6.520899680E0,9.298843202E0
1.207964662E1,1.287562149E0,-1.128555890E1,-9.588534368E0,1.486477875E1
1.208963862E1,2.767236323E0,-1.564518208E1,-1.072437589E1,1.916876515E1
1.209963062E1,3.507268122E0,-1.784377727E1,-9.042832443E0,2.030945926E1
1.210962362E1,3.945183936E0,-1.489018024E1,-9.308241654E0,1.799792506E1
1.211961563E1,3.885261670E0,-7.854158404E0,-7.471146483E0,1.151525476E1
1.212960863E1,3.110282525E0,-2.422557578E0,-6.771254066E0,7.835338169E0
1.213960062E1,3.143873902E0,-8.908595574E-1,-6.718912130E0,7.471368956E0
1.214959362E1,2.360629132E0,-2.248238631E0,-6.606579516E0,7.367091675E0
1.215958562E1,1.840790903E0,-4.294134949E0,-7.138796008E0,8.531735729E0
1.216957762E1,2.569185574E0,-6.520821328E0,-8.462309763E0,1.098783472E1
1.217957062E1,3.856700068E0,-8.499685750E0,-9.081658539E0,1.302287661E1
1.218956263E1,4.540133159E0,-1.021594412E1,-8.541517900E0,1.406896767E1
1.219955563E1,4.890897393E0,-1.159973097E1,-7.927970731E0,1.487707484E1
1.220954762E1,4.525613937E0,-1.170387105E1,-7.364758149E0,1.454996363E1
1.221954062E1,2.842505191E0,-1.065983198E1,-6.643064972E0,1.287797212E1
1.222953262E1,5.004795599E-1,-9.313500640E0,-5.459045902E0,1.080707898E1
1.223952462E1,-1.342060392E0,-8.910828041E0,-4.158836811E0,9.924711889E0
1.224951762E1,-2.551200708E0,-9.789090357E0,-3.392698363E0,1.066983211E1
1.225950963E1,-3.296323385E0,-1.064008477E1,-3.232664748E0,1.159858927E1
1.226950263E1,-3.634162057E0,-1.089703598E1,-2.735942609E0,1.180838300E1
1.227949462E1,-3.734588571E0,-8.968614319E0,-2.039960225E0,9.926964909E0
1.228948762E1,-2.608671529E0,-4.611645191E0,-1.217929412E0,5.436523757E0
1.229947962E1,-2.205316852E-1,5.389378667E-1,-5.742035937E-1,8.178007186E-1
1.230947162E1,2.095286871E0,5.312836275E0,-1.084393040E0,5.813120042E0
1.231946462E1,2.702072028E0,1.003484649E1,-2.290623343E0,1.064172414E1
1.232945663E1,2.959954996E0,1.289262169E1,-1.087518961E0,1.327266835E1
1.233944963E1,3.445901009E0,1.259200113E1,2.250518460E0,1.324754919E1
1.234944162E1,2.326998872E0,1.195802613E1,4.931829949E0,1.314276452E1
1.235943462E1,6.405604282E-1,1.284477392E1,5.683366145E0,1.406055424E1
1.236942662E1,7.749531251E-1,1.297379507E1,4.992593629E0,1.392285539E1
1.237941862E1,2.267856039E0,1.174982666E1,2.811375200E0,1.229249478E1
1.238941162E1,2.831404837E0,1.085807248E1,-6.529116115E-2,1.122135706E1
1.239940363E1,1.939109496E0,1.078539626E1,-2.363467956E0,1.121030325E1
1.240939663E1,9.794209740E-1,1.067567794E1,-1.871555736E0,1.088265068E1
1.241938862E1,-3.415458065E-1,9.653886359E0,-1.737504809E0,9.814942604E0
1.242938162E1,-1.514750743E0,8.653023133E0,-1.469780685E0,8.906712885E0
1.243937362E1,-1.834361159E0,8.338494387E0,-1.451501119E-1,8.539112252E0
1.244936562E1,-1.416416948E0,8.085086001E0,8.263682771E-1,8.249711337E0
1.245935862E1,-6.075998197E-1,8.093604809E0,1.517845967E0,8.257086213E0
1.246935063E1,-3.541005094E-1,8.550054835E0,1.961595840E0,8.779332725E0
1.247934363E1,-6.394585935E-1,9.424177322E0,2.059675866E0,9.667796552E0
1.248933562E1,-1.046645462E0,1.030555153E1,1.803312882E0,1.051436143E1
1.249932862E1,-1.409468117E0,1.051766746E1,1.579795024E0,1.072863838E1
1.250932062E1,-1.761690062E0,1.056681916E1,1.567900472E0,1.082679689E1
1.251931262E1,-1.844651235E0,1.068082583E1,1.432723371E0,1.093322801E1
1.252930563E1,-1.426221852E0,1.058922802E1,1.087351585E0,1.074002758E1
1.253929763E1,-7.129949317E-1,1.038178635E1,4.402858369E-1,1.041555094E1
1.254929063E1,-8.834411949E-2,1.010329166E1,-2.234221101E-2,1.010370260E1
1.255928225E1,1.171763744E-1,9.888528106E0,-1.165032868E-1,9.889908565E0
1.256927525E1,9.546639360E-3,9.796388851E0,1.836749308E-1,9.798115234E0
1.257926725E1,-2.636030431E-1,9.715070454E0,7.201642028E-1,9.745292041E0
1.258925925E1,-6.495781504E-1,9.650465153E0,1.207571654E0,9.747392407E0
1.259925225E1,-1.136415718E0,9.622180417E0,1.506564349E0,9.805484832E0
1.260924425E1,-1.500534700E0,9.610905231E0,1.489172683E0,9.840667610E0
1.261923725E1,-1.653756162E0,9.434471930E0,1.275641431E0,9.662889377E0
1.262922925E1,-1.732552071E0,9.045522162E0,9.929238760E-1,9.263320446E0
1.263922125E1,-1.690713635E0,8.477745243E0,7.890301506E-1,8.680624723E0
1.264921425E1,-1.565808338E0,7.999989132E0,6.621201356E-1,8.178629772E0
1.265920625E1,-1.415651255E0,7.705081303E0,6.362169702E-1,7.859842135E0
1.266919925E1,-1.245387352E0,7.557971789E0,7.388755122E-1,7.695444382E0
1.267919125E1,-9.719057670E-1,7.649200632E0,6.152735594E-1,7.735207346E0
1.268918425E1,-3.885686763E-1,7.971017933E0,-2.559267819E-1,7.984585839E0
1.269917625E1,4.002188149E-1,8.452999241E0,-2.207848989E0,8.745740016E0
1.270916825E1,1.661760270E0,7.844250882E0,-7.103597524E0,1.071236747E1
1.271916125E1,2.999784475E0,4.156233045E0,-1.688560807E1,1.764643703E1
1.272915325E1,3.441082318E0,-2.498021743E0,-7.679482777E0,8.778132824E0
1.273914625E1,1.199397832E0,-6.021726973E0,1.447044021E1,1.571920452E1
1.274913825E1,8.028885487E0,-2.082954334E1,-7.161294340E0,2.344391210E1
1.275913125E1,3.040803803E1,-6.665565760E1,-7.244853157E1,1.030359898E2
1.276912325E1,5.108202146E-1,-6.628995870E1,-4.153480176E0,6.642191625E1
1.277911525E1,-3.064126943E1,-2.380187718E1,7.460797847E1,8.409380002E1
1.278910825E1,-1.003669889E1,2.690294566E0,1.193124822E1,1.582174748E1
1.279910025E1,8.499938350E0,1.636120989E1,-3.808382537E1,4.231212469E1
1.280909325E1,1.098438987E1,1.909772436E1,2.429050034E0,2.216484109E1
1.281908525E1,2.290297799E0,1.790935496E1,1.045553261E1,2.086405093E1
1.282907825E1,-1.564466694E0,9.431918451E0,-9.310395768E0,1.334511563E1
1.283907025E1,3.015910803E0,-4.238717963E0,-5.625222602E0,7.661956490E0
1.284906225E1,6.375261326E0,-9.905286226E0,8.677952152E-1,1.181150798E1
1.285905525E1,6.629468442E0,-1.992462590E1,8.454033029E-1,2.101559602E1
1.286904725E1,1.138403040E0,-3.471404926E1,-2.486539566E0,3.482160330E1
1.287904025E1,-5.323731977E0,-1.840392182E1,1.432320498E0,1.921192344E1
1.288903225E1,-2.416266413E0,-1.454765035E0,-4.140737924E-1,2.850638839E0
1.289902425E1,7.884293492E-1,4.415838895E0,4.985645968E-1,4.513293769E0
1.290901725E1,2.537227909E0,3.174586694E0,1.012749445E0,4.188220097E0
1.291900925E1,2.863230939E0,4.612839192E-1,9.977805734E-1,3.066992067E0
1.292900225E1,1.294022007E0,-2.494960141E-1,6.309230474E-1,1.461097227E0
1.293899425E1,-1.130969475E0,-1.903434171E0,-6.927479973E-1,2.319925297E0
1.294898725E1,-2.424612582E0,-4.101437033E0,-1.712034338E0,5.062765399E0
1.295897925E1,-1.773552455E0,-5.656162559E0,-2.497934912E0,6.432522213E0
1.296897125E1,-9.770184262E-1,-5.109102910E0,-1.435297900E0,5.396070571E0
1.297896425E1,-1.147476165E0,-3.383244000E0,1.603667890E0,3.915966319E0
1.298895625E1,-1.810090828E0,-1.724604097E0,5.033550451E0,5.620259624E0
1.299894925E1,-2.003941084E0,6.877062356E-1,6.822645829E0,7.144033583E0
1.300894125E1,-1.394025036E0,3.592041054E0,6.922077146E0,7.922197722E0
1.301893425E1,-1.351927861E0,5.990149670E0,6.896753440E0,9.234436096E0
1.302892625E1,-1.952451088E0,7.890296536E0,6.805559680E0,1.060115500E1
1.303891825E1,-2.371969661E0,8.988523504E0,6.563172126E0,1.137958801E1
1.304891125E1,-2.711026454E0,9.622903717E0,5.913054131E0,1.161525504E1
1.305890325E1,-3.304807110E0,1.067269118E1,4.636853707E0,1.209663174E1
1.306889625E1,-3.788101704E0,1.061582584E1,3.732498191E0,1.187337423E1
1.307888825E1,-3.769993461E0,9.961136491E0,3.036938560E0,1.107520143E1
1.308888025E1,-3.337880132E0,9.630587543E0,2.652944307E0,1.053222549E1
1.309887325E1,-2.445739303E0,1.002779241E1,2.572687764E0,1.063752714E1
1.310886525E1,-1.344640476E0,1.038829664E1,2.447715808E0,1.075714078E1
1.311885825E1,-2.613690779E-1,1.039342816E1,9.647245091E-1,1.044137712E1
1.312885025E1,1.556923055E0,9.298354012E0,-2.218976240E0,9.685414410E0
1.313884225E1,5.378342047E0,5.357344696E0,-2.338619043E0,7.943352214E0
1.314883525E1,1.012494741E1,3.949975437E-1,3.128150446E0,1.060452301E1
1.315882725E1,9.654021429E0,-7.384852105E-1,1.517698032E0,9.800453943E0
1.316882025E1,2.279640518E0,-5.679839104E-1,-3.182344780E0,3.955589073E0
1.317881225E1,-1.829348195E-1,-6.787974179E0,-1.215066031E1,1.391936078E1
1.318880525E1,2.409346087E0,-1.108989353E1,-6.270865722E0,1.296589541E1
1.319879725E1,1.782134852E-1,-1.107593388E1,-1.914764321E-1,1.107902228E1
1.320878925E1,-4.837145109E0,-8.996320181E0,-3.404221471E0,1.076663705E1
1.321878225E1,-6.139222094E0,-8.408372122E0,-1.250087929E1,1.626845883E1
1.322877425E1,-1.581365732E0,-8.707613323E0,-1.052987411E1,1.375505347E1
1.323876725E1,2.841702661E0,-7.758721905E0,-7.514949730E0,1.116904244E1
1.324875925E1,5.567235764E0,-6.641414303E0,-9.351388258E0,1.274954746E1
1.325875125E1,6.828819319E0,-6.422832518E0,-9.170238009E0,1.311406939E1
1.326874425E1,6.462987102E0,-6.751853589E0,-7.508032474E0,1.198867302E1
1.327873625E1,5.992785594E0,-7.307658918E0,-7.166177350E0,1.186041550E1
1.328872925E1,5.016766019E0,-7.609392788E0,-7.499164002E0,1.180289204E1
1.329872125E1,3.674786173E0,-7.546776125E0,-7.490351663E0,1.125003339E1
1.330871425E1,2.912128280E0,-7.058704941E0,-7.246798759E0,1.052719805E1
1.331870625E1,2.569391103E0,-6.515724310E0,-6.828319382E0,9.781737039E0
1.332869825E1,2.857651526E0,-6.299142272E0,-6.646663933E0,9.592888358E0
1.333869125E1,2.889105161E0,-6.656391361E0,-5.659389052E0,9.202345301E0
1.334868325E1,3.207245148E0,-7.958485596E0,-4.725541935E0,9.795645001E0
1.335867625E1,3.628941663E0,-1.074352669E1,-3.580211260E0,1.189161452E1
1.336866825E1,3.510031808E0,-1.426493981E1,-2.472774051E0,1.489709511E1
1.337866025E1,2.971769003E0,-1.714700317E1,-1.922737876E0,1.750851363E1
1.338865325E1,1.299474974E0,-1.719867735E1,-1.543536878E0,1.731662912E1
1.339864525E1,-1.095103823E0,-1.494586094E1,-9.657737920E-1,1.501701470E1
1.340863825E1,-2.948221681E0,-1.055514694E1,-1.604230392E-1,1.096033182E1
1.341863025E1,-3.936275118E0,-4.433497487E0,9.789504924E-1,6.009035350E0
1.342862325E1,-3.690430398E0,1.292532282E0,1.268807205E0,4.110935167E0
1.343861525E1,-2.729279999E0,6.256884445E0,-3.867230757E-1,6.837187069E0
1.344860725E1,-1.989841108E0,1.054862379E1,-2.377172513E0,1.099472058E1
1.345860025E1,-1.584017152E0,1.342461306E1,-2.076501814E0,1.367630089E1
1.346859225E1,-9.061613553E-1,1.344242602E1,3.543879732E-1,1.347759387E1
1.347858525E1,-4.950897792E-1,1.212640723E1,3.421821005E0,1.260966792E1
1.348857725E1,-6.744970100E-1,1.118226199E1,5.264894954E0,1.237808743E1
1.349856925E1,4.260599267E-2,1.025329613E1,5.413637595E0,1.159479921E1
1.350856225E1,1.669002046E0,9.419695432E0,3.041775377E0,1.003835780E1
1.351855425E1,3.620603533E0,8.171900781E0,-4.261263291E-1,8.948201829E0
1.352854725E1,3.566301026E0,8.813595276E0,-2.215780152E0,9.762563515E0
1.353853925E1,2.373085164E0,9.980143450E0,-2.481940731E0,1.055437475E1
1.354853125E1,6.638809515E-1,1.027579388E1,-3.560550874E0,1.089542107E1
1.355852413E1,-1.208770114E0,9.890897398E0,-2.284247539E0,1.022295277E1
1.356851613E1,-1.378528306E0,9.015984367E0,-5.260155201E-2,9.120914500E0
1.357850912E1,-1.413067371E0,8.615602123E0,1.946974001E0,8.945170042E0
1.358850112E1,-7.757300008E-1,8.688240328E0,2.720431116E0,9.137178038E0
1.359849412E1,2.221225664E-1,9.413992057E0,2.694433225E0,9.794516593E0
1.360848612E1,6.468988100E-1,1.007978351E1,2.483021296E0,1.040124553E1
1.361847812E1,-1.202025278E-1,1.053119909E1,2.155820464E0,1.075026347E1
1.362847113E1,-1.145647594E0,1.048321567E1,1.888461060E0,1.071338435E1
1.363846313E1,-1.698918448E0,1.014272294E1,1.584503056E0,1.040537373E1
1.364845612E1,-1.839737527E0,9.996084130E0,1.372106456E0,1.025616928E1
1.365844812E1,-1.873441902E0,9.966677313E0,1.344822178E0,1.023000430E1
1.366844012E1,-1.791621374E0,9.846467915E0,1.334741578E0,1.009675060E1
1.367843312E1,-1.564749992E0,9.682358791E0,1.178101687E0,9.878483582E0
1.368842512E1,-1.285703904E0,9.495277126E0,8.813438717E-1,9.622374408E0
1.369841813E1,-1.055015898E0,9.274040120E0,5.881819475E-1,9.352370646E0
1.370841013E1,-8.523140540E-1,9.066984951E0,4.043525771E-1,9.115928716E0
1.371840212E1,-6.922990043E-1,8.951410056E0,2.701706723E-1,8.982205303E0
1.372839512E1,-6.324842539E-1,8.972250118E0,1.845907509E-1,8.996409409E0
1.373838712E1,-6.088171370E-1,9.075166960E0,2.906382660E-1,9.100207924E0
1.374838012E1,-6.185906848E-1,9.217365983E0,5.078493905E-1,9.252048481E0
1.375837212E1,-6.519564322E-1,9.415656175E0,7.754788629E-1,9.470005061E0
1.376836413E1,-6.395409662E-1,9.551119789E0,9.337570703E-1,9.617941783E0
1.377835713E1,-6.059620146E-1,9.572628772E0,8.955513632E-1,9.633505272E0
1.378834912E1,-7.123613859E-1,9.597981715E0,7.258676501E-1,9.651714645E0
1.379834212E1,-8.899902226E-1,9.692573876E0,4.601780646E-1,9.744220584E0
1.380833412E1,-1.147440497E0,9.840438266E0,2.063869782E-1,9.909260343E0
1.381832612E1,-1.503745406E0,1.013060751E1,5.715638682E-2,1.024176380E1
1.382831913E1,-1.814587191E0,1.036824303E1,-3.122239204E-1,1.053046410E1
1.383831113E1,-1.298118274E0,9.741536706E0,-2.010631614E0,1.003121568E1
1.384830413E1,7.944883803E-1,7.677793517E0,-6.538153059E0,1.011568932E1
1.385829612E1,1.507895906E0,2.785353336E0,-8.970446252E0,9.513193429E0
1.386828912E1,-1.495188737E0,-5.345925084E0,-1.836815966E0,5.847084509E0
1.387828112E1,-2.832029904E0,-1.259969957E1,1.000817851E1,1.633819022E1
1.388827312E1,6.401052225E0,-3.082235770E1,-9.411223401E0,3.285669384E1
1.389826613E1,3.252905236E1,-6.670513440E1,-7.202356997E1,1.034171593E2
1.390825813E1,2.072455775E1,-6.574359019E1,-6.469826006E0,6.923572483E1
1.391825113E1,-1.959540193E1,-2.203293306E1,6.450930377E1,7.092869793E1
1.392824312E1,-1.328230119E1,2.493484889E0,2.025007491E1,2.434548265E1
1.393823512E1,4.560304298E0,1.386487332E1,-2.827250390E1,3.181769263E1
1.394822812E1,7.344396974E0,1.902441080E1,2.105374780E0,2.050124328E1
1.395822012E1,5.786755443E-2,1.301559331E1,9.655581467E0,1.620614918E1
1.396821313E1,-1.949474416E0,-5.723217843E0,-1.194089963E1,1.338434746E1
1.397820513E1,2.185897956E0,-2.076361481E1,-9.341518158E0,2.287290562E1
1.398819712E1,3.902373547E0,-4.344475616E1,3.347753155E0,4.374794634E1
1.399819012E1,-4.836252824E0,-3.719059769E1,-4.508396226E-1,3.750644151E1
1.400818212E1,-1.874625817E0,-1.246492593E1,-1.113667417E0,1.265420307E1
1.401817512E1,1.532346769E0,-1.227005460E0,1.875755206E0,2.715158672E0
1.402816712E1,1.872650335E0,4.487364376E0,3.053858940E0,5.741891043E0
1.403815913E1,2.453891637E0,5.057078478E0,2.679134863E0,6.226828287E0
1.404815213E1,5.089802420E0,4.304448268E0,-6.708159685E-1,6.699578914E0
1.405814412E1,7.222321145E0,4.090643658E0,-2.639281703E0,8.709827562E0
1.406813712E1,6.183438739E0,3.859246531E0,-1.343156891E0,7.411664378E0
1.407812912E1,3.716790231E0,3.583632174E0,6.866440889E-1,5.208495875E0
1.408812212E1,1.183437126E0,2.184984037E0,1.218488698E0,2.767560908E0
1.409811412E1,-1.539036715E0,-6.477487028E-2,9.326908305E-2,1.543220307E0
1.410810613E1,-3.334084704E0,-1.148014255E0,-1.448025827E0,3.811933412E0
1.411809913E1,-3.438606900E0,-1.513329577E-1,-2.744500302E0,4.402181389E0
1.412809112E1,-2.512988276E0,1.911284058E0,-2.673968263E0,4.137417443E0
1.413808312E1,-1.603525802E0,3.430662580E0,-1.052998170E0,3.930591035E0
1.414807612E1,-9.381994924E-1,4.828479243E0,7.558277598E-1,4.976515416E0
1.415806812E1,-8.436664606E-1,6.005486916E0,2.207119695E0,6.453605469E0
1.416806112E1,-1.290920351E0,6.900718437E0,3.254559940E0,7.738123203E0
1.417805313E1,-1.424056335E0,7.810914152E0,3.370175765E0,8.625334835E0
1.418804512E1,-1.523062268E0,8.536219153E0,2.195475988E0,8.944655998E0
1.419803812E1,-1.880608980E0,8.805478756E0,1.494113288E0,9.127185809E0
1.420803012E1,-2.638009933E0,9.071006666E0,1.720675353E0,9.602238386E0
1.421802312E1,-3.668431126E0,9.430618615E0,2.093446168E0,1.033327011E1
1.422801512E1,-4.021743869E0,9.786174350E0,2.088262027E0,1.078445504E1
1.423800812E1,-3.506996519E0,9.957892456E0,1.845404941E0,1.071747014E1
1.424800013E1,-2.351289667E0,1.000355219E1,2.056996965E0,1.048002176E1
1.425799212E1,-9.271185071E-1,9.831134176E0,2.880568226E0,1.028632205E1
1.426798512E1,5.105644720E-1,9.269066479E0,4.070997891E0,1.013653261E1
1.427797712E1,1.328780780E0,8.829496195E0,4.808120700E0,1.014118761E1
1.428796912E1,1.494301568E0,8.668084391E0,4.578931189E0,9.916412407E0
1.429796212E1,1.481072389E0,9.043496686E0,3.271834077E0,9.730534721E0
1.430795413E1,1.744639581E0,9.715620677E0,1.478975431E0,9.981203371E0
1.431794713E1,1.951162654E0,9.359980157E0,1.045807264E0,9.618210700E0
1.432793912E1,1.294007389E0,7.372751877E0,1.673025515E0,7.670132968E0
1.433793212E1,-4.659909278E-2,3.760422154E0,-1.164336172E0,3.936829305E0
1.434792412E1,-2.061310456E0,-8.421475732E-1,-4.602123000E0,5.112509114E0
1.435791612E1,-3.036861669E0,-4.518907181E0,-6.818396072E0,8.725455628E0
1.436790912E1,2.071805769E0,-8.134635891E0,-7.083179047E0,1.098344689E1
1.437790113E1,7.177622105E0,-1.171947259E1,-8.806055292E0,1.632209872E1
1.438789413E1,5.245395074E0,-1.630689861E1,-1.254384931E1,2.123151590E1
1.439788612E1,-2.226877583E0,-2.003233863E1,-1.416003258E1,2.463250083E1
1.440787812E1,-6.660998967E0,-1.752652606E1,-9.306767571E0,2.093236598E1
1.441787112E1,-3.228094272E0,-1.095476320E1,-1.503363583E0,1.151900740E1
1.442786312E1,1.617377418E0,-6.046406316E0,-3.318690155E0,7.084394356E0
1.443785612E1,4.961761846E0,-5.914422964E0,-5.169112884E0,9.290813077E0
1.444784813E1,6.137970205E0,-1.046706800E1,-3.724682218E0,1.269281089E1
1.445784013E1,7.091324219E0,-1.432127423E1,-4.469281862E0,1.659398249E1
1.446783312E1,8.919402398E0,-1.528272488E1,-6.227226782E0,1.875888515E1
1.447782512E1,8.528257585E0,-1.354011545E1,-6.469502070E0,1.726036966E1
1.448781812E1,6.247693791E0,-1.069214019E1,-6.727595830E0,1.409312191E1
1.449781012E1,5.003895128E0,-8.645866726E0,-7.524228677E0,1.250615829E1
1.450780213E1,3.455927814E0,-8.002534425E0,-7.008535831E0,1.118497067E1
1.451779513E1,1.886740370E0,-8.933598268E0,-6.056162980E0,1.095655408E1
1.452778713E1,1.429402591E0,-1.220193220E1,-5.494029794E0,1.345788633E1
1.453778012E1,1.032933449E0,-1.665145047E1,-3.897885516E0,1.713275418E1
1.454777212E1,-1.973233554E-1,-1.983994419E1,-2.877308111E0,2.004847186E1
1.455776492E1,-2.157862312E0,-1.799086749E1,-2.692034405E0,1.831869897E1
1.456775692E1,-3.175045116E0,-1.222659927E1,-1.509245882E0,1.272196778E1
1.457774892E1,-3.218746621E0,-6.955903873E0,5.409703588E-1,7.683591441E0
1.458774192E1,-2.085493955E0,-3.170820503E0,1.807677098E0,4.203698869E0
1.459773392E1,6.255229975E-1,1.034599906E0,2.026305807E0,2.359574370E0
1.460772692E1,3.323630759E0,6.100670232E0,2.359805260E0,7.337123385E0
1.461771892E1,5.116549923E0,9.564347361E0,2.130506552E0,1.105417938E1
1.462771092E1,6.680637426E0,1.142706854E1,3.275930636E0,1.363600137E1
1.463770392E1,7.508295014E0,1.202649702E1,4.377687567E0,1.483830425E1
1.464769592E1,5.764059475E0,1.257247494E1,3.423082834E0,1.424812281E1
1.465768892E1,4.797058645E0,1.228937263E1,8.657820189E-1,1.322081805E1
1.466768092E1,4.396936017E0,1.040073016E1,-2.540737993E0,1.157426386E1
1.467767292E1,5.999936885E-1,9.407611576E0,-5.464207824E0,1.089590359E1
1.468766592E1,-3.838187783E0,8.973507269E0,-6.133909314E0,1.152737445E1
1.469765792E1,-7.282917010E0,9.361624979E0,-5.403965131E0,1.303394574E1
1.470765092E1,-8.657147759E0,9.776126495E0,-2.967680629E0,1.339126525E1
1.471764292E1,-7.332188573E0,9.870708132E0,8.809695768E-1,1.232752918E1
1.472763492E1,-3.465911643E0,9.595155755E0,2.777867146E0,1.057336765E1
1.473762792E1,2.708486204E-1,9.422098053E0,2.308797659E0,9.704629685E0
1.474761992E1,2.691717778E0,9.655124799E0,1.104222191E0,1.008395191E1
1.475761292E1,3.334855659E0,9.938282064E0,1.756995479E-1,1.048434943E1
1.476760492E1,3.502633034E0,9.786905837E0,3.234226540E-2,1.039485498E1
1.477759692E1,3.005828449E0,9.680680640E0,3.932979043E-1,1.014422326E1
1.478758992E1,1.504073289E0,1.004971947E1,6.243295077E-1,1.018080965E1
1.479758192E1,-3.835184361E-1,1.079255325E1,6.899642842E-1,1.082138359E1
1.480757492E1,-1.738036467E0,1.098510324E1,7.592081814E-1,1.114763028E1
1.481756692E1,-2.467346665E0,1.073576393E1,1.025530289E0,1.106327886E1
1.482755892E1,-2.629832895E0,1.032891934E1,1.398708948E0,1.074983639E1
1.483755192E1,-2.355022822E0,9.813599546E0,1.753685224E0,1.024345061E1
1.484754392E1,-1.801556671E0,9.287872878E0,2.036538288E0,9.677689664E0
1.485753692E1,-1.125372008E0,8.948462475E0,2.237933790E0,9.292458796E0
1.486752892E1,-4.913448934E-1,8.849829302E0,2.138003998E0,9.117672926E0
1.487752092E1,-3.022582915E-2,8.695869775E0,1.758822734E0,8.872007786E0
1.488751392E1,3.177556057E-1,8.622197197E0,1.392857054E0,8.739754224E0
1.489750592E1,3.823253848E-1,8.739753714E0,1.163449881E0,8.825139279E0
1.490749892E1,3.338376414E-1,8.932056357E0,9.613853104E-1,8.989846498E0
1.491749092E1,3.733432576E-2,9.290727489E0,6.582163882E-1,9.314089324E0
1.492748292E1,-6.274557947E-1,9.647232812E0,8.073028457E-1,9.701264845E0
1.493747592E1,-1.203131352E0,9.718936048E0,1.198173863E0,9.866147352E0
1.494746792E1,-1.874213442E0,9.653843674E0,1.997854425E0,1.003497863E1
1.495746092E1,-2.149023953E0,9.484281437E0,3.045804108E0,1.019052604E1
1.496745292E1,-2.133868555E0,9.203567138E0,3.936984093E0,1.023517889E1
1.497744492E1,-1.425238350E0,8.819265321E0,3.529199274E0,9.605518866E0
1.498743792E1,-3.062194146E-1,8.647937225E0,1.785481213E0,8.835639860E0
1.499742992E1,7.755023248E-1,8.823153135E0,-5.859304771E-1,8.876528016E0
1.500742292E1,1.983061408E0,8.785920990E0,-3.918820302E0,9.822529855E0
1.501741492E1,4.353649956E0,6.969569986E0,-6.737924352E0,1.062679624E1
1.502740692E1,6.506020271E0,7.437453657E-1,-1.443165621E0,6.705533830E0
1.503739992E1,3.001214996E-2,-3.338071336E0,9.879046261E0,1.042780782E1
1.504739192E1,-3.906189732E0,-7.374900729E0,1.376442283E1,1.609679517E1
1.505738492E1,1.669802355E1,-3.532270465E1,-5.490148178E1,6.738464332E1
1.506737692E1,3.247876163E1,-7.092731059E1,-5.619676635E1,9.614379799E1
1.507736892E1,-2.065375264E1,-5.246412841E1,5.885971933E1,8.150784519E1
1.508736192E1,-2.942514447E1,-1.038634952E1,3.829580097E1,4.939922829E1
1.509735392E1,3.791418537E0,8.615033773E0,-2.554559641E1,2.722445881E1
1.510734692E1,1.413185251E1,1.938051208E1,-5.053887652E0,2.451234962E1
1.511733892E1,6.571736543E0,2.057658577E1,1.111074704E1,2.429058054E1
1.512733192E1,1.171778362E0,1.261184073E1,-1.179296858E1,1.730623296E1
1.513732392E1,2.255061162E0,-6.394501589E0,-1.259375997E1,1.430306756E1
1.514731592E1,1.624862146E0,-1.365618268E1,-5.221779925E-1,1.376241884E1
1.515730892E1,-1.197045058E0,-2.724722036E1,-1.531936002E0,2.731649250E1
1.516730092E1,-5.314226743E0,-4.204241610E1,-2.550201711E0,4.245361334E1
1.517729392E1,-1.012812245E1,-1.958784967E1,1.042343666E0,2.207598694E1
1.518728592E1,-7.156006118E0,-3.390007474E0,3.508909143E0,8.661005577E0
1.519727792E1,-2.257768862E0,1.305512516E0,1.446557883E0,2.982350226E0
1.520727092E1,1.650138198E0,2.478717161E0,1.493572128E0,3.331328945E0
1.521726292E1,4.889540254E0,3.283187031E0,1.439767804E0,6.062990376E0
1.522725592E1,7.486379650E0,2.988765104E0,5.643372944E-1,8.080660474E0
1.523724792E1,5.989957296E0,2.479170905E0,-1.275114012E-1,6.483990742E0
1.524723992E1,3.145464929E0,2.706793070E0,2.289904135E-1,4.156093713E0
1.525723292E1,4.952679366E-1,1.430106742E0,4.424023828E-1,1.576773760E0
1.526722492E1,-1.427793876E0,-3.291076094E-1,1.828658223E-1,1.476599837E0
1.527721792E1,-2.802628057E0,-6.296761286E-1,4.889909506E-2,2.872909183E0
1.528720992E1,-3.563611015E0,3.518187797E-1,3.857633284E-1,3.601654240E0
1.529720192E1,-3.336065741E0,1.479367779E0,1.049231978E0,3.797203102E0
1.530719492E1,-2.665720181E0,2.383913330E0,1.607976995E0,3.921058131E0
1.531718692E1,-2.434719787E0,3.351153896E0,1.815303475E0,4.522545697E0
1.532717992E1,-2.305538274E0,3.997838405E0,1.681361014E0,4.911740375E0
1.533717192E1,-1.834997190E0,4.602871444E0,1.370944029E0,5.141315760E0
1.534716392E1,-1.183957820E0,5.094538080E0,1.453285982E0,5.428454155E0
1.535715692E1,-5.676972507E-1,5.241056440E0,1.795987783E0,5.569248145E0
1.536714892E1,-3.571793608E-1,5.396756099E0,1.760666800E0,5.687925902E0
1.537714192E1,-4.891112570E-1,5.728426543E0,1.611161389E0,5.970757197E0
1.538713392E1,-6.610737763E-1,6.306156008E0,1.812857585E0,6.594776323E0
1.539712592E1,-7.325843467E-1,6.332957305E0,2.269298255E0,6.767033517E0
1.540711892E1,-7.441382986E-1,5.762270227E0,2.677582427E0,6.397417262E0
1.541711092E1,-8.533496690E-1,5.177182041E0,3.133513513E0,6.111491347E0
1.542710392E1,-9.729332690E-1,4.796107303E0,3.222885865E0,5.859713108E0
1.543709592E1,-1.217569808E0,4.548275406E0,2.971034592E0,5.567434953E0
1.544708792E1,-1.520703940E0,4.828454685E0,2.258446700E0,5.543202739E0
1.545708092E1,-1.818337741E0,5.597888038E0,4.322451845E-1,5.901655575E0
1.546707292E1,-1.708970689E0,6.123265627E0,-1.175582707E0,6.465056648E0
1.547706592E1,-1.263730799E0,5.951066296E0,-1.546663384E0,6.277290276E0
1.548705792E1,-4.579977840E-1,5.140908839E0,-6.619656229E-1,5.203547266E0
1.549704992E1,7.731714785E-1,4.033067295E0,2.833443761E-1,4.116273798E0
1.550704292E1,2.012871829E0,2.882619429E0,4.353661358E-2,3.516111945E0
1.551703492E1,3.389349078E0,1.467328362E0,-1.150997504E0,3.868531369E0
1.552702792E1,4.920145458E0,-5.802431828E-1,-3.169067507E0,5.881114039E0
1.553701992E1,5.717826710E0,-3.066869287E0,-4.741893089E0,8.036465615E0
1.554701192E1,5.306494970E0,-4.449894834E0,-6.518118744E0,9.510327274E0
1.555700479E1,2.896567377E0,-3.625062035E0,-2.789573856E0,5.414138863E0
1.556699679E1,-9.706661573E-1,-4.629459903E0,-1.593446372E0,4.991308758E0
1.557698979E1,-9.020555136E-1,-5.630706121E0,-2.228183851E0,6.122365461E0
1.558698179E1,1.738106926E0,-4.038047953E0,-1.193446535E0,4.555344289E0
1.559697379E1,5.221939261E-1,-4.354964118E0,-2.928295539E0,5.273832926E0
1.560696679E1,-1.380240663E0,-6.548189220E0,-4.835831532E0,8.256458863E0
1.561695879E1,3.765359835E-1,-8.501031194E0,-6.562304399E0,1.074584337E1
1.562695179E1,3.263376079E0,-1.027111143E1,-7.064462695E0,1.288611604E1
1.563694379E1,5.353663289E0,-1.167678909E1,-9.617628944E0,1.604705270E1
1.564693579E1,5.481752980E0,-1.238827829E1,-9.371127874E0,1.647231290E1
1.565692879E1,4.727880529E0,-1.222939540E1,-8.665152597E0,1.571610116E1
1.566692079E1,4.486297844E0,-1.041010208E1,-8.796995616E0,1.434866633E1
1.567691379E1,4.589428402E0,-8.269490225E0,-7.997494710E0,1.238576777E1
1.568690579E1,4.227456225E0,-7.516306869E0,-6.598130289E0,1.085824932E1
1.569689779E1,3.390490454E0,-7.887606232E0,-5.346306907E0,1.011398809E1
1.570689079E1,2.744128127E0,-8.739002931E0,-4.417325550E0,1.016922693E1
1.571688279E1,2.034840841E0,-1.032356680E1,-3.636036674E0,1.113271626E1
1.572687579E1,7.596813673E-1,-1.241435219E1,-2.803370361E0,1.274959378E1
1.573686779E1,-6.803191558E-1,-1.404800811E1,-2.123309653E0,1.422384652E1
1.574686079E1,-2.018277433E0,-1.449206555E1,-1.500965348E0,1.470871526E1
1.575685279E1,-3.007717100E0,-1.256641488E1,-1.100779569E0,1.296814793E1
1.576684479E1,-3.331186824E0,-8.385602480E0,-1.077462043E0,9.087137011E0
1.577683779E1,-3.065923208E0,-3.969055486E0,-6.163070548E-1,5.053030868E0
1.578682979E1,-2.355024284E0,-1.255008945E0,-1.668223782E-1,2.673764488E0
1.579682179E1,-1.782164673E0,1.672818816E0,3.146913723E-1,2.464439971E0
1.580681479E1,-5.402515168E-1,4.927018275E0,5.769998053E-1,4.990020998E0
1.581680679E1,1.421901929E0,7.678931969E0,1.586653662E-1,7.811080334E0
1.582679979E1,3.091472617E0,1.029433306E1,4.032590747E-2,1.074858699E1
1.583679179E1,3.868148916E0,1.181774908E1,4.726070523E-1,1.244367819E1
1.584678379E1,4.128574838E0,1.077389245E1,1.281580448E0,1.160880430E1
1.585677679E1,3.188030028E0,9.582939168E0,1.940891435E0,1.028412943E1
1.586676879E1,1.517688969E0,8.928625796E0,1.452646004E0,9.172454351E0
1.587676179E1,9.142770714E-1,8.750040720E0,-6.685677141E-1,8.823043577E0
1.588675379E1,9.523936815E-1,7.348851968E0,-3.545905938E0,8.214994090E0
1.589674579E1,-3.388059840E-1,6.898297105E0,-3.391587392E0,7.694423791E0
1.590673879E1,-2.710938746E0,7.881526297E0,-1.698287534E0,8.505987668E0
1.591673079E1,-4.602714154E0,9.226730298E0,-1.300188042E0,1.039269063E1
1.592672379E1,-4.783565318E0,9.638771306E0,-2.084872688E0,1.096061602E1
1.593671579E1,-4.483443526E0,9.552601474E0,-1.194511240E0,1.061980781E1
1.594670779E1,-3.223731957E0,9.271790112E0,4.770861657E-1,9.827825335E0
1.595670079E1,-1.367703210E0,8.654881963E0,1.383899120E0,8.870894579E0
1.596669279E1,-2.923783243E-2,8.242984797E0,2.166037889E0,8.522873538E0
1.597668579E1,5.361253560E-1,8.439200982E0,3.349893236E0,9.095566409E0
1.598667779E1,1.008470672E0,8.719949194E0,4.362146838E0,9.802186087E0
1.599666979E1,1.537264862E0,9.504521574E0,4.119697888E0,1.047239344E1
1.600666279E1,1.127432567E0,1.050360374E1,2.206636422E0,1.079194329E1
1.601665479E1,-4.617998629E-1,1.119417160E1,3.248433081E-1,1.120840132E1
1.602664779E1,-2.288820500E0,1.129857247E1,5.812037341E-2,1.152821829E1
1.603663979E1,-3.565217537E0,1.095726230E1,1.035267219E0,1.156910331E1
1.604663179E1,-3.685567269E0,1.074860792E1,2.191152703E0,1.157225685E1
1.605662479E1,-2.924110102E0,1.056111695E1,2.813352728E0,1.131382184E1
1.606661679E1,-2.032297156E0,1.037532635E1,2.931081737E0,1.097127471E1
1.607660979E1,-1.423794088E0,1.013504906E1,2.802316693E0,1.061128587E1
1.608660179E1,-1.184717958E0,9.822187936E0,2.529573319E0,1.021164402E1
1.609659379E1,-8.702907338E-1,9.443466117E0,2.238922408E0,9.744189644E0
1.610658679E1,-7.462801337E-1,9.208009853E0,1.962695117E0,9.444392601E0
1.611657879E1,-8.518302700E-1,8.919471395E0,1.923263980E0,9.164143665E0
1.612657179E1,-1.029810013E0,8.655187773E0,2.155326959E0,8.978764856E0
1.613656379E1,-1.272252823E0,8.727755812E0,2.400943930E0,9.140945275E0
1.614655579E1,-1.180427271E0,9.107113808E0,2.028644547E0,9.404697185E0
1.615654879E1,-6.242727166E-1,9.891942880E0,2.505109446E-1,9.914787244E0
1.616654079E1,5.262080397E-1,1.076064968E1,-2.998694261E0,1.118305162E1
1.617653279E1,2.028620573E0,1.137417112E1,-6.548292131E0,1.328033132E1
1.618652579E1,4.468417643E0,9.715934088E0,-1.229767100E1,1.629720355E1
1.619651779E1,8.709851053E0,4.860456496E0,-2.314652125E1,2.520410658E1
1.620651079E1,1.386751158E1,-4.217818844E-1,-2.106904763E1,2.522678230E1
1.621650279E1,7.257777491E0,2.007154421E0,3.548863752E0,8.324568272E0
1.622649479E1,-5.520855650E0,6.975149399E-1,2.825252046E1,2.879533445E1
1.623648779E1,-9.496482237E0,-1.115986599E1,6.919999630E0,1.620531328E1
1.624647979E1,-1.670894059E0,-4.251568505E1,-6.486342519E1,7.757344449E1
1.625647279E1,6.791671081E-1,-7.065731891E1,-3.175956346E1,7.746991581E1
1.626646479E1,-1.393434876E1,-4.279485452E1,4.875081903E1,6.634913718E1
1.627645679E1,-3.641264378E-1,-8.535410483E0,2.005779273E1,2.180139604E1
1.628644979E1,1.475001430E1,7.550586755E0,-1.226207432E1,2.061389698E1
1.629644179E1,1.178529470E1,1.468678251E1,4.376828027E0,1.933265049E1
1.630643479E1,-3.063359204E-1,1.406772960E1,1.045915788E1,1.753250813E1
1.631642679E1,-3.636976322E0,5.048538619E-1,-3.672437054E0,5.193194402E0
1.632641879E1,-8.233394194E-1,-1.338978704E1,-5.153702547E0,1.437097543E1
1.633641179E1,9.986665727E-1,-2.240698646E1,-2.955489770E0,2.262311422E1
1.634640379E1,1.557477517E-1,-2.689360883E1,-4.105619839E0,2.720563485E1
1.635639679E1,-4.685246725E-1,-2.147913157E1,-4.004681987E-1,2.148797299E1
1.636638879E1,-1.079505645E0,-1.004023061E1,1.244514363E0,1.017449650E1
1.637638079E1,-3.823821759E-1,-1.047043365E0,-7.645667160E-1,1.351694566E0
1.638637379E1,1.204756659E0,4.911576948E0,-3.310435055E0,6.044336769E0
1.639636579E1,2.679926283E0,6.966366881E0,-3.392551598E0,8.198882775E0
1.640635879E1,2.205174911E0,4.156946990E0,-1.244101549E0,4.867318906E0
1.641635079E1,6.172639516E-1,1.971517981E0,1.336480832E0,2.460503800E0
1.642634279E1,-6.847484216E-2,2.693087196E-1,1.762582640E0,1.784352418E0
1.643633579E1,-1.131146792E-1,-1.984087155E0,1.076453983E0,2.260121667E0
1.644632779E1,-1.543450047E-1,-3.813665730E0,3.254609933E-1,3.830638790E0
1.645631979E1,-6.678104997E-1,-4.541792598E0,-1.375639343E-1,4.592687090E0
1.646631279E1,-1.317165871E0,-3.789738924E0,-3.479163480E-1,4.027169332E0
1.647630479E1,-1.818021553E0,-1.977320173E0,-7.557353738E-1,2.790364383E0
1.648629779E1,-1.767012198E0,-2.445925391E-1,-1.595037692E0,2.392969464E0
1.649628979E1,-1.331819286E0,7.987624025E-1,-2.010899855E0,2.540764100E0
1.650628179E1,-1.144255957E0,1.613539744E0,-1.759061446E0,2.647098293E0
1.651627479E1,-1.440996596E0,2.010560424E0,-7.994067657E-1,2.599591427E0
1.652626679E1,-1.884307783E0,1.933726841E0,2.680027440E-1,2.713252805E0
1.653625979E1,-2.115751249E0,1.951583068E0,1.192736391E0,3.115718203E0
1.654625179E1,-2.110754657E0,2.233480843E0,2.438810791E0,3.923202770E0
1.655624379E1,-1.326511768E0,2.638086532E0,3.908999027E0,4.898919004E0
1.656623642E1,-6.794448508E-1,3.797305806E0,5.527064808E0,6.740150004E0
1.657622842E1,-2.839624268E-1,5.067416940E0,5.525882501E0,7.502981175E0
1.658622042E1,6.263714285E-1,5.728230076E0,4.421697221E0,7.263357852E0
1.659621342E1,1.118772914E0,5.655273197E0,3.782969895E0,6.895261343E0
1.660620542E1,3.521535328E-1,5.175903840E0,3.369997718E0,6.186346037E0
1.661619842E1,-1.281394214E0,4.475551831E0,2.769192216E0,5.416729720E0
1.662619042E1,-2.946145334E0,4.108185305E0,1.865509130E0,5.388606791E0
1.663618242E1,-3.689969637E0,4.217794871E0,1.478529873E0,5.795836444E0
