"Time (s)","Linear Acceleration x (m/s^2)","Linear Acceleration y (m/s^2)","Linear Acceleration z (m/s^2)","Absolute acceleration (m/s^2)"
7.459083332E-3,4.649247611E-1,6.092275384E-1,-9.790788388E-1,1.243345728E0
1.744808333E-2,3.596631119E-1,8.382983512E-1,-5.595756143E-1,1.070152582E0
2.743808333E-2,3.506816424E-1,8.245837069E-1,-4.752137411E-1,1.014270183E0
3.742808333E-2,3.712745127E-1,7.355715430E-1,-5.203875750E-1,9.745324453E-1
4.741808333E-2,2.896406579E-1,5.483600700E-1,-4.697465944E-1,7.779796527E-1
5.740808333E-2,1.249083669E-1,5.602290407E-1,-5.086165452E-1,7.669090352E-1
6.739708333E-2,3.432834528E-1,2.836294279E-1,-5.635955751E-1,7.182820850E-1
7.738708333E-2,1.039699993E0,-5.352582139E-1,1.445618820E-1,1.178293499E0
8.737708333E-2,-1.589243978E-1,1.377563077E0,-4.922437567E-1,1.471475760E0
9.736708333E-2,-4.824027465E-1,7.067152414E-1,-3.244853854E-2,8.562778462E-1
1.073570833E-1,1.880376846E-2,6.341258597E-1,1.557920444E-1,6.532536634E-1
1.173470833E-1,4.657030986E-1,3.363178110E-1,-4.329231691E-1,7.193132255E-1
1.273360833E-1,7.313459064E-1,-3.295900047E-2,-3.215728873E-1,7.996013084E-1
1.373260833E-1,8.808899085E-1,-8.422475606E-2,-5.258751869E-2,8.864684358E-1
1.473160833E-1,7.109076950E-1,1.682770193E-1,9.329232574E-3,7.306120315E-1
1.573060833E-1,6.332964322E-1,2.985693562E-1,6.651734054E-2,7.033012072E-1
1.672960833E-1,3.847099525E-1,5.424809870E-1,-9.022838473E-2,6.711397248E-1
1.772860833E-1,3.006313768E-1,5.319723710E-1,-3.892585015E-1,7.244970733E-1
1.872750833E-1,4.219646099E-1,4.571978849E-1,-5.406978786E-1,8.242804340E-1
1.972650833E-1,1.461890251E-1,4.088434580E-1,-4.989645463E-1,6.614301344E-1
2.072550833E-1,6.868154123E-2,3.812647730E-1,-4.678409868E-1,6.074168011E-1
2.172450833E-1,-1.262989810E-1,4.268838724E-1,-1.025975847E-1,4.568452009E-1
2.272350833E-1,-2.892605889E-1,2.587875322E-1,7.650619751E-1,8.578825682E-1
2.372240833E-1,4.347653344E-2,4.730163574E-2,1.049583396E0,1.051547887E0
2.472140833E-1,4.519796835E-1,3.855654001E-2,3.142053956E-1,5.518127143E-1
2.572040833E-1,2.865707235E-1,2.419548601E-2,-2.511759192E-1,3.818344451E-1
2.671940833E-1,4.199805035E-1,-1.944251829E-1,-1.580543321E-1,4.890459559E-1
2.771840833E-1,5.963515310E-1,-4.666580951E-1,-9.300815105E-2,7.629255812E-1
2.871740833E-1,7.499897535E-1,-6.589993304E-1,-3.792737961E-1,1.067995019E0
2.971630833E-1,8.779063667E-1,-6.560912177E-1,-1.011104624E0,1.491143130E0
3.071530833E-1,8.678121722E-1,-4.278802380E-1,-1.691881324E0,1.949010487E0
3.171430833E-1,5.702707565E-1,-2.911501166E-1,-1.555785041E0,1.682392409E0
3.271330833E-1,-1.723203689E-1,-2.623633969E-1,-2.695531332E-1,4.137484178E-1
3.371230833E-1,-1.020833367E0,-3.685014707E-1,1.380442246E0,1.755993990E0
3.471120833E-1,-8.303230414E-1,-7.112146738E-1,1.698545396E0,2.019979982E0
3.571020833E-1,-2.729372093E-1,-9.544205457E-1,5.030669528E-1,1.112874502E0
3.670920833E-1,-6.712413535E-2,-1.148212183E0,-6.396222425E-1,1.316059831E0
3.770820833E-1,-1.180070445E-2,-1.298636483E0,-1.170126085E0,1.748082100E0
3.870720833E-1,-7.552994639E-3,-1.455488920E0,-1.462313206E0,2.063217137E0
3.970610833E-1,-3.078624822E-2,-1.608391563E0,-1.627712225E0,2.288518801E0
4.070543333E-1,-2.482156932E-1,-1.649269740E0,-1.727316620E0,2.401108996E0
4.170443333E-1,-4.184565729E-1,-1.530596405E0,-2.115209797E0,2.644228384E0
4.270343333E-1,-5.087266190E-1,-1.363625362E0,-2.453943678E0,2.853088935E0
4.370243333E-1,-5.631351069E-1,-1.510374395E0,-2.242137061E0,2.761436322E0
4.470143333E-1,-4.796267809E-1,-1.996189722E0,-1.748388816E0,2.696605034E0
4.570033333E-1,-1.719423464E-1,-2.255879480E0,-1.894110201E0,2.950628721E0
4.669933333E-1,2.115288734E-1,-2.332210203E0,-2.337187645E0,3.308533660E0
4.769833333E-1,2.816973616E-1,-2.167784159E0,-2.560242550E0,3.366523946E0
4.869733333E-1,4.885480240E-2,-1.795862945E0,-2.232955763E0,2.865938232E0
4.969633333E-1,-1.635122694E-1,-1.581211950E0,-1.594305328E0,2.251394451E0
5.069523333E-1,-3.315513070E-1,-1.477670333E0,-1.008586813E0,1.819528302E0
5.169423333E-1,-3.122835620E-1,-1.449221582E0,-5.396430409E-1,1.577649780E0
5.269323333E-1,-1.649359202E-1,-1.536643596E0,-3.839351964E-1,1.592445802E0
5.369223333E-1,5.211711019E-2,-1.667757174E0,-6.654762912E-1,1.796382164E0
5.469123333E-1,4.639215982E-1,-1.956019059E0,-1.249850532E0,2.367141770E0
5.569023333E-1,8.904563919E-1,-2.339101439E0,-2.005922998E0,3.207496718E0
5.668913333E-1,5.727303877E-1,-2.027365614E0,-2.349913525E0,3.155998258E0
5.768813333E-1,2.560451880E-1,-1.523295864E0,-2.456156264E0,2.901498410E0
5.868713333E-1,1.827781141E-1,-1.403632303E0,-2.576309529E0,2.939551372E0
5.968613333E-1,-1.698297474E-1,-1.152353181E0,-2.745790490E0,2.982637325E0
6.068513333E-1,-3.318060994E-1,-9.810264002E-1,-3.106338578E0,3.274423223E0
6.168403333E-1,-2.323227417E-1,-1.100057146E0,-3.170845646E0,3.364277291E0
6.268303333E-1,-2.735561371E-1,-1.366781689E0,-2.963523259E0,3.274964924E0
6.368203333E-1,-3.468249652E-1,-1.667998372E0,-2.908268241E0,3.370538575E0
6.468103333E-1,-5.599752715E-1,-1.518925655E0,-2.575648209E0,3.042149100E0
6.568003333E-1,-9.659658730E-1,-9.155070332E-1,-1.926653464E0,2.341631219E0
6.667893333E-1,-1.187202294E0,-6.157384130E-1,-1.485571675E0,1.998876255E0
6.767793333E-1,-1.049041066E0,-1.019573438E0,-1.093453301E0,1.826378185E0
6.867693333E-1,-6.716819412E-1,-1.552879998E0,-9.350510591E-1,1.933109775E0
6.967593333E-1,-5.865567139E-1,-1.468397087E0,-8.750685668E-1,1.807203304E0
7.067493333E-1,-6.131019035E-1,-1.217338405E0,-9.526008922E-1,1.662905648E0
7.167393333E-1,-4.681304240E-1,-9.684287202E-1,-1.288711127E0,1.678623439E0
7.267283333E-1,-4.191693485E-1,-5.519626857E-1,-1.657348253E0,1.796432292E0
7.367183333E-1,-6.909631348E-1,7.319237575E-2,-1.838742331E0,1.965645069E0
7.467083333E-1,-1.022935587E0,9.006334707E-1,-1.626334621E0,2.121910028E0
7.566983333E-1,-1.002120377E0,1.512844843E0,-1.471993271E0,2.336602011E0
7.666883333E-1,-9.770042467E-1,2.121736459E0,-1.678801103E0,2.876573664E0
7.766773333E-1,-1.195537500E0,2.566318976E0,-1.973344651E0,3.450998712E0
7.866673333E-1,-1.231018697E0,2.480856657E0,-2.149853380E0,3.505984361E0
7.966573333E-1,-6.944281948E-1,1.911862494E0,-2.296481084E0,3.067779992E0
8.066473333E-1,-1.965255028E-1,1.728210660E0,-2.250865200E0,2.844596370E0
8.166373333E-1,-1.446671319E-1,1.932673319E0,-2.296841272E0,3.005267803E0
8.266263333E-1,3.419586200E-1,2.105410741E0,-2.852346640E0,3.561680985E0
8.366163333E-1,8.836592960E-1,2.089582474E0,-2.747703699E0,3.563296828E0
8.466063333E-1,1.759285687E0,1.768172286E0,-2.620365375E0,3.617711163E0
8.565963333E-1,2.569105759E0,1.011883180E0,-2.601925011E0,3.793972290E0
8.665863333E-1,2.923565142E0,2.785495131E-1,-2.319148985E0,3.742094999E0
8.765763333E-1,3.221464407E0,1.389308672E-1,-1.597287408E0,3.598397112E0
8.865653333E-1,3.167137341E0,2.452832414E-1,-5.340396541E-1,3.221198715E0
8.965553333E-1,2.937496133E0,-2.599632610E-1,1.552096617E-1,2.953058494E0
9.065453333E-1,2.544718777E0,-1.092303738E0,6.812585109E-1,2.851812453E0
9.165353333E-1,2.149218957E0,-1.520209119E0,1.233964232E0,2.907377791E0
9.265253333E-1,2.164557374E0,-1.642000481E0,1.498795738E0,3.102879770E0
9.365143333E-1,2.059118627E0,-1.958219658E0,1.901271286E0,3.418980294E0
9.465043333E-1,1.289734975E0,-2.929985677E0,2.781381907E0,4.240792105E0
9.564943333E-1,1.591758281E-1,-4.032768795E0,3.642714195E0,5.436720316E0
9.664843333E-1,-1.129989628E0,-4.717193865E0,4.360018451E0,6.522158800E0
9.764743333E-1,-2.409235867E0,-4.892210385E0,4.848797733E0,7.297189827E0
9.864633333E-1,-3.736176674E0,-4.919337373E0,5.664997702E0,8.381592646E0
9.964533333E-1,-5.042094988E0,-5.184388150E0,6.612136710E0,9.799028228E0
1.006443333E0,-7.133082694E0,-5.660820451E0,7.913636867E0,1.206446871E1
1.016433333E0,-8.920784095E0,-6.176103991E0,9.354536399E0,1.432592059E1
1.026423333E0,-1.014371697E1,-6.831557570E0,1.071412923E1,1.625908171E1
1.036412333E0,-1.151716712E1,-7.692473536E0,1.201545046E1,1.833549392E1
1.046402333E0,-1.306542562E1,-7.806389576E0,1.277341099E1,1.986970290E1
1.056392333E0,-1.354680817E1,-8.692367878E0,1.465301250E1,2.176658095E1
1.066382333E0,-1.514200930E1,-9.113475578E0,1.464477611E1,2.295224063E1
1.076372333E0,-1.631306743E1,-8.346547172E0,1.493895772E1,2.364219694E1
1.086362333E0,-1.626929634E1,-7.406865703E0,1.499003548E1,2.332922688E1
1.096351333E0,-1.652281875E1,-6.930071459E0,1.356927668E1,2.247564681E1
1.106341333E0,-1.552937915E1,-6.823189620E0,1.214762443E1,2.086342044E1
1.116331333E0,-1.407181096E1,-6.787761340E0,1.026078057E1,1.869152710E1
1.126321333E0,-1.263998455E1,-6.809757981E0,8.647656559E0,1.676078689E1
1.136311333E0,-1.112066742E1,-6.092247902E0,7.343366110E0,1.465297766E1
1.146300333E0,-9.857854782E0,-4.403894788E0,6.237690960E0,1.246917715E1
1.156290333E0,-8.779576761E0,-2.242020702E0,6.030121236E0,1.088439190E1
1.166280333E0,-7.769249232E0,1.533618246E0,6.248369730E0,1.008738533E1
1.176270333E0,-7.462756314E0,5.999889961E0,6.048355778E0,1.132581207E1
1.186260333E0,-7.102236292E0,9.672064183E0,5.034877185E0,1.301309241E1
1.196249333E0,-4.606613077E0,1.150700933E1,2.711118548E0,1.268788050E1
1.206239333E0,-1.679542530E-1,1.181674921E1,-1.293154426E0,1.188848261E1
1.216229333E0,3.847623435E0,1.031156480E1,-5.475925060E0,1.229301957E1
1.226219333E0,7.078446895E0,8.390935725E0,-8.610068318E0,1.395154075E1
1.236209333E0,9.934753854E0,6.378118275E0,-1.035674975E1,1.570483977E1
1.246198333E0,1.213472664E1,3.905419361E0,-1.119514224E1,1.696570366E1
1.256188333E0,1.344184831E1,2.092786310E0,-1.061009908E1,1.725216633E1
1.266178333E0,1.346591195E1,1.257601309E0,-8.664035779E0,1.606168925E1
1.276168333E0,1.255516718E1,9.002805912E-1,-6.343229109E0,1.409536390E1
1.286158333E0,1.143087741E1,9.600139922E-1,-4.429404143E0,1.229659328E1
1.296148333E0,1.046065945E1,1.472330655E0,-3.190588185E0,1.103508072E1
1.306137333E0,9.526926350E0,2.331855569E0,-2.811338070E0,1.020311216E1
1.316127333E0,8.702750194E0,2.888242112E0,-2.955685067E0,9.634099732E0
1.326117333E0,8.040777555E0,2.988241486E0,-3.340931501E0,9.205732679E0
1.336107333E0,7.827813774E0,3.020724816E0,-3.775997382E0,9.200956642E0
1.346097333E0,7.999839444E0,2.762410323E0,-4.282933730E0,9.485349928E0
1.356086333E0,8.081652516E0,2.215767581E0,-4.720239680E0,9.617868578E0
1.366076333E0,8.312894107E0,2.131194330E0,-4.823291886E0,9.844305071E0
1.376066333E0,8.468300235E0,2.269911043E0,-4.598043398E0,9.899828691E0
1.386056333E0,8.829025494E0,2.281766858E0,-4.448718081E0,1.014639068E1
1.396046333E0,9.338021523E0,3.239334667E0,-3.817552082E0,1.059554807E1
1.406035333E0,9.142472506E0,4.257662941E0,-3.331580926E0,1.062129600E1
1.416025458E0,9.044784828E0,4.074180530E0,-3.884047788E0,1.065330497E1
1.426015458E0,8.994956610E0,4.022485881E0,-3.809616534E0,1.056422336E1
1.436005458E0,8.904634670E0,3.952010853E0,-3.472886494E0,1.034271961E1
1.445995458E0,8.894668676E0,3.662378089E0,-3.562817840E0,1.025776852E1
1.455984458E0,8.747372636E0,3.417147618E0,-3.522850952E0,1.003014978E1
1.465974458E0,8.588916600E0,3.255951869E0,-3.223831652E0,9.734670074E0
1.475964458E0,8.384179852E0,3.159041287E0,-2.831716201E0,9.396415821E0
1.485954458E0,7.942746645E0,3.278906576E0,-2.240372079E0,8.880186916E0
1.495944458E0,7.665812572E0,3.454903967E0,-1.682749581E0,8.575120405E0
1.505933458E0,7.444380854E0,3.608259184E0,-1.422390171E0,8.394136908E0
1.515923458E0,7.181757256E0,3.888848644E0,-1.219157327E0,8.257549615E0
1.525913458E0,6.856783043E0,4.156333618E0,-8.741265804E-1,8.065648152E0
1.535903458E0,6.809854460E0,4.243358898E0,-6.350853878E-1,8.048822644E0
1.545893458E0,6.860320024E0,4.330596724E0,-7.412953824E-1,8.146629834E0
1.555882458E0,6.649982813E0,4.469009089E0,-7.225796145E-1,8.044652569E0
1.565872458E0,6.427036082E0,4.451586433E0,-5.841954620E-1,7.839942532E0
1.575862458E0,6.273772373E0,4.606076595E0,-2.833492000E-1,7.788224968E0
1.585852458E0,6.073212876E0,5.067843786E0,4.780166039E-1,7.924358344E0
1.595842458E0,4.139646249E0,5.037012588E0,3.540974396E0,7.419344078E0
1.605831458E0,-4.898569232E-1,3.064467251E0,8.004137732E0,8.584703849E0
1.615821458E0,-5.258225035E0,-2.565416751E0,9.967245662E0,1.155752048E1
1.625811458E0,-5.886009005E0,-1.031838383E1,5.149750414E0,1.294735788E1
1.635801458E0,-3.769238586E0,-1.343602566E1,-1.468939855E0,1.403181133E1
1.645791458E0,-8.232633471E0,-1.185654653E1,-3.356040122E-1,1.443837177E1
1.655780458E0,-1.977951438E1,-1.182102002E1,9.676905677E0,2.499216291E1
1.665770458E0,-2.674215659E1,-1.076136421E1,2.132853069E1,3.585883601E1
1.675760458E0,-2.369990642E1,-4.560838734E0,2.787367935E1,3.687043280E1
1.685750458E0,-1.488652222E1,-1.274598580E0,2.333315502E1,2.770684516E1
1.695740458E0,-7.057474102E0,-5.056265130E0,1.060436997E1,1.370497794E1
1.705730458E0,-2.043738695E0,-1.102255231E1,-1.801996089E0,1.135432593E1
1.715719458E0,-5.987800258E-1,-1.430442606E1,-8.340144471E0,1.656904198E1
1.725709458E0,-3.298670458E0,-1.335872780E1,-9.638193601E0,1.679975033E1
1.735699458E0,-8.459531751E0,-9.481506348E0,-8.210946148E0,1.512885576E1
1.745689458E0,-1.237815091E1,-5.663519526E0,-7.845422080E0,1.571129278E1
1.755679458E0,-1.325093672E1,-2.029831678E0,-7.517273998E0,1.536935096E1
1.765668458E0,-1.261883400E1,8.672318360E-1,-5.052618806E0,1.362042655E1
1.775658458E0,-1.144298934E1,2.364423975E0,-2.320447651E0,1.191289146E1
1.785648458E0,-9.864793088E0,2.213468163E0,-1.050396743E0,1.016449297E1
1.795638458E0,-8.009953372E0,1.389633777E0,-1.262475986E0,8.227045683E0
1.805628458E0,-6.032968830E0,7.621088389E-1,-1.842063550E0,6.353795787E0
1.815617458E0,-4.273795409E0,3.241696358E-1,-2.029740753E0,4.742389765E0
1.825607458E0,-2.703246734E0,4.452391595E-2,-1.607670894E0,3.145493758E0
1.835597458E0,-1.262886314E0,-4.566090703E-3,-1.046571495E0,1.640187363E0
1.845587458E0,-5.961119413E-2,2.172114900E-1,-7.836555362E-1,8.153835449E-1
1.855577458E0,1.095252489E0,8.043631580E-1,-7.907271588E-1,1.572204676E0
1.865566458E0,2.127289560E0,1.454521498E0,-7.367754847E-1,2.680267109E0
1.875556458E0,2.965306075E0,2.108979004E0,-6.706206715E-1,3.700076302E0
1.885546458E0,3.790929417E0,2.748762337E0,-6.875506997E-1,4.732817997E0
1.895536458E0,4.688405099E0,3.124333092E0,-5.833468848E-1,5.664176306E0
1.905526458E0,5.548844517E0,3.315358996E0,-5.846133918E-1,6.490227543E0
1.915515458E0,6.346584826E0,3.294325684E0,-7.300541103E-1,7.187816057E0
1.925505458E0,7.136344271E0,3.312130456E0,-7.894758546E-1,7.907015229E0
1.935495458E0,7.725719635E0,3.398353498E0,-1.216488951E0,8.527332276E0
1.945485458E0,8.119678713E0,3.518612597E0,-2.427919767E0,9.176307068E0
1.955475458E0,8.353243403E0,3.536336093E0,-3.876056983E0,9.864388783E0
1.965464458E0,8.308010513E0,3.921234033E0,-4.682770137E0,1.031152031E1
1.975454458E0,8.027328959E0,4.444010780E0,-4.821986495E0,1.036526873E1
1.985444458E0,7.427819200E0,4.947146146E0,-4.354505696E0,9.930179904E0
1.995434458E0,6.882828881E0,5.335640416E0,-3.665947814E0,9.448892285E0
2.005424458E0,6.382791955E0,5.240091065E0,-2.828079233E0,8.729067514E0
2.015413458E0,5.720757335E0,4.821828620E0,-1.967033751E0,7.736040169E0
2.025403458E0,5.137985231E0,4.304089249E0,-1.329741039E0,6.833175523E0
2.035393458E0,4.698779229E0,3.801574565E0,-8.709296152E-1,6.106473108E0
2.045383458E0,4.169733682E0,3.566128826E0,-4.539912719E-1,5.505457461E0
2.055373458E0,3.460897948E0,3.960217128E0,-1.899008998E-1,5.262812618E0
2.065362458E0,2.925943204E0,4.677326379E0,-2.898011640E-1,5.524718129E0
2.075352458E0,2.418713034E0,4.788650349E0,-6.246245728E-1,5.401064780E0
2.085342458E0,1.916251853E0,4.306767566E0,-9.954751624E-1,4.817804358E0
2.095332458E0,1.382684653E0,3.550502727E0,-1.077531479E0,3.959666722E0
2.105322458E0,3.730745780E-1,2.221236774E0,-8.029835075E-1,2.391204709E0
2.115311458E0,-1.366661528E0,6.628257483E-1,8.020040989E-2,1.521030510E0
2.125301458E0,-2.282500391E0,-7.272138253E-1,1.272844123E0,2.712707161E0
2.135291458E0,-3.275572786E0,-1.740763170E0,2.278846174E0,4.353478308E0
2.145281458E0,-4.927619369E0,-2.082754242E0,2.862246560E0,6.067269011E0
2.155271458E0,-6.477927323E0,-1.657816323E0,3.163819631E0,7.397408467E0
2.165260458E0,-8.100316243E0,-9.704919103E-1,2.958526229E0,8.678125099E0
2.175250458E0,-1.000416030E1,-7.174773341E-1,2.301979221E0,1.029063193E1
2.185240458E0,-1.218033843E1,-1.818016583E0,1.760049626E0,1.244040206E1
2.195230458E0,-1.408214532E1,-3.558555220E0,1.866228338E0,1.464421184E1
2.205220458E0,-1.534781842E1,-5.633311640E0,2.225454955E0,1.649976909E1
2.215209458E0,-1.640912782E1,-8.350106957E0,2.903493989E0,1.863904610E1
2.225199458E0,-1.718815821E1,-1.058781066E1,3.845077558E0,2.055040483E1
2.235189458E0,-1.782170052E1,-1.165490880E1,5.038741609E0,2.188238620E1
2.245179458E0,-1.852586316E1,-1.179386204E1,6.046521506E0,2.277856909E1
2.255169458E0,-1.925657917E1,-1.121678980E1,6.407817453E0,2.318819397E1
2.265158458E0,-1.986090061E1,-1.072215161E1,6.433031816E0,2.346920975E1
2.275148458E0,-1.975260783E1,-1.033390351E1,6.383283706E0,2.318838909E1
2.285138458E0,-1.912936247E1,-1.002275796E1,5.962650214E0,2.240404837E1
2.295128458E0,-1.793547564E1,-1.018065032E1,5.061728768E0,2.123553686E1
2.305118458E0,-1.605292246E1,-1.043524511E1,4.353963075E0,1.963536744E1
2.315107458E0,-1.373312619E1,-1.017050891E1,3.963007711E0,1.754261773E1
2.325097458E0,-1.108202902E1,-9.084269321E0,3.872748921E0,1.484363502E1
2.335087458E0,-8.167301361E0,-7.212086179E0,3.649370665E0,1.149073126E1
2.345077458E0,-5.112770283E0,-4.824945771E0,2.935427096E0,7.618218551E0
2.355067458E0,-2.046442448E0,-2.121271605E0,1.889306713E0,3.501028388E0
2.365056458E0,6.602430332E-1,7.170101416E-1,7.647377470E-1,1.238889918E0
2.375046458E0,3.192438244E0,3.333062611E0,-5.907257786E-1,4.652948017E0
2.385036458E0,5.490575843E0,5.336508143E0,-2.229443633E0,7.974657433E0
2.395026458E0,7.178334296E0,6.452351017E0,-3.789540996E0,1.036927856E1
2.405016458E0,8.481198608E0,6.781524115E0,-5.344387851E0,1.210298644E1
2.415002208E0,9.593593964E0,6.807391613E0,-6.715089805E0,1.354511192E1
2.424992208E0,1.033405553E1,6.739179164E0,-7.578143513E0,1.447886386E1
2.434982208E0,1.055136379E1,6.301572960E0,-7.860675126E0,1.458873926E1
2.444972208E0,1.036404239E1,5.710648084E0,-7.598807573E0,1.406295676E1
2.454962208E0,9.942062874E0,5.007067827E0,-7.050042876E0,1.317643529E1
2.464951208E0,9.563032322E0,4.277046461E0,-6.406797114E0,1.227972976E1
2.474941208E0,9.279391492E0,3.796621681E0,-5.879440827E0,1.162279085E1
2.484931208E0,9.348393899E0,3.216917612E0,-5.606732537E0,1.136558301E1
2.494921208E0,9.605414695E0,2.377481539E0,-5.495348926E0,1.131880160E1
2.504911208E0,9.915769114E0,1.382477662E0,-5.585487263E0,1.146435299E1
2.514900208E0,1.042522064E1,4.947527969E-1,-6.070461177E0,1.207395978E1
2.524890208E0,1.068400671E1,5.153560460E-2,-6.270163472E0,1.238812356E1
2.534880208E0,1.059316086E1,-5.019834638E-4,-5.832309930E0,1.209259676E1
2.544870208E0,1.031080233E1,1.184917787E-1,-5.139643502E0,1.152139836E1
2.554860208E0,1.002043427E1,1.035483420E-2,-4.646115696E0,1.104516190E1
2.564849208E0,9.931135597E0,-2.735545291E-1,-4.263100267E0,1.081093475E1
2.574839208E0,1.012852824E1,-5.348784372E-1,-3.998196255E0,1.090223613E1
2.584829208E0,1.040505009E1,-8.131699419E-1,-3.920358705E0,1.114879030E1
2.594819208E0,1.070611503E1,-1.022014212E0,-3.843447646E0,1.142092387E1
2.604809208E0,1.109368252E1,-1.074418129E0,-3.776493519E0,1.176801043E1
2.614798208E0,1.153816564E1,-1.133641506E0,-3.877167662E0,1.222484513E1
2.624788208E0,1.182370857E1,-1.173167953E0,-4.023501250E0,1.254451950E1
2.634778208E0,1.180136752E1,-1.157986096E0,-4.179206171E0,1.257294601E1
2.644768208E0,1.151231276E1,-9.023130834E-1,-4.343198935E0,1.233737780E1
2.654758208E0,1.120850897E1,-3.868918410E-1,-4.559677477E0,1.210665178E1
2.664747208E0,1.089438135E1,1.680393299E-1,-4.627285323E0,1.183754838E1
2.674737208E0,1.057090753E1,6.496298251E-1,-4.558770281E0,1.153032920E1
2.684727208E0,1.012493104E1,1.118148724E0,-4.450200058E0,1.111614887E1
2.694717208E0,9.729818301E0,1.577574982E0,-4.311117017E0,1.075843097E1
2.704707208E0,9.437236494E0,1.754708487E0,-4.192576414E0,1.047464231E1
2.714696208E0,9.218883920E0,1.792566577E0,-4.061629774E0,1.023220172E1
2.724686208E0,9.033879186E0,1.767664455E0,-3.876190592E0,9.988016033E0
2.734676208E0,8.920209314E0,1.716868815E0,-3.685823961E0,9.803217380E0
2.744666208E0,8.735518575E0,1.225791067E0,-3.596625564E0,9.526151582E0
2.754656208E0,8.363214660E0,4.819851822E-1,-3.455475532E0,9.061786817E0
2.764645208E0,7.560715887E0,1.725549884E-2,-3.394123037E0,8.287628953E0
2.774635208E0,5.865106378E0,-9.165547811E-1,-3.674457267E0,6.981488502E0
2.784625208E0,3.278879972E0,-3.293506197E0,-4.029082417E0,6.150751341E0
2.794615208E0,8.223453927E-1,-7.629118370E0,-3.495880669E0,8.432133817E0
2.804605208E0,-1.134206640E0,-1.263326376E1,-1.607988397E0,1.278559363E1
2.814594208E0,-3.522234070E0,-1.560550989E1,1.611642323E0,1.607903800E1
2.824584208E0,-8.253667075E0,-1.493904191E1,5.227540601E0,1.785007491E1
2.834574208E0,-1.584819390E1,-1.359783799E1,8.664622255E0,2.260845255E1
2.844564208E0,-2.503802067E1,-1.520949201E1,1.059310590E1,3.115196653E1
2.854554208E0,-3.181093476E1,-1.676209617E1,1.144587318E1,3.773475124E1
2.864543208E0,-3.159794642E1,-1.191965904E1,1.377774980E1,3.647375603E1
2.874533208E0,-2.636615723E1,-2.052782291E0,1.736225906E1,3.163599535E1
2.884523208E0,-2.325536834E1,2.965125396E0,1.935097779E1,3.039842869E1
2.894513208E0,-2.203937435E1,1.210860128E0,1.732337274E1,2.805885684E1
2.904503208E0,-1.869660069E1,-2.531639725E0,1.092372150E1,2.180137079E1
2.914492208E0,-1.387766702E1,-5.115779260E0,3.851750985E0,1.528387468E1
2.924482208E0,-1.043333658E1,-6.053022441E0,-1.454021269E0,1.214939384E1
2.934472208E0,-8.807001956E0,-3.872879899E0,-4.152918551E0,1.047898920E1
2.944462208E0,-8.619123901E0,9.155921102E-2,-4.539787588E0,9.742040405E0
2.954452208E0,-8.321905836E0,3.480935479E0,-3.968283069E0,9.854861697E0
2.964441208E0,-7.550941681E0,5.878387159E0,-3.341062186E0,1.013582026E1
2.974431208E0,-6.103015550E0,7.250662599E0,-2.786821279E0,9.878526194E0
2.984421208E0,-4.065856141E0,7.505046301E0,-2.769617017E0,8.973721890E0
2.994411208E0,-1.869652467E0,7.244213705E0,-3.086850685E0,8.093384935E0
3.004401208E0,1.578052408E-1,6.794417810E0,-3.447865089E0,7.620812919E0
3.014390208E0,1.896183624E0,6.217779436E0,-3.689399242E0,7.474487288E0
3.024380208E0,3.276563305E0,5.627251001E0,-3.727241544E0,7.502942786E0
3.034370208E0,4.309768649E0,5.161843625E0,-3.559180579E0,7.608317936E0
3.044360208E0,5.042394365E0,4.804635175E0,-3.203006501E0,7.666127493E0
3.054350208E0,5.553827514E0,4.476003529E0,-2.727328199E0,7.636617494E0
3.064339208E0,5.923821779E0,4.192343695E0,-2.324770205E0,7.620496482E0
3.074329208E0,6.113790799E0,3.887511971E0,-2.155973369E0,7.559061345E0
3.084319208E0,6.278800979E0,3.682531102E0,-2.130058801E0,7.584294795E0
3.094309208E0,6.445898615E0,3.625032799E0,-2.203392241E0,7.716567184E0
3.104299208E0,6.210619521E0,3.544116105E0,-2.383194707E0,7.537384879E0
3.114288208E0,5.913371635E0,3.585433701E0,-2.537975475E0,7.366452228E0
3.124278208E0,5.818490621E0,3.558616908E0,-2.818815781E0,7.379993890E0
3.134268208E0,5.645553371E0,3.208583868E0,-3.163571709E0,7.223258908E0
3.144258208E0,5.386180825E0,2.749461957E0,-3.280566016E0,6.879869062E0
3.154248208E0,5.220322214E0,2.500782214E0,-3.165025912E0,6.597201279E0
3.164237208E0,5.072809827E0,2.448440278E0,-2.928078607E0,6.348378034E0
3.174227208E0,4.944821293E0,2.677946124E0,-2.657448125E0,6.219701246E0
3.184217208E0,4.696241537E0,3.175528096E0,-2.458253075E0,6.179131933E0
3.194207208E0,4.319238215E0,3.785300887E0,-2.379858578E0,6.216755457E0
3.204196208E0,3.946099902E0,4.626519923E0,-2.557037106E0,6.596577127E0
3.214186208E0,4.081043115E0,5.288259258E0,-2.836300418E0,7.257079230E0
3.224176208E0,4.307812171E0,5.528834760E0,-2.898375921E0,7.584579256E0
3.234166208E0,4.512134936E0,5.221608601E0,-2.937508997E0,7.500234474E0
3.244156208E0,4.558306890E0,4.213286083E0,-3.195303087E0,6.981396933E0
3.254145208E0,4.610639470E0,2.790885971E0,-3.419898441E0,6.383004478E0
3.264135208E0,4.499455833E0,4.190567896E-1,-3.503618875E0,5.718046573E0
3.274125208E0,4.147078060E0,-2.263809181E0,-3.278256366E0,5.750656766E0
3.284115208E0,3.556059043E0,-3.863230239E0,-2.224167106E0,5.702369956E0
3.294105208E0,2.200510148E0,-4.690522960E0,-1.021605346E0,5.280807518E0
3.304094208E0,7.876141012E-2,-4.815244070E0,4.026030171E-1,4.832687452E0
3.314084208E0,-2.694585838E0,-4.598080235E0,2.539023881E0,5.903369966E0
3.324074208E0,-5.513363612E0,-4.738261383E0,4.670379010E0,8.640644615E0
3.334064208E0,-7.818108566E0,-5.517099398E0,5.740608632E0,1.115866456E1
3.344054208E0,-1.010878103E1,-6.623247004E0,5.020026426E0,1.308646324E1
3.354043208E0,-1.167837368E1,-6.987761258E0,3.460782173E0,1.404244396E1
3.364033208E0,-1.337124435E1,-7.447222601E0,2.067144369E0,1.544423471E1
3.374023208E0,-1.564709529E1,-7.809912524E0,1.985506713E0,1.760024323E1
3.384013208E0,-1.768518909E1,-7.782232974E0,2.942337043E0,1.954447263E1
3.394003208E0,-1.929815989E1,-7.853547955E0,4.014912567E0,2.121831081E1
3.403992208E0,-2.044633787E1,-8.738901190E0,4.876967863E0,2.276413719E1
3.413981708E0,-2.098322220E1,-1.003923892E1,5.754133826E0,2.396230348E1
3.423971708E0,-2.106079136E1,-1.110046529E1,6.633581373E0,2.471399733E1
3.433961708E0,-2.006149051E1,-1.104643819E1,7.205634946E0,2.400850627E1
3.443951708E0,-1.857979086E1,-1.030339390E1,6.778523909E0,2.230060404E1
3.453940708E0,-1.694052746E1,-9.928158195E0,5.816486195E0,2.047880142E1
3.463930708E0,-1.481672752E1,-1.002581722E1,4.703076932E0,1.849787442E1
3.473920708E0,-1.211608806E1,-1.032105834E1,3.844421208E0,1.637386361E1
3.483910708E0,-9.180894560E0,-1.037492523E1,2.908564402E0,1.415583432E1
3.493900708E0,-6.684353916E0,-9.862035542E0,2.289688081E0,1.213190026E1
3.503889708E0,-4.608106456E0,-8.384938236E0,2.226896294E0,9.823487234E0
3.513879708E0,-2.893184178E0,-6.223641855E0,1.860063911E0,7.110841749E0
3.523869708E0,-1.497967188E0,-3.942965210E0,1.190935156E0,4.382830922E0
3.533859708E0,4.686250985E-2,-1.349697002E0,9.046259496E-1,1.625492602E0
3.543849708E0,1.918487243E0,1.543878940E0,9.672332570E-1,2.645693795E0
3.553838708E0,3.775110945E0,4.183903239E0,9.072607049E-1,5.707856949E0
3.563828708E0,5.504959994E0,5.850112363E0,2.204637113E-1,8.035981797E0
3.573818708E0,7.120681919E0,6.707252782E0,-1.116639265E0,9.845721615E0
3.583808708E0,8.715067939E0,7.162183117E0,-2.768406935E0,1.161522075E1
3.593798708E0,1.001586292E1,7.155761120E0,-4.364272008E0,1.306021812E1
3.603787708E0,1.098614638E1,6.678036000E0,-5.865615086E0,1.413141951E1
3.613777708E0,1.139872591E1,6.150044705E0,-7.185519939E0,1.481167442E1
3.623767708E0,1.122413273E1,5.894138973E0,-7.861683186E0,1.491737552E1
3.633757708E0,1.076033393E1,5.820206194E0,-7.849456658E0,1.453525219E1
3.643747708E0,1.015205978E1,5.741962847E0,-7.504141152E0,1.386890729E1
3.653736708E0,9.377562150E0,5.289017642E0,-6.979844128E0,1.283084578E1
3.663726708E0,8.960020081E0,4.848768204E0,-6.205745866E0,1.192911542E1
3.673716708E0,8.780009454E0,4.710064063E0,-5.172626476E0,1.122627873E1
3.683706708E0,8.630896100E0,4.491541919E0,-3.974559178E0,1.051015875E1
3.693696708E0,8.670516833E0,4.373550370E0,-2.836825206E0,1.011698484E1
3.703685708E0,8.799606398E0,4.270919164E0,-2.073171532E0,9.998593074E0
3.713675708E0,8.863737490E0,4.088488959E0,-1.786082015E0,9.923289435E0
3.723665708E0,8.876327130E0,3.994530928E0,-1.831892026E0,9.904609484E0
3.733655708E0,8.931078703E0,3.928612927E0,-2.083277568E0,9.976883870E0
3.743645708E0,8.991444772E0,3.800579077E0,-2.234761968E0,1.001422196E1
3.753634708E0,9.080493774E0,3.663415969E0,-2.341789696E0,1.006776851E1
3.763624708E0,9.168498462E0,3.579606073E0,-2.428002213E0,1.013756077E1
3.773614708E0,9.181433673E0,3.532485994E0,-2.440134016E0,1.013565171E1
3.783604708E0,9.153146013E0,3.534358564E0,-2.417588030E0,1.010527111E1
3.793594708E0,9.124603999E0,3.640618260E0,-2.417540959E0,1.011716382E1
3.803583708E0,9.049378400E0,3.731272907E0,-2.491088992E0,1.010045401E1
3.813573708E0,8.845341564E0,3.775569366E0,-2.693588303E0,9.987512672E0
3.823563708E0,8.706282497E0,4.011896866E0,-2.732089879E0,9.967897797E0
3.833553708E0,8.602679191E0,4.275772645E0,-2.705820386E0,9.980470176E0
3.843542708E0,8.441084955E0,4.353429809E0,-2.687455451E0,9.870495586E0
3.853532708E0,8.306375046E0,4.390860175E0,-2.664488465E0,9.766013427E0
3.863522708E0,8.145675434E0,4.430782917E0,-2.683347782E0,9.653197442E0
3.873512708E0,7.996364443E0,4.438872832E0,-2.723476638E0,9.542681035E0
3.883502708E0,7.821767169E0,4.215066560E0,-2.754605168E0,9.302401699E0
3.893491708E0,7.707981521E0,3.988951807E0,-2.726709856E0,9.097233771E0
3.903481708E0,7.473441516E0,3.757334824E0,-2.614450624E0,8.763860173E0
3.913471708E0,7.139890022E0,3.380169534E0,-2.443894360E0,8.268989978E0
3.923461708E0,6.652111784E0,2.898248452E0,-2.181908401E0,7.577015214E0
3.933451708E0,5.899012628E0,2.054724444E0,-1.706217527E0,6.475447535E0
3.943440708E0,3.987974153E0,3.136545879E-1,-5.559652510E-1,4.038739210E0
3.953430708E0,1.605498068E0,-2.567554493E0,1.278494872E0,3.287021335E0
3.963420708E0,3.368961006E-1,-5.358604771E0,3.044976435E0,6.172521816E0
3.973410708E0,-8.849392515E-1,-9.165807574E0,3.399798052E0,9.815995760E0
3.983400708E0,-1.819318466E0,-1.342925575E1,4.338885444E-1,1.355887491E1
3.993389708E0,-4.641691108E0,-1.352575820E1,-3.471180569E0,1.471531602E1
4.003379708E0,-1.069175544E1,-1.255031165E1,-5.208515516E0,1.729024554E1
4.013369708E0,-1.811923492E1,-1.492019400E1,-2.236402989E0,2.357796347E1
4.023359708E0,-2.469587669E1,-1.783961522E1,5.467994481E0,3.095217537E1
4.033349708E0,-2.431607898E1,-1.545733209E1,1.375825519E1,3.192945973E1
4.043338708E0,-1.924214708E1,-8.768406824E0,2.015219018E1,2.921054521E1
4.053328708E0,-1.688582793E1,-3.802779384E0,2.188701930E1,2.790401279E1
4.063318708E0,-1.683203120E1,-2.652504011E0,1.781330977E1,2.465090377E1
4.073308708E0,-1.568685753E1,-3.272460898E0,1.049455576E1,1.915521339E1
4.083298708E0,-1.324319969E1,-4.193666335E0,3.570882905E0,1.434295576E1
4.093287708E0,-1.125703619E1,-4.122899823E0,-8.505295569E-1,1.201842615E1
4.103277708E0,-1.045724935E1,-2.506690241E0,-2.861359538E0,1.112766545E1
4.113267708E0,-1.036589011E1,-4.358865380E-2,-3.300415851E0,1.087870960E1
4.123257708E0,-9.942126024E0,2.469506042E0,-3.924117880E0,1.097009713E1
4.133247708E0,-8.731620821E0,4.951625698E0,-5.383757154E0,1.139055048E1
4.143236708E0,-6.857975875E0,6.728509750E0,-6.070598001E0,1.136471894E1
4.153226708E0,-4.955425218E0,7.515794653E0,-5.298473175E0,1.044591912E1
4.163216708E0,-3.044987252E0,7.639666747E0,-3.964184463E0,9.129688594E0
4.173206708E0,-1.234650695E0,7.288905144E0,-2.925221950E0,7.950435459E0
4.183196708E0,3.128049874E-1,6.688182088E0,-2.486184640E0,7.142180386E0
4.193185708E0,1.714225289E0,5.957146815E0,-2.359243635E0,6.632661385E0
4.203175708E0,2.816965138E0,5.244997464E0,-2.331398901E0,6.393802610E0
4.213165708E0,3.569664930E0,4.755596039E0,-2.309735260E0,6.379112663E0
4.223155708E0,4.146992691E0,4.411395012E0,-2.324148354E0,6.485338842E0
4.233145708E0,4.554028482E0,4.064484969E0,-2.355326000E0,6.542688595E0
4.243134708E0,4.905882930E0,3.755947865E0,-2.397333859E0,6.627370618E0
4.253124708E0,5.204830016E0,3.605182379E0,-2.444560358E0,6.787007502E0
4.263114708E0,5.359080150E0,3.639046821E0,-2.458131746E0,6.928550606E0
4.273104708E0,5.479693590E0,3.696139912E0,-2.407202497E0,7.034423641E0
4.283094708E0,5.493833912E0,3.680068547E0,-2.238447468E0,6.981100388E0
4.293083708E0,5.524695516E0,3.636940069E0,-2.035551716E0,6.920481515E0
4.303073708E0,5.488913480E0,3.572201452E0,-1.959619482E0,6.835854220E0
4.313063708E0,5.436866244E0,3.448900923E0,-1.910173087E0,6.715891106E0
4.323053708E0,5.465203605E0,3.306655415E0,-1.940768643E0,6.676002053E0
4.333043708E0,5.606036718E0,3.184938020E0,-1.998931189E0,6.750348419E0
4.343032708E0,5.809036843E0,3.125650469E0,-1.966822374E0,6.883530355E0
4.353022708E0,5.930002871E0,3.023465990E0,-1.873491164E0,6.914929485E0
4.363012708E0,5.921895706E0,2.737032238E0,-1.656765578E0,6.730903833E0
4.373002708E0,5.848734174E0,2.399374245E0,-1.404559380E0,6.475915013E0
4.382991708E0,5.499484076E0,1.857202283E0,-1.221066736E0,5.931654862E0
4.392981708E0,4.848703592E0,8.815923053E-1,-1.157077146E0,5.062208909E0
4.402971708E0,3.979265894E0,-4.232331634E-1,-1.258281924E0,4.194872676E0
4.412965375E0,2.809438602E0,-1.797808898E0,-1.087948147E0,3.508374732E0
4.422955375E0,1.946971954E0,-2.854548993E0,-4.410054830E-1,3.483336846E0
4.432944375E0,1.372628027E0,-3.869099381E0,6.798469931E-1,4.161277407E0
4.442934375E0,4.092513013E-1,-4.801721799E0,2.055555626E0,5.239210608E0
4.452924375E0,-6.534713727E-1,-5.536111035E0,3.280857207E0,6.468351741E0
4.462914375E0,-2.269737089E0,-6.093255962E0,4.488975576E0,7.901289540E0
4.472904375E0,-4.562111673E0,-6.456883194E0,5.504306860E0,9.633358579E0
4.482893375E0,-6.842695346E0,-7.190205313E0,5.809648461E0,1.150102375E1
4.492883375E0,-8.516676589E0,-8.313267159E0,5.348128315E0,1.304786065E1
4.502873375E0,-1.020690783E1,-9.172007961E0,4.437918566E0,1.442226815E1
4.512863375E0,-1.132836052E1,-9.879839144E0,3.221161813E0,1.537266591E1
4.522853375E0,-1.259038730E1,-1.013309609E1,2.406364299E0,1.633976982E1
4.532842375E0,-1.437943414E1,-1.000968241E1,2.779659902E0,1.773945821E1
4.542832375E0,-1.609248122E1,-9.791880648E0,4.184499655E0,1.929660373E1
4.552822375E0,-1.750226011E1,-9.361444300E0,5.638398718E0,2.063388690E1
4.562812375E0,-1.827453580E1,-8.950876790E0,6.331244656E0,2.131106550E1
4.572802375E0,-1.794709289E1,-9.013506317E0,6.112610831E0,2.099298575E1
4.582791375E0,-1.677384439E1,-9.154489703E0,5.519676266E0,1.989053452E1
4.592781375E0,-1.525143292E1,-8.841321604E0,5.071495957E0,1.834380672E1
4.602771375E0,-1.372281170E1,-8.139440548E0,4.820286709E0,1.666736984E1
4.612761375E0,-1.237137749E1,-7.284975230E0,4.703811050E0,1.510786827E1
4.622751375E0,-1.101141571E1,-6.314827428E0,4.543867190E0,1.348239780E1
4.632740375E0,-9.520078091E0,-5.152896216E0,4.169761748E0,1.160048013E1
4.642730375E0,-7.755308300E0,-3.679318057E0,3.495849094E0,9.268395173E0
4.652720375E0,-5.629738991E0,-1.664887653E0,2.927104169E0,6.560011496E0
4.662710375E0,-3.330441304E0,6.625000584E-1,2.349014516E0,4.128996827E0
4.672700375E0,-1.261728566E0,2.754999855E0,1.600499576E0,3.426891020E0
4.682689375E0,1.093078494E0,4.287823172E0,1.470539653E-1,4.427400255E0
4.692679375E0,3.669889129E0,5.418353375E0,-2.248338618E0,6.919657944E0
4.702669375E0,6.049350389E0,6.456403722E0,-4.421767680E0,9.890996844E0
4.712659375E0,8.191269098E0,6.976648625E0,-6.621349583E0,1.263379538E1
4.722649375E0,1.007751479E1,6.940725086E0,-8.671881573E0,1.499771646E1
4.732638375E0,1.156119899E1,6.625708097E0,-1.003500671E1,1.668120767E1
4.742628375E0,1.249998817E1,5.937320076E0,-1.057523447E1,1.741657423E1
4.752618375E0,1.288268142E1,4.973020660E0,-1.042267827E1,1.730105885E1
4.762608375E0,1.280728859E1,3.979520248E0,-9.664651083E0,1.653084096E1
4.772598375E0,1.248647993E1,3.336003175E0,-8.524810066E0,1.548268339E1
4.782587375E0,1.187083478E1,2.956507185E0,-7.345734817E0,1.426945946E1
4.792577375E0,1.124117971E1,2.766766791E0,-6.260675780E0,1.316112385E1
4.802567375E0,1.062958317E1,2.686116146E0,-5.146321607E0,1.211147738E1
4.812557375E0,9.906046364E0,2.723472545E0,-3.963976887E0,1.101181956E1
4.822546375E0,9.134657117E0,2.896229701E0,-2.857351856E0,9.999728334E0
4.832536375E0,8.434216815E0,3.155962435E0,-1.948659461E0,9.213760680E0
4.842526375E0,7.832268768E0,3.420429953E0,-1.141928180E0,8.622515589E0
4.852516375E0,7.357697636E0,3.711313144E0,-4.275805682E-1,8.251811007E0
4.862506375E0,6.978725556E0,4.043893415E0,1.353384840E-1,8.066845780E0
4.872495375E0,6.703146282E0,4.445691563E0,5.374012184E-1,8.061336342E0
4.882485375E0,6.573451531E0,4.849227211E0,6.922006980E-1,8.197829675E0
4.892475375E0,6.653973538E0,4.967361140E0,4.465091747E-1,8.315612483E0
4.902465375E0,6.881098105E0,4.777355282E0,-7.913972497E-2,8.377284627E0
4.912455375E0,7.174570443E0,4.495095272E0,-8.072025660E-1,8.504817372E0
4.922444375E0,7.368169999E0,4.220297771E0,-1.516911289E0,8.625651412E0
4.932434375E0,7.514620532E0,4.022027167E0,-2.054504589E0,8.767394902E0
4.942424375E0,7.650273596E0,3.934882896E0,-2.418293788E0,8.936337860E0
4.952414375E0,7.729044362E0,3.951181425E0,-2.650026254E0,9.075935244E0
4.962404375E0,7.805163415E0,4.123686566E0,-2.830323979E0,9.270172634E0
4.972393375E0,7.837193293E0,4.290273155E0,-3.020404973E0,9.431377877E0
4.982383375E0,7.662215365E0,4.427658750E0,-3.148463089E0,9.392897642E0
4.992373375E0,7.236429892E0,4.553760095E0,-3.136186860E0,9.107047633E0
5.002363375E0,7.161063960E0,4.894887825E0,-3.078460223E0,9.204220836E0
5.012353375E0,7.243457660E0,5.156542540E0,-3.020497944E0,9.390474837E0
5.022342375E0,7.264447410E0,5.172740496E0,-3.054431675E0,9.426504828E0
5.032332375E0,7.232171949E0,5.215750276E0,-3.034020215E0,9.418791892E0
5.042322375E0,7.280697407E0,5.071294813E0,-3.030006686E0,9.375901361E0
5.052312375E0,7.179975609E0,4.606825038E0,-3.093297825E0,9.074325216E0
5.062301375E0,6.882397356E0,4.163759581E0,-3.169822091E0,8.645927325E0
5.072291375E0,6.303939913E0,3.536068290E0,-3.454282115E0,8.010961385E0
5.082281375E0,4.359733692E0,1.889014937E0,-3.434454499E0,5.862689912E0
5.092271375E0,1.583095631E0,-9.431260639E-1,-2.997875651E0,3.518939751E0
5.102261375E0,-1.131618662E0,-5.444099250E0,-2.984985757E0,6.311015561E0
5.112250375E0,-3.298408502E0,-1.100322960E1,-2.283712811E0,1.171178486E1
5.122240375E0,-5.544224632E0,-1.495819622E1,1.314337134E-2,1.595262467E1
5.132230375E0,-1.133706820E1,-1.628363956E1,3.025953396E0,2.007093487E1
5.142220375E0,-2.035805661E1,-1.879855742E1,6.307939993E0,2.841876734E1
5.152210375E0,-2.908185678E1,-2.291329453E1,9.257994191E0,3.816390856E1
5.162199375E0,-3.407621159E1,-2.258608200E1,1.262153074E1,4.278577257E1
5.172189375E0,-3.137391620E1,-1.165467258E1,1.573609576E1,3.698349254E1
5.182179375E0,-2.701221609E1,-6.169689596E-1,1.727132667E1,3.206772823E1
5.192169375E0,-2.553711327E1,2.085280824E0,1.628207134E1,3.035783914E1
5.202159375E0,-2.304122459E1,-6.412729114E-1,1.279029307E1,2.636097226E1
5.212148375E0,-1.726616358E1,-4.458983161E0,7.430449862E0,1.931876085E1
5.222138375E0,-1.130916060E1,-8.005864415E0,2.092654163E0,1.401321448E1
5.232128375E0,-6.426837276E0,-9.248403588E0,-1.786553593E0,1.140302504E1
5.242118375E0,-2.756004406E0,-6.810955490E0,-4.068006163E0,8.398413488E0
5.252108375E0,-1.079467345E0,-3.086684917E0,-5.387789394E0,6.302471585E0
5.262097375E0,-6.499852628E-1,4.047647327E-1,-5.931075250E0,5.980298400E0
5.272087375E0,-4.169824898E-1,3.269854794E0,-6.385913783E0,7.186495642E0
5.282077375E0,-5.148473382E-2,5.273031939E0,-6.774243162E0,8.584747342E0
5.292067375E0,7.217253363E-1,6.541697642E0,-6.883824077E0,9.523745556E0
5.302057375E0,1.699875053E0,7.096881412E0,-6.649331433E0,9.872634374E0
5.312046375E0,2.696159323E0,7.075167192E0,-6.299918198E0,9.849681985E0
5.322036375E0,3.566891010E0,6.663413867E0,-6.053278549E0,9.683283381E0
5.332026375E0,4.305476208E0,6.078775917E0,-5.898999764E0,9.501938762E0
5.342016375E0,4.654912248E0,5.405546218E0,-5.846124562E0,9.223085728E0
5.352005375E0,4.887882861E0,4.475431378E0,-5.558992360E0,8.650045141E0
5.361995375E0,5.241983224E0,3.788834360E0,-5.059189323E0,8.211519380E0
5.371985375E0,5.385490268E0,3.571202747E0,-4.487860512E0,7.867520986E0
5.381975375E0,5.257360232E0,3.386921314E0,-3.943390595E0,7.393334970E0
5.391965375E0,5.022650657E0,3.102132676E0,-3.343927322E0,6.784695770E0
5.401954375E0,4.965957808E0,2.971897057E0,-2.728587397E0,6.398288697E0
5.411945000E0,4.961837275E0,2.866400422E0,-2.198437310E0,6.137524512E0
5.421935000E0,4.963569805E0,2.486498635E0,-1.635248994E0,5.787377640E0
5.431925000E0,5.055503238E0,1.867367960E0,-1.030306295E0,5.486957914E0
5.441915000E0,5.280923342E0,1.146744824E0,-3.776400840E-1,5.417175192E0
5.451904000E0,5.662229630E0,5.243186581E-1,3.027007064E-1,5.694504557E0
5.461894000E0,6.012032874E0,-9.131070435E-2,9.646394321E-1,6.089614615E0
5.471884000E0,6.347022783E0,-6.279096848E-1,1.582436650E0,6.571382999E0
5.481874000E0,6.672750701E0,-8.508260107E-1,2.025504446E0,7.025110325E0
5.491864000E0,6.851890093E0,-9.420875984E-1,2.136383150E0,7.238788563E0
5.501853000E0,6.909805595E0,-9.539972073E-1,2.114882938E0,7.288913079E0
5.511843000E0,6.938208445E0,-7.150250119E-1,1.854776858E0,7.217353697E0
5.521833000E0,6.955649520E0,-3.190726179E-1,1.353614928E0,7.093316640E0
5.531823000E0,6.914466410E0,2.027013320E-1,8.923356870E-1,6.974754228E0
5.541813000E0,6.812849988E0,9.557104415E-1,5.496660456E-1,6.901481013E0
5.551802000E0,6.315986347E0,1.856006235E0,2.713476437E-1,6.588632045E0
5.561792000E0,5.548092565E0,2.751249450E0,-1.725144964E-1,6.195197002E0
5.571782000E0,4.839063288E0,3.051819139E0,-9.088710281E-1,5.792769641E0
5.581772000E0,3.849932501E0,2.405909970E0,-1.758194889E0,4.868432223E0
5.591761000E0,2.875064827E0,1.105777477E0,-2.417359403E0,3.915656787E0
5.601751000E0,2.209690277E0,1.832511538E-1,-2.810390821E0,3.579749806E0
5.611741000E0,1.753218032E0,-2.041245443E-1,-2.745270672E0,3.263732734E0
5.621731000E0,9.635199827E-1,-5.129978639E-1,-2.052003442E0,2.324275305E0
5.631721000E0,-2.110932559E-1,-7.296073830E-1,-8.899377438E-1,1.169989950E0
5.641710000E0,-2.065819536E0,-1.051256869E0,2.851394713E-1,2.335392018E0
5.651700000E0,-4.610219640E0,-1.864199354E0,1.140092739E0,5.101879635E0
5.661690000E0,-7.466031924E0,-3.948652797E0,1.177245655E0,8.527566999E0
5.671680000E0,-1.028678664E1,-7.471086257E0,6.483752319E-1,1.273010211E1
5.681670000E0,-1.263530911E1,-1.166551098E1,-9.141595423E-2,1.719719569E1
5.691659000E0,-1.441403445E1,-1.513164218E1,-4.795491591E-1,2.090361097E1
5.701649000E0,-1.675391591E1,-1.682835214E1,-2.174813390E-1,2.374730368E1
5.711639000E0,-1.928687243E1,-1.687428435E1,9.293202031E-1,2.564348956E1
5.721629000E0,-2.124159194E1,-1.543652536E1,2.710496404E0,2.639769563E1
5.731619000E0,-2.209791200E1,-1.352021036E1,4.571067853E0,2.630605376E1
5.741608000E0,-2.197895858E1,-1.226388696E1,6.188664980E0,2.591866351E1
5.751598000E0,-2.117130607E1,-1.229091045E1,7.108959421E0,2.549172385E1
5.761588000E0,-1.978107676E1,-1.353050614E1,6.796182500E0,2.491091509E1
5.771578000E0,-1.765106473E1,-1.491330949E1,5.787443660E0,2.382144811E1
5.781568000E0,-1.483872241E1,-1.495745947E1,4.877732679E0,2.162650117E1
5.791557000E0,-1.190506555E1,-1.369761956E1,4.154707507E0,1.861765189E1
5.801547000E0,-9.145276245E0,-1.141348429E1,3.507818930E0,1.504022921E1
5.811537000E0,-6.687835933E0,-8.467347724E0,2.734773459E0,1.113113259E1
5.821527000E0,-4.396754753E0,-5.210462054E0,1.935815467E0,7.087153780E0
5.831517000E0,-2.186050569E0,-1.859849610E0,1.272809039E0,3.139729369E0
5.841506000E0,-2.726264298E-2,1.239455937E0,7.240273851E-1,1.435691445E0
5.851496000E0,1.953461194E0,3.717855594E0,1.928391257E-1,4.204241641E0
5.861486000E0,3.568036480E0,5.455906532E0,-3.505630901E-1,6.528452718E0
5.871476000E0,4.877888215E0,6.614278545E0,-1.067177960E0,8.287420763E0
5.881465000E0,5.864677193E0,7.162950271E0,-2.168542251E0,9.508147593E0
5.891455000E0,6.942630109E0,7.359918993E0,-3.108388904E0,1.058445095E1
5.901445000E0,8.017981015E0,7.635039260E0,-3.830582018E0,1.171559656E1
5.911435000E0,8.444804369E0,7.692738415E0,-4.431920493E0,1.225295329E1
5.921425000E0,8.520642756E0,7.590534933E0,-4.834720269E0,1.239322773E1
5.931414000E0,8.318774067E0,7.402335865E0,-5.173120565E0,1.227834495E1
5.941404000E0,7.963821180E0,7.227424595E0,-5.357321307E0,1.201494926E1
5.951394000E0,7.868123310E0,7.087984874E0,-5.493553246E0,1.193004699E1
5.961384000E0,7.906726627E0,6.861550278E0,-5.720870771E0,1.193002768E1
5.971374000E0,7.960547909E0,6.591156900E0,-6.190630229E0,1.204730571E1
5.981363000E0,7.930950472E0,6.393796415E0,-6.465704888E0,1.206590020E1
5.991353000E0,7.883982713E0,6.225777842E0,-6.334993891E0,1.187643216E1
6.001343000E0,7.798311648E0,6.037626137E0,-6.117861046E0,1.160580965E1
6.011333000E0,7.765060871E0,5.824797428E0,-5.802065792E0,1.130877548E1
6.021323000E0,7.756133927E0,5.474312398E0,-5.485163076E0,1.096415631E1
6.031312000E0,7.772906665E0,4.992087845E0,-5.239824432E0,1.062048865E1
6.041302000E0,7.907541729E0,4.532068679E0,-5.079372157E0,1.043402531E1
6.051292000E0,8.095613912E0,4.158101816E0,-4.982117173E0,1.037546466E1
6.061282000E0,8.237419417E0,3.837021264E0,-4.865484517E0,1.030780046E1
6.071271000E0,8.333997878E0,3.667656662E0,-4.724399389E0,1.025802981E1
6.081261000E0,8.371746917E0,3.569455307E0,-4.513727425E0,1.015878403E1
6.091251000E0,8.317323373E0,3.518711708E0,-4.206578157E0,9.962655267E0
6.101241000E0,8.262156647E0,3.589359814E0,-3.882571658E0,9.809235394E0
6.111231000E0,8.114839557E0,3.616457857E0,-3.662456149E0,9.609525145E0
6.121220000E0,7.913241595E0,3.646552307E0,-3.408527361E0,9.356003155E0
6.131210000E0,7.743445469E0,3.738573156E0,-3.159103852E0,9.160666685E0
6.141200000E0,7.531307316E0,3.855639676E0,-2.937292357E0,8.956239925E0
6.151190000E0,7.360477987E0,3.919699139E0,-2.716658200E0,8.770456619E0
6.161180000E0,7.312298684E0,3.834077775E0,-2.528812011E0,8.635088571E0
6.171169000E0,7.282776677E0,3.556010804E0,-2.366018219E0,8.442872211E0
6.181159000E0,7.282833395E0,3.128997416E0,-2.243483090E0,8.237930776E0
6.191149000E0,7.300984322E0,2.479819361E0,-2.093193276E0,7.989701760E0
6.201139000E0,7.463190762E0,2.026682660E0,-1.892620915E0,7.961700376E0
6.211128000E0,7.402614192E0,1.664474547E0,-1.768072883E0,7.790715893E0
6.221118000E0,6.877386877E0,1.152866859E0,-1.718303137E0,7.181929958E0
6.231108000E0,6.314109975E0,4.623258930E-1,-1.679359512E0,6.549960181E0
6.241098000E0,5.899520166E0,-6.668480480E-1,-1.759096237E0,6.192208336E0
6.251088000E0,5.734386610E0,-2.468974822E0,-1.776626190E0,6.491180716E0
6.261077000E0,5.242501287E0,-5.457061942E0,-1.800613807E0,7.778531666E0
6.271067000E0,3.987637353E0,-1.000271019E1,-1.775444175E0,1.091364581E1
6.281057000E0,2.713508012E0,-1.554182085E1,-1.077964026E0,1.581370695E1
6.291047000E0,1.302490091E0,-2.058690026E1,-2.024724135E-1,2.062905567E1
6.301037000E0,-9.981933868E-1,-2.414077244E1,1.072133768E-1,2.416163858E1
6.311026000E0,-5.290789933E0,-2.637170507E1,1.000443103E0,2.691579783E1
6.321016000E0,-9.748638149E0,-2.656585368E1,3.503569758E0,2.851412858E1
6.331006000E0,-1.175456641E1,-2.299510175E1,7.537477883E0,2.690275281E1
6.340996000E0,-1.273129233E1,-1.690552603E1,1.187649723E1,2.426795832E1
6.350986000E0,-1.580186290E1,-1.214362260E1,1.541600163E1,2.519562556E1
6.360975000E0,-1.860423924E1,-9.330949901E0,1.593986538E1,2.621571384E1
6.370965000E0,-1.918474613E1,-8.267030302E0,1.251920446E1,2.435423484E1
6.380955000E0,-1.778489581E1,-8.661878741E0,6.952598442E0,2.096829243E1
6.390945000E0,-1.567909827E1,-7.843767318E0,2.138092583E0,1.766154716E1
6.400935000E0,-1.414207812E1,-4.789642621E0,-1.098443022E0,1.497149381E1
6.410923708E0,-1.368215835E1,-4.315771401E-1,-2.552152050E0,1.392484097E1
6.420913708E0,-1.329261685E1,4.200036292E0,-2.641033236E0,1.418834113E1
6.430903708E0,-1.245667200E1,7.878619646E0,-2.119563926E0,1.489073121E1
6.440893708E0,-1.105207023E1,1.011103571E1,-1.709506732E0,1.507659487E1
6.450883708E0,-8.749457753E0,1.083204301E1,-1.876553936E0,1.405018226E1
6.460872708E0,-6.249527478E0,1.021217851E1,-2.372520615E0,1.220549211E1
6.470862708E0,-3.865727000E0,8.991596800E0,-2.754515120E0,1.016759617E1
6.480852708E0,-1.651028582E0,7.885262668E0,-2.884603974E0,8.557114164E0
6.490842708E0,3.431543756E-1,6.736052073E0,-2.999090703E0,7.381510516E0
6.500831708E0,2.205066299E0,5.738179114E0,-3.120573040E0,6.893982377E0
6.510821708E0,3.720775693E0,5.140714127E0,-2.841712601E0,6.953160720E0
6.520811708E0,4.949183900E0,5.013785693E0,-2.704265903E0,7.546225701E0
6.530801708E0,5.552561007E0,5.294931516E0,-2.738958018E0,8.146724773E0
6.540791708E0,5.395843933E0,5.828614490E0,-2.857930731E0,8.441305982E0
6.550780708E0,4.991887870E0,6.612505669E0,-3.007469178E0,8.814139016E0
6.560770708E0,4.497005850E0,7.459021697E0,-3.202102814E0,9.279737535E0
6.570760708E0,4.010147964E0,8.125186206E0,-3.365238084E0,9.665648707E0
6.580750708E0,3.745495967E0,8.573452469E0,-3.451510828E0,9.972249208E0
6.590740708E0,3.484487370E0,8.692192461E0,-3.414324583E0,9.967621300E0
6.600729708E0,3.215250571E0,8.623229815E0,-3.298502350E0,9.776402530E0
6.610719708E0,3.053937001E0,8.478034095E0,-2.878855577E0,9.459989575E0
6.620709708E0,2.921804545E0,8.355992180E0,-2.242797504E0,9.131795429E0
6.630699708E0,2.665160894E0,8.277609669E0,-1.536078462E0,8.830710134E0
6.640689708E0,2.327569560E0,8.126104218E0,-9.036541423E-1,8.501043503E0
6.650678708E0,1.990774616E0,7.942253140E0,-4.850341398E-1,8.202306178E0
6.660668708E0,1.716791632E0,7.764120639E0,-3.155438232E-1,7.957921256E0
6.670658708E0,1.300589161E0,7.512853503E0,-4.372077164E-1,7.637123183E0
6.680648708E0,7.299704951E-1,7.002367603E0,-7.786050037E-1,7.083236176E0
6.690637708E0,6.242838264E-2,5.706544508E0,-1.101886740E0,5.812288870E0
6.700627708E0,-7.389892405E-1,3.726366216E0,-9.388131577E-1,3.913218678E0
6.710617708E0,-2.079500266E0,1.471179339E0,-7.380829221E-1,2.652066440E0
6.720607708E0,-4.181874840E0,-1.795393413E0,-3.036406463E-1,4.561108673E0
6.730597708E0,-6.399636614E0,-5.949693954E0,1.222162065E0,8.823144964E0
6.740586708E0,-7.832034879E0,-9.292891544E0,2.987085199E0,1.251484245E1
6.750576708E0,-1.023954114E1,-1.165997483E1,4.653774672E0,1.620064303E1
6.760566708E0,-1.322367583E1,-1.324224659E1,6.344307336E0,1.976038797E1
6.770556708E0,-1.565141872E1,-1.419011650E1,7.870990199E0,2.254503939E1
6.780546708E0,-1.729817825E1,-1.459034321E1,9.382035270E0,2.449750338E1
6.790535708E0,-1.913078802E1,-1.490723072E1,1.069796285E1,2.650771562E1
6.800525708E0,-2.074950899E1,-1.522699156E1,1.134964906E1,2.812859629E1
6.810515708E0,-2.167831347E1,-1.547704423E1,1.071346615E1,2.871004232E1
6.820505708E0,-2.166413046E1,-1.606613132E1,9.130652944E0,2.847497054E1
6.830495708E0,-2.053378883E1,-1.644652895E1,7.055763792E0,2.723799921E1
6.840484708E0,-1.872578297E1,-1.604024336E1,4.947622694E0,2.514802826E1
6.850474708E0,-1.654060598E1,-1.474183872E1,3.322327707E0,2.240427005E1
6.860464708E0,-1.423176037E1,-1.309150654E1,2.403365555E0,1.948606458E1
6.870454708E0,-1.171863644E1,-1.164632275E1,2.219505998E0,1.667001741E1
6.880444708E0,-8.539120542E0,-1.024085092E1,2.464938197E0,1.355977608E1
6.890433708E0,-5.103232305E0,-8.747949171E0,2.273826047E0,1.037978225E1
6.900423708E0,-1.837301577E0,-7.197518426E0,1.455587446E0,7.569589380E0
6.910413708E0,1.349246766E0,-5.353123591E0,1.970906362E-1,5.524060439E0
6.920403708E0,4.424378754E0,-3.181339644E0,-1.245692869E0,5.589973167E0
6.930392708E0,6.803357034E0,-1.032700145E0,-2.629505743E0,7.366575661E0
6.940382708E0,8.320290835E0,8.031904989E-1,-3.578930720E0,9.092914805E0
6.950372708E0,9.105097688E0,2.256960922E0,-4.067335487E0,1.022447527E1
6.960362708E0,9.270636456E0,3.194587095E0,-4.204020877E0,1.066882742E1
6.970352708E0,9.189180649E0,3.845847928E0,-4.266013642E0,1.083653356E1
6.980341708E0,8.944982212E0,4.200090379E0,-4.284371268E0,1.077076149E1
6.990331708E0,8.630731208E0,3.899939351E0,-4.365168094E0,1.042850615E1
7.000321708E0,8.687208880E0,3.392686084E0,-4.899110684E0,1.053466670E1
7.010311708E0,8.892465445E0,2.986302257E0,-5.896584279E0,1.107987586E1
7.020301708E0,9.074291632E0,2.500430504E0,-6.744414761E0,1.157938046E1
7.030290708E0,9.140512519E0,2.253227768E0,-7.243884507E0,1.187854651E1
7.040280708E0,9.147214597E0,2.172543501E0,-7.577079905E0,1.207491698E1
7.050270708E0,9.282270076E0,2.236417023E0,-7.690477297E0,1.225991598E1
7.060260708E0,9.383040991E0,2.339691130E0,-7.479310366E0,1.222520742E1
7.070249708E0,9.481572422E0,2.361950311E0,-7.095530121E0,1.207582596E1
7.080239708E0,9.584938915E0,2.374928791E0,-6.696811994E0,1.193141365E1
7.090229708E0,9.832217081E0,2.359425483E0,-6.530572144E0,1.203693291E1
7.100219708E0,1.024169525E1,2.243925140E0,-6.476146846E0,1.232347352E1
7.110209708E0,1.049283667E1,1.969725809E0,-6.437600831E0,1.246684185E1
7.120198708E0,1.072705041E1,1.595992250E0,-6.413249516E0,1.259946709E1
7.130188708E0,1.096177518E1,1.269438120E0,-6.420070294E0,1.276672593E1
7.140178708E0,1.113042993E1,8.281182025E-1,-6.336667364E0,1.283454727E1
7.150168708E0,1.128920757E1,3.140071750E-1,-6.028558275E0,1.280188747E1
7.160158708E0,1.139073160E1,-8.265258595E-2,-5.610997496E0,1.269798767E1
7.170147708E0,1.138818455E1,-2.926303393E-1,-5.145573748E0,1.250013237E1
7.180137708E0,1.129511910E1,-3.408116886E-1,-4.735435424E0,1.225235556E1
7.190127708E0,1.111214452E1,-3.706700568E-1,-4.423137390E0,1.196583873E1
7.200117708E0,1.081585792E1,-2.935688174E-1,-4.156537101E0,1.159076209E1
7.210106708E0,1.060316077E1,-1.497062624E-2,-3.986796523E0,1.132792077E1
7.220096708E0,1.042346648E1,2.003653693E-1,-3.929178645E0,1.114124071E1
7.230086708E0,1.027828713E1,1.560140924E-1,-3.896380443E0,1.099314820E1
7.240076708E0,1.023532296E1,1.722890863E-1,-3.886478183E0,1.094971380E1
7.250066708E0,1.003048681E1,2.971091603E-1,-3.856648905E0,1.075047349E1
7.260055708E0,9.731101765E0,2.409047002E-1,-3.774155509E0,1.044014494E1
7.270045708E0,9.443643873E0,1.976278491E-1,-3.660747592E0,1.013027834E1
7.280035708E0,9.060595114E0,1.972159128E-1,-3.527069133E0,9.724890468E0
7.290025708E0,8.503692847E0,5.131823435E-2,-3.457321206E0,9.179787335E0
7.300015708E0,7.706819680E0,-3.075571114E-1,-3.469807935E0,8.457495377E0
7.310004708E0,6.712556207E0,-1.417178109E0,-3.632744984E0,7.762965976E0
7.319994708E0,5.833072992E0,-3.164430373E0,-4.125617024E0,7.814030711E0
7.329984708E0,5.003212173E0,-5.621797303E0,-4.623724076E0,8.832641807E0
7.339974708E0,3.599061806E0,-9.322289005E0,-4.445401833E0,1.093708899E1
7.349964708E0,2.609466165E0,-1.325494090E1,-3.493830051E0,1.395383891E1
7.359953708E0,5.492143482E-1,-1.673352550E1,-1.944165583E0,1.685503758E1
7.369943708E0,-4.297569019E0,-2.015599555E1,3.939505997E-1,2.061282254E1
7.379933708E0,-1.097998224E1,-2.330721443E1,2.758238627E0,2.591127428E1
7.389923708E0,-1.797297734E1,-2.524083953E1,6.048134753E0,3.157067989E1
7.399913708E0,-2.177362308E1,-2.254877910E1,1.171518775E1,3.346316968E1
7.409902708E0,-2.163036396E1,-1.495695194E1,1.695968762E1,3.129239620E1
7.419892708E0,-2.146920534E1,-8.176466287E0,1.896780858E1,2.979193081E1
7.429882708E0,-2.200679601E1,-5.287179862E0,1.811596165E1,2.899036750E1
7.439872708E0,-2.095264594E1,-5.571964992E0,1.473944604E1,2.621662517E1
7.449861708E0,-1.828610510E1,-6.666019971E0,9.999625204E0,2.188172676E1
7.459851708E0,-1.589051254E1,-7.186897543E0,5.781536218E0,1.837351480E1
7.469841708E0,-1.489481241E1,-6.617151282E0,2.996858236E0,1.657176173E1
7.479831708E0,-1.449052773E1,-3.813447629E0,1.463080945E0,1.505517793E1
7.489821708E0,-1.398100954E1,7.320544428E-1,7.910920250E-1,1.402249472E1
7.499810708E0,-1.332426081E1,5.134501460E0,6.637367445E-1,1.429473951E1
7.509800708E0,-1.240154562E1,8.234170119E0,6.802603912E-1,1.490176652E1
7.519790708E0,-1.065854794E1,1.003261286E1,4.196160758E-1,1.464356659E1
7.529780708E0,-8.694502112E0,1.052503261E1,-3.052860528E-1,1.365517770E1
7.539769708E0,-6.512299011E0,9.903146145E0,-1.121997069E0,1.190551214E1
7.549759708E0,-4.260159702E0,8.680391026E0,-1.933171940E0,9.860796256E0
7.559749708E0,-2.254817918E0,7.493457704E0,-2.827629874E0,8.320553041E0
7.569739708E0,-3.461920041E-1,6.568860882E0,-3.519574464E0,7.460374428E0
7.579729708E0,1.175948743E0,6.076685538E0,-3.924626588E0,7.328823672E0
7.589718708E0,2.140693717E0,5.947965517E0,-4.231958289E0,7.607255375E0
7.599708708E0,2.675329787E0,6.052625415E0,-4.561330777E0,8.037250919E0
7.609698708E0,2.875808008E0,6.354521252E0,-4.694663959E0,8.407739394E0
7.619688708E0,2.977422091E0,6.762408398E0,-4.692254029E0,8.752854250E0
7.629678708E0,2.898002284E0,7.254540473E0,-4.544520909E0,9.037668118E0
7.639667708E0,2.667523170E0,7.847248750E0,-4.214815714E0,9.298368906E0
7.649657708E0,2.752108991E0,8.098669083E0,-4.024273083E0,9.452900013E0
7.659647708E0,2.901156272E0,8.061900621E0,-3.770321783E0,9.360890753E0
7.669637708E0,3.038058302E0,8.081337935E0,-3.446504441E0,9.296032161E0
7.679627708E0,3.141851642E0,8.070342246E0,-2.994545662E0,9.163457832E0
7.689616708E0,3.244680777E0,8.042122414E0,-2.497381766E0,9.024444689E0
7.699606708E0,3.315850162E0,7.988697574E0,-2.021077519E0,8.882505590E0
7.709596708E0,3.387921773E0,7.975046080E0,-1.647583403E0,8.820085316E0
7.719586708E0,3.390419703E0,7.987438669E0,-1.394384640E0,8.788539741E0
7.729575708E0,3.069772430E0,7.835111099E0,-1.200846772E0,8.500264801E0
7.739565708E0,2.482290394E0,7.480665751E0,-1.081713261E0,7.955641348E0
7.749555708E0,1.649307747E0,6.542037950E0,-1.278227069E0,6.866756222E0
7.759545708E0,4.707213253E-1,4.678470680E0,-1.654779279E0,4.984772906E0
7.769535708E0,-4.564658135E-1,2.445471062E0,-1.802341660E0,3.071990432E0
7.779524708E0,-1.388018484E0,-8.930627882E-2,-1.626599208E0,2.140185951E0
7.789514708E0,-2.938037585E0,-3.190106374E0,-6.775987387E-1,4.389531134E0
7.799504708E0,-4.852615964E0,-6.072400698E0,1.161855491E0,7.859506353E0
7.809494708E0,-7.136837776E0,-8.113331560E0,3.083742305E0,1.123699555E1
7.819484708E0,-9.131233572E0,-9.745098245E0,5.042543469E0,1.427492946E1
7.829473708E0,-1.066996989E1,-1.092300814E1,6.734158160E0,1.668859642E1
7.839463708E0,-1.244724395E1,-1.228635196E1,7.827638358E0,1.916142606E1
7.849453708E0,-1.420841361E1,-1.453727505E1,7.955264364E0,2.182882531E1
7.859443708E0,-1.503282190E1,-1.667681102E1,7.185041052E0,2.357385363E1
7.869433708E0,-1.563535408E1,-1.840013867E1,6.477289976E0,2.499969371E1
7.879422708E0,-1.608732514E1,-1.918312411E1,5.930233836E0,2.572862131E1
7.889412708E0,-1.592995552E1,-1.855767786E1,5.554673606E0,2.507997786E1
7.899402708E0,-1.523631436E1,-1.701386207E1,5.545469504E0,2.350253199E1
7.909392708E0,-1.390528927E1,-1.524215222E1,6.051937197E0,2.150130735E1
7.919382708E0,-1.217043442E1,-1.377417598E1,6.615944417E0,1.953504847E1
7.929371708E0,-1.016332619E1,-1.262512794E1,6.916234608E0,1.762161616E1
7.939361708E0,-7.639134650E0,-1.138018206E1,6.585207358E0,1.520624470E1
7.949351708E0,-4.809261199E0,-9.632411875E0,5.615908572E0,1.214293131E1
7.959341708E0,-2.424852026E0,-7.482956690E0,4.201956518E0,8.918014731E0
7.969330708E0,-5.646977752E-1,-5.142869411E0,2.746551797E0,5.857604982E0
7.979320708E0,1.065068577E0,-2.561166995E0,1.483988542E0,3.145817770E0
7.989310708E0,2.508076615E0,7.927947342E-2,4.086958158E-1,2.542393717E0
7.999300708E0,3.929671565E0,2.622641112E0,-4.778525895E-1,4.748569059E0
8.009290708E0,5.440773354E0,5.108677817E0,-1.156502365E0,7.552357343E0
8.019279708E0,6.718451369E0,7.262157640E0,-1.528912700E0,1.001069910E1
8.029269708E0,7.538823912E0,8.794318761E0,-1.562058226E0,1.168819637E1
8.039259708E0,7.794113347E0,9.680560187E0,-1.529390709E0,1.252200001E1
8.049249708E0,7.510694711E0,9.919844624E0,-1.687476617E0,1.255633027E1
8.059239708E0,6.857862439E0,9.780152303E0,-1.823643651E0,1.208334939E1
8.069228708E0,6.187924138E0,9.565746015E0,-1.655089766E0,1.151230750E1
8.079218708E0,5.750931306E0,9.133455514E0,-1.444571876E0,1.088944482E1
8.089208708E0,5.414834520E0,8.656667118E0,-1.439256757E0,1.031163316E1
8.099198708E0,5.180237212E0,8.058929651E0,-1.472160209E0,9.692701397E0
8.109187708E0,5.150511721E0,7.343539188E0,-1.599191262E0,9.111133381E0
8.119177708E0,5.190428324E0,6.560095906E0,-2.041783094E0,8.610707444E0
8.129167708E0,5.323118604E0,5.913257030E0,-2.642566961E0,8.383636473E0
8.139157708E0,5.530723411E0,5.379759412E0,-3.560849667E0,8.497668100E0
8.149147708E0,5.644266983E0,4.854056134E0,-4.601478052E0,8.751754738E0
8.159136708E0,5.797524260E0,4.466783347E0,-5.611404462E0,9.222326227E0
8.169126708E0,6.030731685E0,4.180511854E0,-6.526301923E0,9.820337103E0
8.179116708E0,6.326875032E0,4.000401825E0,-7.210803884E0,1.039366418E1
8.189106708E0,6.598822600E0,3.942927788E0,-7.607508815E0,1.081505107E1
8.199095708E0,6.848512157E0,3.974281143E0,-7.656009715E0,1.101415063E1
8.209085708E0,7.012810146E0,4.141889241E0,-7.468803504E0,1.105069131E1
8.219075708E0,7.195162582E0,4.373743328E0,-7.163813905E0,1.105532564E1
8.229065708E0,7.355018442E0,4.661432478E0,-6.818600725E0,1.105977237E1
8.239055708E0,7.484975148E0,4.921547620E0,-6.561409775E0,1.110398947E1
8.249044708E0,7.488799812E0,5.057749153E0,-6.431277067E0,1.109163080E1
8.259034708E0,7.440056838E0,4.963655759E0,-6.457607079E0,1.103145564E1
8.269024708E0,7.524976535E0,4.627984650E0,-6.603745955E0,1.102964072E1
8.279014708E0,7.757936624E0,4.281837962E0,-6.734800184E0,1.113001575E1
8.289004708E0,7.970097581E0,3.958712054E0,-6.760682884E0,1.117589771E1
8.298993708E0,8.134540581E0,3.570782040E0,-6.793943601E0,1.118386805E1
8.308983708E0,8.118368352E0,3.293341598E0,-6.731345649E0,1.104830384E1
8.318973708E0,7.773980799E0,2.790705000E0,-6.689388953E0,1.062876928E1
8.328963708E0,7.264133999E0,2.001807142E0,-6.528139118E0,9.969527318E0
8.338952708E0,6.837104824E0,1.391504009E0,-6.177386286E0,9.318926285E0
8.348942708E0,6.287922050E0,8.532283393E-1,-6.002506006E0,8.734760481E0
8.358932708E0,5.568549049E0,-1.266199932E-1,-5.849903033E0,8.077508070E0
8.368922708E0,4.987078536E0,-1.077054200E0,-5.462424424E0,7.474562104E0
8.378912708E0,4.327573421E0,-1.525338297E0,-4.958423671E0,6.755776338E0
8.388901708E0,3.096022920E0,-2.297321913E0,-4.302773041E0,5.777274594E0
8.398891708E0,2.067590657E0,-3.375742899E0,-3.572780911E0,5.332479225E0
8.408881708E0,1.354199942E0,-5.166680442E0,-3.016585864E0,6.134185728E0
8.418871833E0,9.383249152E-1,-8.632781242E0,-2.534945156E0,9.046066138E0
8.428861833E0,4.794594043E-1,-1.298643675E1,-1.703192178E0,1.310642150E1
8.438850833E0,-1.094203498E0,-1.815515904E1,-1.326191779E0,1.823638851E1
8.448840833E0,-4.059335911E0,-2.522610922E1,-1.355684550E0,2.558657217E1
8.458830833E0,-6.001676286E0,-3.003802389E1,-4.594993490E-1,3.063517810E1
8.468820833E0,-6.188303622E0,-2.842265806E1,2.399928854E0,2.918736458E1
8.478809833E0,-7.929378741E0,-2.311344004E1,7.613120388E0,2.559425248E1
8.488799833E0,-1.102724295E1,-1.702368656E1,1.261838026E1,2.388785280E1
8.498789833E0,-1.405207076E1,-1.131696196E1,1.523416375E1,2.361385326E1
8.508779833E0,-1.621927341E1,-7.035158789E0,1.539051245E1,2.343984135E1
8.518769833E0,-1.625555655E1,-5.712976445E0,1.302327772E1,2.159830969E1
8.528758833E0,-1.457687473E1,-6.606626878E0,9.797312127E0,1.876486399E1
8.538748833E0,-1.228664432E1,-6.768105340E0,7.363025619E0,1.584244378E1
8.548738833E0,-1.055095449E1,-4.770401189E0,5.697421682E0,1.290503708E1
8.558728833E0,-9.954936104E0,-1.273361017E0,4.857335545E0,1.114970447E1
8.568718833E0,-1.003108556E1,2.424849102E0,4.827294012E0,1.139321457E1
8.578707833E0,-9.854333589E0,5.361792088E0,5.037131286E0,1.229753620E1
8.588697833E0,-9.080974415E0,7.259008330E0,4.581694583E0,1.249596829E1
8.598687833E0,-8.020059115E0,8.218083259E0,3.510299318E0,1.200751606E1
8.608677833E0,-6.815317513E0,8.542722427E0,2.317550794E0,1.117128914E1
8.618666833E0,-5.698075401E0,8.421778618E0,1.203483573E0,1.023927688E1
8.628656833E0,-4.706151398E0,8.154282535E0,2.813539839E-1,9.419094687E0
8.638646833E0,-3.631637229E0,7.841166476E0,-4.823169386E-1,8.654785399E0
8.648636833E0,-2.625374100E0,7.530029114E0,-9.370625013E-1,8.029446666E0
8.658626833E0,-1.694307334E0,7.403302994E0,-1.137419100E0,7.679407189E0
8.668615833E0,-8.059568167E-1,7.312564732E0,-1.283250997E0,7.467924911E0
8.678605833E0,1.319628865E-1,7.213434547E0,-1.411022892E0,7.351328979E0
8.688595833E0,9.786537462E-1,7.222065622E0,-1.586029179E0,7.458651591E0
8.698585833E0,1.650012921E0,7.232428057E0,-1.759478061E0,7.624061994E0
8.708574833E0,2.216991110E0,7.122427897E0,-1.886327265E0,7.694300442E0
8.718564833E0,2.763532112E0,6.878017207E0,-1.995237503E0,7.676275342E0
8.728554833E0,3.189949669E0,6.668431948E0,-2.081541237E0,7.679620919E0
8.738544833E0,3.543899758E0,6.520069376E0,-2.082615955E0,7.707646812E0
8.748534833E0,3.769092405E0,6.329557734E0,-2.097641545E0,7.659599123E0
8.758523833E0,3.858397515E0,6.279187480E0,-1.983317954E0,7.632101735E0
8.768513833E0,3.947466397E0,6.429135817E0,-1.856506465E0,7.769356122E0
8.778503833E0,3.713328679E0,6.556455429E0,-1.865788627E0,7.762543712E0
8.788493833E0,3.279596840E0,6.649701562E0,-1.923522865E0,7.659910346E0
8.798483833E0,2.687907733E0,6.516225416E0,-1.980808914E0,7.321860802E0
8.808472833E0,1.981117355E0,6.140565199E0,-2.126951006E0,6.793768286E0
8.818462833E0,1.388064677E0,5.622317120E0,-2.160412282E0,6.180983302E0
8.828452833E0,4.168023956E-1,4.959002545E0,-1.928990889E0,5.337268620E0
8.838442833E0,-7.231883097E-1,3.951722000E0,-1.822735286E0,4.411515842E0
8.848431833E0,-2.394730679E0,2.197932111E0,-1.941999774E0,3.786423604E0
8.858421833E0,-4.015440279E0,-5.750689816E-1,-2.108183490E0,4.571531756E0
8.868411833E0,-5.858468619E0,-3.695945492E0,-1.481043299E0,7.083442446E0
8.878401833E0,-8.030460142E0,-6.663543091E0,2.319795102E-1,1.043766790E1
8.888391833E0,-1.024984627E1,-8.881897187E0,2.072351460E0,1.372013436E1
8.898380833E0,-1.257288658E1,-1.076038772E1,3.859386571E0,1.699288926E1
8.908370833E0,-1.477608235E1,-1.244909635E1,5.320656341E0,2.004050881E1
8.918360833E0,-1.678993944E1,-1.412668941E1,6.371572317E0,2.284868386E1
8.928350833E0,-1.820018962E1,-1.546218294E1,7.167121675E0,2.493378505E1
8.938340833E0,-1.877417804E1,-1.621885241E1,7.935979078E0,2.604804596E1
8.948329833E0,-1.831454946E1,-1.682995895E1,8.710732228E0,2.635426145E1
8.958319833E0,-1.703560085E1,-1.738750500E1,9.226957170E0,2.603216789E1
8.968309833E0,-1.508495216E1,-1.796648460E1,8.811190317E0,2.505967728E1
8.978299833E0,-1.296564639E1,-1.851228242E1,7.939426596E0,2.395510554E1
8.988288833E0,-1.072677676E1,-1.888314090E1,7.239415480E0,2.289204854E1
8.998278833E0,-8.256021749E0,-1.813593457E1,6.584410383E0,2.098638792E1
9.008268833E0,-5.680367108E0,-1.581042674E1,5.776250920E0,1.776516926E1
9.018258833E0,-3.221565564E0,-1.262840589E1,4.517870470E0,1.379370413E1
9.028248833E0,-1.155348417E0,-9.454376437E0,2.983500856E0,9.981049100E0
9.038237833E0,8.243275988E-1,-6.397738608E0,1.260502258E0,6.572628182E0
9.048227833E0,2.524137163E0,-3.457377924E0,-4.629687944E-1,4.305702106E0
9.058217833E0,3.819726954E0,-6.447245228E-1,-1.883333198E0,4.307310953E0
9.068207833E0,4.842255868E0,1.951847947E0,-2.935610406E0,5.989570999E0
9.078197833E0,5.505450575E0,4.230458770E0,-3.313470930E0,7.693234498E0
9.088186833E0,5.713315583E0,6.124625689E0,-3.275365795E0,8.993388454E0
9.098176833E0,5.467479926E0,7.379972604E0,-3.155429462E0,9.711543001E0
9.108166833E0,4.940563350E0,8.271675330E0,-3.018123682E0,1.009647709E1
9.118156833E0,4.234639530E0,9.081657954E0,-3.016620363E0,1.046463958E1
9.128145833E0,3.683871576E0,9.686715551E0,-3.271912429E0,1.086778629E1
9.138135833E0,3.420784879E0,9.998239413E0,-3.611500588E0,1.116734064E1
9.148125833E0,3.618943509E0,1.012385749E1,-3.861898828E0,1.142381307E1
9.158115833E0,4.064534086E0,1.019880710E1,-4.017570712E0,1.169089295E1
9.168105833E0,4.655876454E0,1.012690038E1,-3.966009379E0,1.183049142E1
9.178094833E0,5.346600437E0,9.634002902E0,-3.973384472E0,1.171272523E1
9.188084833E0,5.998282562E0,8.842448947E0,-3.732570404E0,1.131814379E1
9.198074833E0,6.635103988E0,8.081862431E0,-3.201854892E0,1.093585754E1
9.208064833E0,7.231590736E0,7.338525785E0,-2.784994317E0,1.067267814E1
9.218053833E0,7.736430565E0,6.738151808E0,-2.535831886E0,1.056813565E1
9.228043833E0,8.132094691E0,6.180647278E0,-2.479896252E0,1.051100615E1
9.238033833E0,8.423349180E0,5.557161596E0,-2.549755861E0,1.040846345E1
9.248023833E0,8.633571786E0,4.975767097E0,-2.645251710E0,1.030990672E1
9.258013833E0,8.870990961E0,4.614510326E0,-2.896068025E0,1.041035044E1
9.268002833E0,9.154591445E0,4.284905704E0,-3.434034962E0,1.067518419E1
9.277992833E0,9.500360110E0,4.027943380E0,-3.881123303E0,1.102471261E1
9.287982833E0,9.928383898E0,3.977664927E0,-4.158547958E0,1.147554557E1
9.297972833E0,1.027214989E1,3.977257960E0,-4.212449639E0,1.179323434E1
9.307961833E0,1.050795524E1,3.777325285E0,-4.037386048E0,1.187374396E1
9.317951833E0,1.066387592E1,3.606684821E0,-3.804344684E0,1.188273805E1
9.327941833E0,1.066115930E1,3.548659100E0,-3.549878244E0,1.178367237E1
9.337931833E0,1.059902211E1,3.524313340E0,-3.307240722E0,1.164894396E1
9.347921833E0,1.046964428E1,3.458979476E0,-3.045167347E0,1.143901370E1
9.357910833E0,1.024370670E1,3.415195818E0,-2.863840511E0,1.117133259E1
9.367900833E0,9.938527647E0,3.365993837E0,-2.693808450E0,1.083332129E1
9.377890833E0,9.557750532E0,3.445012817E0,-2.611544266E0,1.048994147E1
9.387880833E0,9.043738761E0,3.624427028E0,-2.645332401E0,1.009571521E1
9.397870833E0,8.340881220E0,3.663801008E0,-2.669172961E0,9.493061764E0
9.407859833E0,7.802189521E0,3.749482891E0,-2.592042340E0,9.036120117E0
9.417845708E0,7.302261354E0,3.677124182E0,-2.533218181E0,8.559290711E0
9.427835708E0,6.924841125E0,3.473208091E0,-2.493843323E0,8.138541243E0
9.437825708E0,6.542083558E0,3.349653500E0,-2.580315456E0,7.789548363E0
9.447814708E0,5.950236576E0,2.893722122E0,-2.786437994E0,7.179357891E0
9.457804708E0,5.132230402E0,1.718764483E0,-2.901847413E0,6.141226152E0
9.467794708E0,4.267271086E0,1.631036952E-1,-2.565318810E0,4.981673006E0
9.477784708E0,3.048442372E0,-1.010412313E0,-1.880508116E0,3.721591691E0
9.487774708E0,6.543888009E-1,-2.477513804E0,-1.007762648E0,2.753522272E0
9.497763708E0,-2.049147370E0,-6.065434325E0,1.054650593E-1,6.403094672E0
9.507753708E0,-3.840093976E0,-1.106580066E1,6.357677579E-1,1.173040778E1
9.517743708E0,-5.467466478E0,-1.629505683E1,-2.767840925E-1,1.719007494E1
9.527733708E0,-8.248512754E0,-1.973788688E1,-8.719578481E-1,2.140986809E1
9.537722708E0,-1.254269390E1,-2.255170739E1,-3.649849552E-1,2.580759366E1
9.547712708E0,-1.581404967E1,-2.428504664E1,3.004577437E0,2.913546195E1
9.557702708E0,-1.697935531E1,-1.916173383E1,1.038523621E1,2.762831304E1
9.567692708E0,-1.711823604E1,-1.050794939E1,1.692401258E1,2.626543751E1
9.577682708E0,-1.737492881E1,-5.029990082E0,1.897668816E1,2.621647659E1
9.587671708E0,-1.746763875E1,-4.286650513E0,1.693679577E1,2.470523886E1
9.597661708E0,-1.599514963E1,-5.985556682E0,1.230367375E1,2.104880254E1
9.607651708E0,-1.322433891E1,-7.779109392E0,7.350102687E0,1.701239818E1
9.617641708E0,-1.025595544E1,-8.522412123E0,3.189382196E0,1.371088215E1
9.627630708E0,-8.392177674E0,-7.166984850E0,7.075318050E-1,1.105870332E1
9.637620708E0,-7.771363585E0,-3.658833214E0,2.038207814E-2,8.589619775E0
9.647610708E0,-7.618889251E0,1.371002501E-1,-6.659072310E-2,7.620413651E0
9.657600708E0,-7.200500506E0,3.173389769E0,-4.213553300E-1,7.880047619E0
9.667590708E0,-6.332931578E0,5.341509266E0,-1.284497331E0,8.383774627E0
9.677579708E0,-5.006363822E0,6.642645727E0,-2.205525013E0,8.605391424E0
9.687569708E0,-3.544354672E0,7.286871482E0,-3.146391713E0,8.692567333E0
9.697559708E0,-1.980340260E0,7.388107250E0,-3.178164898E0,8.282910624E0
9.707549708E0,-4.563535470E-1,7.004381969E0,-2.674948256E0,7.511655843E0
9.717538708E0,8.731752384E-1,6.521096147E0,-2.116118162E0,6.911228981E0
9.727528708E0,1.995547113E0,6.212766618E0,-1.749215028E0,6.755770167E0
9.737518708E0,2.860467253E0,6.068463768E0,-1.875389755E0,6.966032740E0
9.747508708E0,3.393038086E0,6.159103796E0,-2.395528239E0,7.428716078E0
9.757498708E0,3.701935964E0,6.202434588E0,-2.642539771E0,7.691393966E0
9.767487708E0,4.097541618E0,6.256135417E0,-2.867163192E0,8.009350937E0
9.777477708E0,4.351037128E0,6.240166671E0,-3.243283584E0,8.269830263E0
9.787467708E0,4.555180968E0,6.139624967E0,-3.744542871E0,8.512712241E0
9.797457708E0,4.835482453E0,6.185020995E0,-3.993254188E0,8.808090274E0
9.807446708E0,5.095809850E0,6.190854177E0,-4.129088516E0,9.019053467E0
9.817436708E0,5.163058092E0,5.972342559E0,-4.147924737E0,8.918033647E0
9.827426708E0,5.121008425E0,5.652005773E0,-4.031500534E0,8.626870412E0
9.837416708E0,5.064238978E0,5.330262147E0,-3.811542606E0,8.281670606E0
9.847406708E0,4.931035312E0,5.157110889E0,-3.537723345E0,7.964068586E0
9.857395708E0,4.682285403E0,5.105257781E0,-3.202886049E0,7.631902295E0
9.867385708E0,4.372326840E0,5.238056819E0,-2.742744968E0,7.353715469E0
9.877375708E0,3.894383034E0,5.380654621E0,-2.320976239E0,7.035950119E0
9.887365708E0,3.361337991E0,5.502365584E0,-1.800947099E0,6.694626992E0
9.897354708E0,2.830697324E0,5.790487136E0,-1.339162365E0,6.583004211E0
9.907344708E0,2.052628802E0,5.748840927E0,-1.168186564E0,6.215071749E0
9.917334708E0,1.475174156E0,5.233211816E0,-1.088259804E0,5.544993607E0
9.927324708E0,1.147158807E0,4.684071727E0,-1.097642538E0,4.945838697E0
9.937314708E0,4.737963760E-1,3.282540913E0,-1.140721607E0,3.507250153E0
9.947303708E0,-3.953589016E-1,8.786435544E-1,-9.464504984E-1,1.350589391E0
9.957293708E0,-1.551062245E0,-2.410877180E0,-4.550689137E-1,2.902621329E0
9.967283708E0,-2.351277096E0,-6.336536386E0,4.466848835E-1,6.773457370E0
9.977273708E0,-3.460600909E0,-9.500257199E0,2.094030597E0,1.032548351E1
9.987263708E0,-5.051065201E0,-1.143292511E1,4.111410044E0,1.315783906E1
9.997252708E0,-6.490326928E0,-1.254397327E1,5.665964831E0,1.521771226E1
1.000724271E1,-9.440067716E0,-1.342587606E1,6.545556804E0,1.766955971E1
1.001723271E1,-1.173366846E1,-1.380578837E1,6.733704416E0,1.932929236E1
1.002722271E1,-1.429324150E1,-1.362393529E1,6.955971701E0,2.093547009E1
1.003721171E1,-1.782224431E1,-1.436017926E1,7.841148350E0,2.419360965E1
1.004720171E1,-2.149774209E1,-1.562586522E1,8.731547146E0,2.797428273E1
1.005719171E1,-2.354001547E1,-1.635860554E1,9.210628821E0,3.010933389E1
1.006718171E1,-2.400209520E1,-1.650831180E1,9.249329202E0,3.056427691E1
1.007717171E1,-2.315394487E1,-1.579351425E1,8.571650941E0,2.930893133E1
1.008716071E1,-2.132618011E1,-1.356385632E1,6.810725110E0,2.617575467E1
1.009715071E1,-1.947184442E1,-1.059764568E1,4.383103259E0,2.259810641E1
1.010714071E1,-1.726646179E1,-7.888110847E0,1.612711632E0,1.905134731E1
1.011713071E1,-1.359459630E1,-5.598619525E0,-1.371567488E0,1.476613648E1
1.012711971E1,-9.097720256E0,-4.244541789E0,-3.709548454E0,1.070258841E1
1.013710971E1,-4.441305858E0,-4.084424559E0,-4.821590638E0,7.723694582E0
1.014709971E1,-3.391776842E-1,-4.195407051E0,-4.665246617E0,6.283391427E0
1.015708971E1,2.827600054E0,-3.582697788E0,-3.525692114E0,5.767282756E0
1.016707971E1,5.071871349E0,-2.131850388E0,-2.287103758E0,5.958146411E0
1.017706871E1,6.819447986E0,-1.121320546E-1,-1.345535538E0,6.951827840E0
1.018705871E1,8.028658615E0,1.971399282E0,-6.039951575E-1,8.289184788E0
1.019704871E1,8.753823869E0,3.470393241E0,-4.354982829E-1,9.426702516E0
1.020703871E1,9.186807264E0,4.353299416E0,-8.769142404E-1,1.020380430E1
1.021702771E1,9.459794467E0,5.103724056E0,-1.382719152E0,1.083732545E1
1.022701771E1,9.967126379E0,5.927069322E0,-2.053911681E0,1.177677002E1
1.023700771E1,1.053826603E1,6.230633370E0,-2.884744307E0,1.257766246E1
1.024699771E1,1.077630852E1,6.060498106E0,-3.408022161E0,1.282470575E1
1.025698771E1,1.076756576E1,5.770534097E0,-3.521679462E0,1.271384137E1
1.026697671E1,1.079784849E1,5.503640862E0,-3.358289545E0,1.257623566E1
1.027696671E1,1.070654656E1,5.232905422E0,-3.071186872E0,1.230632468E1
1.028695671E1,1.040661363E1,4.870939676E0,-2.716036933E0,1.180679962E1
1.029694671E1,9.970502561E0,4.632625585E0,-2.447640087E0,1.126335133E1
1.030693571E1,9.481864783E0,4.498331999E0,-2.289620838E0,1.074165323E1
1.031692571E1,8.963143664E0,4.368127955E0,-2.175180010E0,1.020538555E1
1.032691571E1,8.462986286E0,4.327127278E0,-1.986483929E0,9.710421503E0
1.033690571E1,8.051755702E0,4.380607082E0,-1.913668114E0,9.363899505E0
1.034689471E1,7.624823005E0,4.558479382E0,-1.935617831E0,9.091989690E0
1.035688471E1,7.247219759E0,4.892062451E0,-2.017107552E0,8.973471576E0
1.036687471E1,6.926668965E0,5.108696528E0,-2.103917654E0,8.860247889E0
1.037686471E1,6.675974271E0,5.212486945E0,-2.113155670E0,8.729494803E0
1.038685471E1,6.570641944E0,5.500512602E0,-2.059506589E0,8.813089233E0
1.039684371E1,6.453057361E0,5.646539211E0,-1.993253543E0,8.803318355E0
1.040683371E1,6.465534734E0,5.582605755E0,-1.952634690E0,8.762500137E0
1.041682450E1,6.756719057E0,5.391701766E0,-1.738567540E0,8.817387223E0
1.042681450E1,7.035486233E0,5.074735900E0,-1.445317981E0,8.794313791E0
1.043680450E1,7.169061196E0,4.756025224E0,-1.373434651E0,8.712148823E0
1.044679350E1,7.312415628E0,4.679838928E0,-1.540776992E0,8.817386713E0
1.045678350E1,7.440200095E0,4.818065937E0,-1.876901553E0,9.060524061E0
1.046677350E1,7.466199154E0,4.917269797E0,-2.253353483E0,9.219613549E0
1.047676350E1,7.471482114E0,4.943341947E0,-2.569595171E0,9.320005039E0
1.048675250E1,7.460571209E0,5.042756892E0,-2.837088330E0,9.441323532E0
1.049674250E1,7.280602098E0,5.153737046E0,-3.135434615E0,9.455110928E0
1.050673250E1,7.065981801E0,5.272360679E0,-3.444823659E0,9.465341831E0
1.051672250E1,6.878647537E0,5.336987030E0,-3.777163025E0,9.490320490E0
1.052671150E1,6.689688331E0,5.232506642E0,-4.153088998E0,9.454057539E0
1.053670150E1,6.437559900E0,4.974744419E0,-4.494919564E0,9.294867475E0
1.054669150E1,6.129315156E0,4.712001538E0,-4.876848580E0,9.140848694E0
1.055668150E1,5.759527298E0,4.148967880E0,-5.171900836E0,8.782633286E0
1.056667150E1,5.477670454E0,3.036754957E0,-5.312260909E0,8.212604352E0
1.057666050E1,5.215024636E0,1.430378053E0,-5.211067826E0,7.509839626E0
1.058665050E1,5.156905652E0,-6.178305468E-1,-4.790192260E0,7.065502981E0
1.059664050E1,5.118854896E0,-2.294844740E0,-3.886797734E0,6.824674677E0
1.060663050E1,3.851579661E0,-3.770869374E0,-2.588789241E0,5.979628037E0
1.061661950E1,1.270318125E0,-5.618062686E0,-8.755866301E-1,5.826061142E0
1.062660950E1,-1.862975532E0,-7.936345114E0,1.160239321E0,8.234221692E0
1.063659950E1,-5.391728078E0,-9.982953622E0,3.071403511E0,1.175430195E1
1.064658950E1,-1.025284239E1,-1.335797234E1,2.906146871E0,1.708806284E1
1.065657950E1,-1.427113669E1,-1.846232731E1,2.079999034E0,2.342753227E1
1.066656850E1,-1.585519536E1,-2.046412042E1,3.694162091E0,2.614984279E1
1.067655850E1,-1.623405751E1,-1.905981101E1,8.731736596E0,2.651535863E1
1.068654850E1,-1.593009468E1,-1.580281600E1,1.424852668E1,2.658039546E1
1.069653850E1,-1.542852754E1,-1.241465157E1,1.810640262E1,2.683290613E1
1.070652750E1,-1.531147798E1,-1.057379371E1,1.893771179E1,2.654964029E1
1.071651750E1,-1.471769791E1,-9.760730191E0,1.654404999E1,2.419892716E1
1.072650750E1,-1.323775008E1,-9.249937897E0,1.195878392E1,2.009507132E1
1.073649750E1,-1.162292570E1,-8.797420709E0,6.790470940E0,1.608096728E1
1.074648750E1,-9.913673472E0,-7.236856738E0,2.686718701E0,1.256469158E1
1.075647650E1,-8.626054021E0,-4.635380208E0,1.494080544E-2,9.792639117E0
1.076646650E1,-7.623802081E0,-1.930615538E0,-2.091782635E0,8.137886035E0
1.077645650E1,-6.487103943E0,5.417959857E-1,-3.565473645E0,7.422173723E0
1.078644650E1,-5.320403742E0,2.593501512E0,-4.327918699E0,7.332382037E0
1.079643550E1,-4.082562221E0,4.050911243E0,-4.674213322E0,7.411171727E0
1.080642550E1,-2.888069034E0,5.140155133E0,-5.088095033E0,7.787865472E0
1.081641550E1,-1.748326836E0,5.843588040E0,-5.314408007E0,8.089938218E0
1.082640550E1,-6.984399694E-1,6.108026614E0,-5.304597548E0,8.120010016E0
1.083639550E1,1.488063759E-1,6.274380484E0,-5.340037522E0,8.240509361E0
1.084638450E1,7.891296995E-1,6.500672407E0,-5.326616993E0,8.441227163E0
1.085637450E1,1.277964529E0,6.732733778E0,-5.284804139E0,8.654019427E0
1.086636450E1,1.635992467E0,6.850849289E0,-5.243998175E0,8.781237053E0
1.087635450E1,1.931844038E0,6.873531808E0,-5.158978490E0,8.808661644E0
1.088634350E1,2.195424240E0,6.773894668E0,-5.078345386E0,8.746149349E0
1.089633350E1,2.601492902E0,6.837204811E0,-4.957176459E0,8.836782978E0
1.090632350E1,3.102920296E0,7.064190799E0,-4.722232996E0,9.046015171E0
1.091631350E1,3.555571386E0,7.251326258E0,-4.531991495E0,9.260818932E0
1.092630350E1,3.943421293E0,7.351997185E0,-4.358498760E0,9.412701288E0
1.093629250E1,4.303881673E0,7.420019599E0,-4.201277071E0,9.551482468E0
1.094628250E1,4.510669039E0,7.389116480E0,-4.121999937E0,9.588329417E0
1.095627250E1,4.539449034E0,7.171907621E0,-4.118146622E0,9.434086498E0
1.096626250E1,4.574552794E0,6.789637712E0,-4.159872937E0,9.183150678E0
1.097625150E1,4.716036701E0,6.285831086E0,-4.198762476E0,8.909673447E0
1.098624150E1,4.907334208E0,5.708807380E0,-4.209909316E0,8.625296933E0
1.099623150E1,5.245995584E0,5.230333816E0,-4.077704647E0,8.456035518E0
1.100622150E1,5.652085880E0,5.043305946E0,-3.760184757E0,8.456949750E0
1.101621050E1,5.892807562E0,4.974129292E0,-3.427863518E0,8.439039725E0
1.102620050E1,5.949924919E0,4.511256099E0,-2.871399499E0,7.999873325E0
1.103619050E1,5.933571426E0,3.910523103E0,-2.179428597E0,7.432991983E0
1.104618050E1,5.571993059E0,3.654576441E0,-1.402189211E0,6.809491185E0
1.105617050E1,4.774552712E0,3.424470379E0,-6.099739355E-1,5.907234478E0
1.106615950E1,3.536713530E0,2.989866135E0,-1.678703454E-1,4.634201393E0
1.107614950E1,1.831859574E0,2.135849299E0,-2.301037234E-1,2.823209069E0
1.108613950E1,-2.790642142E-2,9.711120075E-1,-3.010649478E-1,1.017092622E0
1.109612950E1,-2.077958356E0,-1.217940522E0,-5.981584668E-2,2.409329363E0
1.110611850E1,-4.872407035E0,-5.028770937E0,1.010752329E0,7.074638346E0
1.111610850E1,-7.759833460E0,-9.374925056E0,3.340721586E0,1.262001014E1
1.112609850E1,-9.763646783E0,-1.233017334E1,5.827605845E0,1.677268502E1
1.113608850E1,-1.252668305E1,-1.351191667E1,7.678122130E0,1.996104305E1
1.114607850E1,-1.622411257E1,-1.332409241E1,8.219350351E0,2.254575320E1
1.115606750E1,-1.987448252E1,-1.262358896E1,7.224586941E0,2.462812843E1
1.116605750E1,-2.249476720E1,-1.129830817E1,6.075898502E0,2.589561472E1
1.117604750E1,-2.318983274E1,-9.971027641E0,5.305517315E0,2.579415145E1
1.118603750E1,-2.356096020E1,-9.795366758E0,5.584129540E0,2.611992646E1
1.119602650E1,-2.442442789E1,-1.108878139E1,6.817250603E0,2.767650007E1
1.120601650E1,-2.480583475E1,-1.215563512E1,7.579652680E0,2.864507004E1
1.121600650E1,-2.395218570E1,-1.207883428E1,7.410300942E0,2.783016345E1
1.122599650E1,-2.218543780E1,-1.156211583E1,6.428594949E0,2.583027305E1
1.123598550E1,-1.966433593E1,-1.097629616E1,5.148162310E0,2.310127183E1
1.124597550E1,-1.662581862E1,-1.005860490E1,4.142093893E0,1.986832452E1
1.125596550E1,-1.376985840E1,-9.202849685E0,3.667331557E0,1.696321796E1
1.126595550E1,-1.129430400E1,-8.507747891E0,3.525671356E0,1.457303796E1
1.127594550E1,-8.568078293E0,-7.316256080E0,3.039986129E0,1.166966513E1
1.128593450E1,-5.388468255E0,-5.824118566E0,2.116559334E0,8.211928557E0
1.129592450E1,-2.005158767E0,-4.319939004E0,8.517443159E-1,4.838181792E0
1.130591450E1,1.297211809E0,-2.849518049E0,-5.821023050E-1,3.184549369E0
1.131590450E1,4.159071284E0,-1.670537817E0,-1.946453598E0,4.886435527E0
1.132589350E1,6.533375884E0,-1.050512811E0,-3.350641095E0,7.417234886E0
1.133588350E1,8.528942878E0,-1.072782662E0,-4.720125367E0,9.806799312E0
1.134587350E1,1.036299457E1,-1.632622717E0,-5.872598416E0,1.202266716E1
1.135586350E1,1.239299816E1,-2.131680380E0,-6.722081906E0,1.425892176E1
1.136585350E1,1.409254518E1,-2.214985223E0,-7.246761922E0,1.600067335E1
1.137584250E1,1.529747390E1,-2.114267226E0,-7.842866846E0,1.732031737E1
1.138583250E1,1.586346917E1,-1.989381225E0,-8.221889797E0,1.797795215E1
1.139582250E1,1.585534972E1,-1.790091597E0,-8.173193600E0,1.792756638E1
1.140581250E1,1.538436586E1,-1.484825717E0,-7.736571482E0,1.728403768E1
1.141580133E1,1.476689521E1,-1.049263261E0,-7.043949493E0,1.639449212E1
1.142579133E1,1.402670787E1,-5.686705197E-1,-6.197627592E0,1.534543931E1
1.143578133E1,1.317017732E1,1.614825547E-2,-5.326012976E0,1.420634526E1
1.144577133E1,1.216712723E1,5.990346721E-1,-4.568810243E0,1.301045175E1
1.145576033E1,1.122611728E1,1.207690207E0,-3.997929330E0,1.197779878E1
1.146575033E1,1.044955441E1,1.774365949E0,-3.572854586E0,1.118511743E1
1.147574033E1,9.772067943E0,2.308971906E0,-3.252903716E0,1.055490624E1
1.148573033E1,9.201187322E0,2.712294715E0,-3.131538616E0,1.009083370E1
1.149572033E1,8.873452054E0,2.864076154E0,-3.196570763E0,9.856934017E0
1.150570933E1,8.691582012E0,2.898544906E0,-3.305790612E0,9.740298354E0
1.151569933E1,8.588799655E0,2.791447596E0,-3.495032238E0,9.683744604E0
1.152568933E1,8.605532632E0,2.699116260E0,-3.609125157E0,9.714226931E0
1.153567933E1,8.666826071E0,2.696982027E0,-3.586183898E0,9.759523612E0
1.154566833E1,8.798628159E0,2.727647164E0,-3.436002842E0,9.831685108E0
1.155565833E1,8.938000052E0,2.855225809E0,-3.183025396E0,9.908168853E0
1.156564833E1,9.011260986E0,3.136660484E0,-2.863295551E0,9.961923758E0
1.157563833E1,8.968783303E0,3.495249170E0,-2.487716318E0,9.942060812E0
1.158562733E1,8.941003182E0,3.966822435E0,-2.155587745E0,1.001617575E1
1.159561733E1,9.014380476E0,4.423154055E0,-1.911675822E0,1.022144078E1
1.160560733E1,9.059883508E0,4.714976601E0,-1.767133235E0,1.036509785E1
1.161559733E1,9.031588247E0,4.739394866E0,-1.635255718E0,1.032983597E1
1.162558733E1,8.941368048E0,4.682850244E0,-1.572509539E0,1.021518161E1
1.163557633E1,8.730699885E0,4.527659586E0,-1.656034676E0,9.973328063E0
1.164556633E1,8.479273120E0,4.301704754E0,-1.867753876E0,9.689749273E0
1.165555633E1,8.208964527E0,3.921539550E0,-2.118877463E0,9.341049874E0
1.166554633E1,7.954898329E0,3.314392743E0,-2.388629402E0,8.942659397E0
1.167553533E1,7.806817592E0,2.879935850E0,-2.689557817E0,8.744950124E0
1.168552533E1,7.660862904E0,2.596923595E0,-3.017762032E0,8.633638877E0
1.169551533E1,7.363565317E0,2.169309406E0,-3.340164639E0,8.371660366E0
1.170550533E1,7.058925966E0,1.461369465E0,-3.622879562E0,8.067793554E0
1.171549433E1,6.858452423E0,6.542370656E-1,-3.852281620E0,7.893444714E0
1.172548433E1,6.099125982E0,-8.014550453E-1,-4.188831857E0,7.442310143E0
1.173547433E1,4.783410659E0,-3.658630023E0,-4.517317908E0,7.528130728E0
1.174546433E1,3.652136983E0,-7.826344954E0,-4.553492292E0,9.763404730E0
1.175545433E1,2.097469345E0,-1.234463233E1,-3.419059658E0,1.297995739E1
1.176544333E1,2.508204085E-1,-1.607469282E1,-7.736243454E-1,1.609525255E1
1.177543333E1,-4.135886489E0,-1.998943878E1,1.710850276E0,2.048438987E1
1.178542333E1,-1.140856795E1,-2.448988162E1,3.756947154E0,2.727681023E1
1.179541333E1,-1.822458888E1,-2.712100471E1,5.696659205E0,3.316830509E1
1.180540233E1,-2.238762048E1,-2.622987968E1,9.452801782E0,3.575706365E1
1.181539233E1,-2.320414673E1,-1.924112732E1,1.500925762E1,3.367389524E1
1.182538233E1,-2.353639488E1,-1.097543311E1,1.851995162E1,3.189687483E1
1.183537233E1,-2.439220038E1,-5.835121272E0,1.828263536E1,3.103679808E1
1.184536233E1,-2.411749351E1,-4.959872026E0,1.470868384E1,2.868099029E1
1.185535133E1,-2.111270528E1,-6.625977069E0,8.357717693E0,2.365378070E1
1.186534133E1,-1.649487373E1,-7.822691613E0,2.109932685E0,1.837735507E1
1.187533133E1,-1.337312248E1,-7.597434647E0,-2.282401573E0,1.554897987E1
1.188532133E1,-1.164426921E1,-6.139777579E0,-3.035678777E0,1.350930123E1
1.189531033E1,-1.097298780E1,-3.406808279E0,-2.644660556E0,1.179012440E1
1.190530033E1,-1.042339397E1,4.739431411E-1,-2.590756245E0,1.075098981E1
1.191529033E1,-9.117832924E0,4.255797095E0,-2.608339992E0,1.039471614E1
1.192528033E1,-7.534367164E0,7.190761968E0,-2.422033668E0,1.069298804E1
1.193526933E1,-6.141294347E0,9.482466461E0,-2.027248670E0,1.147790937E1
1.194525933E1,-4.918851469E0,1.099854715E1,-2.160951688E0,1.224062300E1
1.195524933E1,-3.323188418E0,1.122648799E1,-2.669163898E0,1.200841579E1
1.196523933E1,-1.510483153E0,1.042966686E1,-3.354580072E0,1.105950802E1
1.197522933E1,2.324537194E-1,9.618562160E0,-3.836576875E0,1.035809321E1
1.198521833E1,1.627456702E0,9.094349336E0,-3.854706752E0,1.001072272E1
1.199520833E1,2.655051643E0,8.839955694E0,-3.416261765E0,9.841999815E0
1.200519833E1,3.443329403E0,9.025818799E0,-2.696134473E0,1.002950963E1
1.201518833E1,4.196206366E0,9.714197465E0,-1.932469982E0,1.075677556E1
1.202517733E1,4.877348517E0,1.048096683E1,-1.302459685E0,1.163338280E1
1.203516733E1,5.455734040E0,1.107096141E1,-8.627636862E-1,1.237237171E1
1.204515733E1,5.875784563E0,1.125443768E1,-6.133200046E-1,1.271075817E1
1.205514733E1,6.120653091E0,1.097482266E1,-6.279462299E-1,1.258186962E1
1.206513633E1,6.264907410E0,1.033029227E1,-7.618495148E-1,1.210555318E1
1.207512633E1,6.319313412E0,9.408162968E0,-9.301066536E-1,1.137155886E1
1.208511633E1,6.244433384E0,8.200063895E0,-1.026398893E0,1.035796751E1
1.209510633E1,6.275642897E0,6.967341612E0,-1.166248797E0,9.449215797E0
1.210509633E1,6.201341159E0,5.891895981E0,-1.294135881E0,8.651350074E0
1.211508533E1,5.714393225E0,5.154075015E0,-1.368601050E0,7.816127431E0
1.212507533E1,4.737940371E0,4.650807502E0,-1.612056013E0,6.832043177E0
1.213506533E1,3.284030199E0,4.560977898E0,-1.776359557E0,5.894304625E0
1.214505533E1,1.949845276E0,4.477970824E0,-2.065450869E0,5.302848913E0
1.215504433E1,3.445869434E-1,4.143004889E0,-2.289163586E0,4.745892919E0
1.216503433E1,-1.045182196E0,3.468775901E0,-2.303122644E0,4.292922779E0
1.217502433E1,-1.552964344E0,2.558262098E0,-2.526561126E0,3.916620270E0
1.218501433E1,-2.637925149E0,1.036952825E0,-2.089190564E0,3.521169900E0
1.219500333E1,-4.544061318E0,-1.158606486E0,-6.864967391E-1,4.739424018E0
1.220499333E1,-7.463671403E0,-4.266343718E0,8.712257767E-1,8.641013475E0
1.221498333E1,-1.105063532E1,-7.831804499E0,2.443526863E0,1.376315829E1
1.222497333E1,-1.450032065E1,-1.122504490E1,4.113242562E0,1.879307575E1
1.223496233E1,-1.711668068E1,-1.452148640E1,5.578902714E0,2.312960182E1
1.224495233E1,-1.913493370E1,-1.682491514E1,6.995725751E0,2.642278630E1
1.225494233E1,-2.060345723E1,-1.784938709E1,8.663296691E0,2.860342250E1
1.226493233E1,-2.089025381E1,-1.781294256E1,1.036539895E1,2.934527427E1
1.227492233E1,-2.021377539E1,-1.687000185E1,1.114363528E1,2.858975840E1
1.228491133E1,-1.929864638E1,-1.613615173E1,1.100678705E1,2.745837770E1
1.229490133E1,-1.806251459E1,-1.620613004E1,1.005191685E1,2.626659697E1
1.230489133E1,-1.657307907E1,-1.634651116E1,8.701956142E0,2.485154759E1
1.231488133E1,-1.487862381E1,-1.586846620E1,7.289240774E0,2.294154957E1
1.232487033E1,-1.298505447E1,-1.420692608E1,6.082974218E0,2.018541462E1
1.233486033E1,-1.091731413E1,-1.173076941E1,5.264789704E0,1.686762311E1
1.234485033E1,-8.580167411E0,-9.044904696E0,4.331289327E0,1.319809232E1
1.235484033E1,-5.997563939E0,-6.284371621E0,3.028264800E0,9.199700407E0
1.236482933E1,-3.472284815E0,-3.646430100E0,1.614601598E0,5.287736060E0
1.237481933E1,-1.044019185E0,-1.208468032E0,2.088072869E-1,1.610581115E0
1.238480933E1,1.087719521E0,9.800588322E-1,-1.060057513E0,1.807587066E0
1.239479933E1,2.728803744E0,2.648620291E0,-2.150580774E0,4.368816428E0
1.240478833E1,4.168216329E0,3.756754196E0,-3.430728361E0,6.577015018E0
1.241477833E1,5.454278083E0,4.432726824E0,-4.582156513E0,8.390135565E0
1.242476837E1,6.714085838E0,4.873129751E0,-5.439002817E0,9.920135778E0
1.243475837E1,7.874272242E0,5.272195203E0,-6.336338750E0,1.139953483E1
1.244474838E1,8.694521992E0,5.326374918E0,-7.150078796E0,1.245345772E1
1.245473737E1,9.157605684E0,5.212459463E0,-7.835903397E0,1.313136922E1
1.246472737E1,9.404036003E0,5.051985553E0,-8.179191089E0,1.344833142E1
1.247471738E1,9.617595615E0,4.996479104E0,-8.407556435E0,1.371677637E1
1.248470737E1,9.862403916E0,5.010697778E0,-8.713902588E0,1.408212347E1
1.249469638E1,9.937600279E0,4.959553353E0,-8.832463657E0,1.419033062E1
1.250468637E1,9.758134612E0,4.764773536E0,-8.507655505E0,1.379508826E1
1.251467637E1,9.406745018E0,4.471856683E0,-7.971286905E0,1.311585944E1
1.252466638E1,8.982258212E0,4.223447374E0,-7.236374928E0,1.228346826E1
1.253465537E1,8.680746537E0,4.201038505E0,-6.437807238E0,1.159523380E1
1.254464538E1,8.490460598E0,4.278948268E0,-5.837495826E0,1.115677718E1
1.255463537E1,8.391980622E0,4.442241121E0,-5.515602511E0,1.098092510E1
1.256462537E1,8.366168674E0,4.638094194E0,-5.363470824E0,1.096683707E1
1.257461438E1,8.362695428E0,4.654576325E0,-5.342969901E0,1.096116248E1
1.258460437E1,8.418044586E0,4.386198482E0,-5.399844598E0,1.092064712E1
1.259459438E1,8.554895745E0,4.096924737E0,-5.514854652E0,1.097199414E1
1.260458437E1,8.712227946E0,3.657556182E0,-5.654205496E0,1.101138832E1
1.261457437E1,8.910650870E0,3.126473757E0,-5.787535461E0,1.107565365E1
1.262456338E1,9.097413277E0,2.806975462E0,-5.922192160E0,1.121224329E1
1.263455337E1,9.173555719E0,2.617566021E0,-5.964976237E0,1.125107630E1
1.264454337E1,9.221154978E0,2.533007096E0,-6.050380084E0,1.131604716E1
1.265453338E1,9.257284924E0,2.575332752E0,-6.013941405E0,1.133565852E1
1.266452237E1,9.140455216E0,2.704432257E0,-5.734755569E0,1.112426613E1
1.267451238E1,8.963802645E0,2.840272724E0,-5.350721555E0,1.081883211E1
1.268450237E1,8.819899744E0,2.971045410E0,-4.975260143E0,1.055324385E1
1.269449237E1,8.732369850E0,3.094221101E0,-4.592368090E0,1.034013211E1
1.270448137E1,8.639289193E0,3.147406789E0,-4.232907000E0,1.012230156E1
1.271447137E1,8.541327866E0,3.112383722E0,-3.962272131E0,9.916693733E0
1.272446138E1,8.337669345E0,3.074449910E0,-3.760419230E0,9.649338067E0
1.273445137E1,8.047480803E0,2.793899041E0,-3.637936435E0,9.262958524E0
1.274444137E1,7.800475702E0,2.370172373E0,-3.613544775E0,8.917558191E0
1.275443038E1,7.461499747E0,2.173077351E0,-3.660610768E0,8.590478150E0
1.276442037E1,6.778420998E0,1.626142833E0,-3.862815671E0,7.969484089E0
1.277441038E1,5.925706336E0,4.979711044E-1,-4.173084136E0,7.264750651E0
1.278440037E1,4.610372252E0,-6.662592334E-1,-4.326787263E0,6.357713558E0
1.279438937E1,2.886148224E0,-2.200505763E0,-4.224937245E0,5.569755103E0
1.280437938E1,5.847969943E-1,-5.066832803E0,-4.209874817E0,6.613458109E0
1.281436937E1,-1.895510609E0,-1.031950766E1,-3.745857032E0,1.114076495E1
1.282435938E1,-5.462626737E0,-1.702970101E1,-1.789221385E0,1.797365629E1
1.283434837E1,-9.940297015E0,-2.454316379E1,8.655215254E-1,2.649387705E1
1.284433837E1,-1.455292805E1,-2.880088871E1,3.117647970E0,3.241910909E1
1.285432838E1,-1.968070112E1,-2.817502380E1,7.521707357E0,3.518150145E1
1.286431837E1,-2.164026446E1,-2.098460682E1,1.407650393E1,3.326864488E1
1.287430738E1,-2.173117463E1,-1.018777223E1,1.881275680E1,3.049515490E1
1.288429737E1,-2.218986765E1,-2.954985740E0,1.938177274E1,2.961039145E1
1.289428737E1,-2.186002388E1,-7.564519501E-1,1.587436253E1,2.702643612E1
1.290427738E1,-1.995537524E1,-2.436248834E0,1.022257954E1,2.255334657E1
1.291426737E1,-1.659625510E1,-5.810279961E0,4.897273489E0,1.825317299E1
1.292425638E1,-1.279637652E1,-8.367386649E0,1.025119815E0,1.532355318E1
1.293424637E1,-9.255768156E0,-8.428370769E0,-1.527839735E0,1.261114476E1
1.294423637E1,-7.028346198E0,-5.756832901E0,-2.993241733E0,9.565472879E0
1.295422638E1,-6.666557330E0,-2.068624445E0,-3.578724021E0,7.844071606E0
1.296421537E1,-6.193915195E0,1.478719908E0,-3.233589193E0,7.141939308E0
1.297420537E1,-5.598073395E0,4.362891773E0,-2.940861498E0,7.682572271E0
1.298419538E1,-5.225484720E0,6.550195400E0,-3.108659338E0,8.937254233E0
1.299418537E1,-4.402790834E0,8.040024433E0,-3.147315865E0,9.691860356E0
1.300417438E1,-3.029953476E0,8.953176500E0,-3.246182342E0,9.993882494E0
1.301416437E1,-1.533126495E0,9.252410685E0,-3.564612935E0,1.003314735E1
1.302415437E1,-1.281113255E-1,9.200772754E0,-3.702308724E0,9.918554414E0
1.303414438E1,9.714353585E-1,9.113606556E0,-3.612753646E0,9.851573480E0
1.304413337E1,1.758070051E0,8.964910108E0,-3.423365255E0,9.756016257E0
1.305412338E1,2.304630348E0,8.622841560E0,-3.270532779E0,9.505845689E0
1.306411337E1,2.701669739E0,8.218231779E0,-3.126225835E0,9.198458617E0
1.307410337E1,2.873372058E0,7.909539138E0,-2.935664200E0,8.912642742E0
1.308409238E1,2.797534840E0,7.911912523E0,-2.720555369E0,8.821903563E0
1.309408237E1,2.670856667E0,8.068953533E0,-2.587649619E0,8.884673151E0
1.310407238E1,2.570427230E0,8.223244012E0,-2.440305632E0,8.954547995E0
1.311406237E1,2.434096473E0,8.371248735E0,-2.229091923E0,8.998415517E0
1.312405237E1,2.319377026E0,8.489689935E0,-1.974393057E0,9.019566116E0
1.313404138E1,2.306845858E0,8.592706765E0,-1.608426354E0,9.041193654E0
1.314403137E1,2.380267591E0,8.607141201E0,-1.215610114E0,9.012561313E0
1.315402138E1,2.512632181E0,8.317366058E0,-1.054800866E0,8.752399870E0
1.316401137E1,2.666665383E0,7.763631812E0,-8.702861291E-1,8.254845917E0
1.317400037E1,3.022920445E0,7.344273598E0,-6.579705128E-1,7.969273988E0
1.318399038E1,3.284669884E0,7.019370722E0,-5.876007342E-1,7.772123018E0
1.319398037E1,3.338834397E0,6.602125692E0,-7.365731710E-1,7.434945784E0
1.320397037E1,3.223646003E0,6.137631651E0,-1.006887027E0,7.005443407E0
1.321395937E1,3.005878735E0,5.565412602E0,-1.274050988E0,6.452312014E0
1.322394937E1,2.528042518E0,4.771119227E0,-1.523559281E0,5.610330697E0
1.323393938E1,1.858729284E0,3.514051477E0,-1.834746636E0,4.378324743E0
1.324392937E1,1.250951563E0,1.948346050E0,-2.068034754E0,3.104464508E0
1.325391837E1,2.569167155E-1,3.129733872E-1,-1.600573543E0,1.650997943E0
1.326390838E1,-1.266453116E0,-1.583433600E0,-3.278367171E-1,2.053933391E0
1.327389837E1,-2.903554800E0,-3.999594324E0,9.366666448E-1,5.030380665E0
1.328388838E1,-4.994330252E0,-6.488575103E0,2.155249776E0,8.466997291E0
1.329387737E1,-7.211389191E0,-8.748440922E0,3.089306223E0,1.175087935E1
1.330386737E1,-9.774738366E0,-1.097140204E1,3.650790369E0,1.514085345E1
1.331385738E1,-1.327885601E1,-1.373896171E1,4.129985479E0,1.954850035E1
1.332384737E1,-1.658440279E1,-1.644823985E1,5.473905432E0,2.399063673E1
1.333383738E1,-1.909605439E1,-1.834125604E1,7.336122580E0,2.747507345E1
1.334382637E1,-2.027106407E1,-1.849873208E1,9.064962400E0,2.890143025E1
1.335381637E1,-2.044085084E1,-1.682835448E1,9.697743984E0,2.819695260E1
1.336380638E1,-2.016033886E1,-1.504155998E1,9.752534734E0,2.697776350E1
1.337379637E1,-1.895335660E1,-1.425782960E1,9.278479911E0,2.546773686E1
1.338378538E1,-1.703850808E1,-1.473106815E1,8.437901731E0,2.405230368E1
1.339377537E1,-1.495335122E1,-1.599447837E1,7.355106735E0,2.309813080E1
1.340376537E1,-1.273924103E1,-1.641459614E1,5.905313002E0,2.160092475E1
1.341375538E1,-1.027602309E1,-1.555271071E1,4.222403061E0,1.911314073E1
1.342374446E1,-7.727700087E0,-1.348456339E1,3.123551904E0,1.585267722E1
1.343373446E1,-5.277217376E0,-1.031664019E1,2.713491348E0,1.190147568E1
1.344372446E1,-2.949340253E0,-6.868190376E0,2.554307041E0,7.899058895E0
1.345371446E1,-7.248477495E-1,-3.533449615E0,2.162257371E0,4.205475880E0
1.346370346E1,1.488171347E0,-3.189890027E-1,1.355452416E0,2.038052795E0
1.347369346E1,3.414685648E0,2.586196001E0,1.476167598E-1,4.286056292E0
1.348368346E1,5.363175539E0,4.753169444E0,-1.461967928E0,7.313933405E0
1.349367346E1,7.151901373E0,6.130053075E0,-3.360077624E0,1.000086824E1
1.350366346E1,8.493199434E0,6.827475629E0,-4.839401842E0,1.192345043E1
1.351365246E1,9.450490378E0,7.226148732E0,-5.690302112E0,1.318743842E1
1.352364246E1,9.980640464E0,7.394421659E0,-6.330525448E0,1.394152819E1
1.353363246E1,9.811986884E0,7.266530188E0,-6.788277065E0,1.396990526E1
1.354362246E1,9.602896299E0,6.614032962E0,-6.306029708E0,1.325620836E1
1.355361146E1,9.566757583E0,6.197840431E0,-5.624027431E0,1.271085210E1
1.356360146E1,9.429532787E0,6.315232056E0,-5.249106302E0,1.250405380E1
1.357359146E1,9.111678729E0,6.408928424E0,-5.190149412E0,1.228961772E1
1.358358146E1,8.817258557E0,6.160733415E0,-5.278037741E0,1.198150104E1
1.359357046E1,8.663425915E0,5.904645835E0,-5.465452697E0,1.182332289E1
1.360356046E1,8.505813632E0,5.566501939E0,-5.746794401E0,1.167734796E1
1.361355046E1,8.382077778E0,5.017705666E0,-6.215510716E0,1.157882427E1
1.362354046E1,8.331177766E0,4.461794502E0,-6.560127481E0,1.150440810E1
1.363352946E1,8.219740945E0,4.044544795E0,-6.527281916E0,1.124846181E1
1.364351946E1,7.919222712E0,3.717350394E0,-6.131599079E0,1.068313108E1
1.365350946E1,7.405327885E0,3.400761089E0,-5.508264256E0,9.835905255E0
1.366349946E1,6.860596012E0,3.337063276E0,-4.766172482E0,8.995563856E0
1.367348846E1,6.439247407E0,3.724984519E0,-4.041832856E0,8.466157905E0
1.368347846E1,6.084040750E0,4.232633350E0,-3.426008781E0,8.165064182E0
1.369346846E1,5.787447753E0,4.705980660E0,-3.027353219E0,8.050197077E0
1.370345846E1,5.566135903E0,5.111803738E0,-2.886231839E0,8.089668756E0
1.371344846E1,5.366311401E0,5.585864993E0,-2.807046506E0,8.238852824E0
1.372343746E1,5.214455118E0,6.144010379E0,-2.798703991E0,8.530659396E0
1.373342746E1,5.191701263E0,6.515088717E0,-3.115840888E0,8.894301964E0
1.374341746E1,5.061264499E0,6.690578277E0,-3.728454257E0,9.180501466E0
1.375340746E1,5.232396129E0,6.734721832E0,-4.005949663E0,9.422424322E0
1.376339646E1,5.553441013E0,6.464736589E0,-4.088469079E0,9.452465586E0
1.377338646E1,5.784896028E0,6.062804248E0,-4.122195818E0,9.338903349E0
1.378337646E1,6.071260491E0,5.708762357E0,-4.189620647E0,9.327544841E0
1.379336646E1,6.429416483E0,5.429757199E0,-4.344020469E0,9.470489607E0
1.380335546E1,6.635234966E0,5.284404189E0,-4.473272586E0,9.589652669E0
1.381334546E1,6.741330355E0,5.255874454E0,-4.249572441E0,9.546131005E0
1.382333546E1,6.710483953E0,5.343071643E0,-3.958486936E0,9.447149215E0
1.383332546E1,6.574470701E0,5.547590874E0,-3.752366445E0,9.385077700E0
1.384331446E1,6.465565140E0,5.783661681E0,-3.606715519E0,9.394821544E0
1.385330446E1,6.330693848E0,5.877421784E0,-3.406530536E0,9.285807543E0
1.386329446E1,6.031198293E0,5.856843093E0,-3.043692386E0,8.941030545E0
1.387328446E1,5.322121069E0,5.238926300E0,-2.631027773E0,7.917930827E0
1.388327346E1,4.452551224E0,4.207174865E0,-2.678956523E0,6.685980915E0
1.389326346E1,3.388794762E0,3.024827807E0,-3.119327583E0,5.510328281E0
1.390325346E1,1.534808155E0,9.409424213E-1,-2.789491118E0,3.319980333E0
1.391324346E1,-2.674130523E-1,-2.636530880E0,-2.049220168E0,3.349941510E0
1.392323246E1,-1.405670643E0,-6.715851113E0,-1.774515053E0,7.087134103E0
1.393322246E1,-2.313405265E0,-1.160727973E1,-2.012371892E0,1.200543324E1
1.394321246E1,-4.607869644E0,-1.852387277E1,-1.996858059E0,1.919254457E1
1.395320246E1,-8.169225680E0,-2.598387563E1,-8.869729131E-1,2.725224324E1
1.396319146E1,-1.315095167E1,-3.053116168E1,1.689093664E0,3.328591896E1
1.397318146E1,-1.776440132E1,-2.752688099E1,7.552542649E0,3.362058940E1
1.398317146E1,-2.101004688E1,-1.776840549E1,1.373520663E1,3.075376733E1
1.399316146E1,-2.212973255E1,-8.808360849E0,1.731071702E1,2.944440876E1
1.400315146E1,-2.154772409E1,-4.984097625E0,1.737932123E1,2.812803671E1
1.401314046E1,-1.950146524E1,-6.054130488E0,1.449595278E1,2.504181083E1
1.402313046E1,-1.606128398E1,-9.207077807E0,1.038697050E1,2.122791278E1
1.403312046E1,-1.214721630E1,-1.238525645E1,7.179805455E0,1.877495799E1
1.404311046E1,-8.826277303E0,-1.329989897E1,5.205656812E0,1.678956064E1
1.405309946E1,-6.785545830E0,-1.077088932E1,2.966650935E0,1.307121673E1
1.406308946E1,-5.943288914E0,-6.933824202E0,1.829642163E0,9.313870926E0
1.407307946E1,-5.935543692E0,-3.382355808E0,5.041643290E-1,6.850196450E0
1.408306946E1,-5.423729305E0,-7.556999981E-2,-1.338997328E0,5.587080117E0
1.409305846E1,-4.411095634E0,2.469559252E0,-2.935061352E0,5.845602854E0
1.410304846E1,-3.065594594E0,4.444742852E0,-4.141339018E0,6.804726159E0
1.411303846E1,-1.738112335E0,5.655907620E0,-4.701985842E0,7.557711053E0
1.412302846E1,-1.927762681E-1,6.123375555E0,-4.910126839E0,7.851256998E0
1.413301746E1,1.287426494E0,6.187959221E0,-5.441006657E0,8.339835714E0
1.414300746E1,2.383258442E0,6.320243120E0,-6.007946255E0,9.039956421E0
1.415299746E1,3.418726074E0,6.668747697E0,-5.860791718E0,9.513609377E0
1.416298746E1,4.516250206E0,6.948237589E0,-5.217399191E0,9.792638860E0
1.417297646E1,5.948339739E0,7.350183379E0,-4.252749818E0,1.036792276E1
1.418296646E1,7.441406375E0,8.257176574E0,-3.499064478E0,1.165328048E1
1.419295646E1,8.930515031E0,9.325044798E0,-2.872768917E0,1.322737164E1
1.420294646E1,1.031604143E1,1.027178736E1,-2.568561968E0,1.478268707E1
1.421293546E1,1.139832830E1,1.103899117E1,-2.414239914E0,1.605022644E1
1.422292546E1,1.194275554E1,1.127236758E1,-2.443258768E0,1.660316820E1
1.423291546E1,1.153922749E1,1.077570976E1,-2.561582147E0,1.599473023E1
1.424290546E1,1.033226044E1,1.009530436E1,-2.550858646E0,1.466893506E1
1.425289446E1,8.318375872E0,9.974236593E0,-2.228594910E0,1.317753422E1
1.426288446E1,6.020476838E0,1.067418807E1,-2.192581324E0,1.244957209E1
1.427287446E1,4.199735745E0,1.185896026E1,-2.864436635E0,1.290262438E1
1.428286446E1,2.965669187E0,1.243626639E1,-3.274048417E0,1.319754933E1
1.429285346E1,2.740313403E0,1.287411525E1,-2.936909657E0,1.348620033E1
1.430284346E1,2.211385385E0,1.295707905E1,-2.380481745E0,1.335824900E1
1.431283346E1,2.017129771E0,1.178963801E1,-2.156338235E0,1.215377190E1
1.432282346E1,1.980493457E0,9.915184393E0,-1.487876063E0,1.021993205E1
1.433281346E1,6.086770231E-1,7.202578021E0,-6.138792908E-1,7.254272235E0
1.434280246E1,-1.403721181E0,3.557624343E0,7.238301878E-1,3.892435518E0
1.435279246E1,-3.815780084E0,3.945321053E-1,1.862794268E0,4.264485398E0
1.436278246E1,-7.616577262E0,-2.190186889E0,1.706374087E0,8.106841575E0
1.437277246E1,-1.165356979E1,-3.510406907E0,8.151498091E-1,1.219807832E1
1.438276146E1,-1.611643024E1,-3.901388583E0,-4.759278323E-1,1.658875113E1
1.439275146E1,-2.108101103E1,-4.673052065E0,-1.522002752E0,2.164631456E1
1.440274146E1,-2.687675014E1,-5.351282887E0,-1.492546819E0,2.744491979E1
1.441273146E1,-3.271688364E1,-6.592247406E0,-5.623077258E-2,3.337447172E1
1.442272000E1,-3.613140966E1,-9.712719873E0,1.173987002E0,3.743252512E1
1.443271000E1,-3.595551606E1,-1.317324945E1,1.535965319E0,3.832352835E1
1.444270000E1,-3.674568305E1,-1.951327896E1,8.740615301E-1,4.161462798E1
1.445269000E1,-3.638816090E1,-3.025458137E1,-4.486511560E-1,4.732482684E1
1.446267900E1,-2.992136726E1,-3.711079021E1,-8.021280599E-1,4.767748293E1
1.447266900E1,-2.326226337E1,-3.720794287E1,1.580107704E0,4.390968743E1
1.448265900E1,-1.987108880E1,-3.485363867E1,3.295341638E0,4.025537946E1
1.449264900E1,-1.683795794E1,-3.120144673E1,3.195389626E0,3.559856205E1
1.450263800E1,-1.367620238E1,-2.694882058E1,3.706785353E0,3.044696536E1
1.451262800E1,-1.141547819E1,-2.286632267E1,4.221314602E0,2.590369379E1
1.452261800E1,-9.649106260E0,-2.049954753E1,2.661539421E0,2.281272655E1
1.453260800E1,-7.885330496E0,-1.854484088E1,-8.820480958E-1,2.017095856E1
1.454259700E1,-5.724303086E0,-1.467433378E1,-3.551057043E0,1.614663197E1
1.455258700E1,-4.590958911E0,-1.090786736E1,-3.909643975E0,1.246369890E1
1.456257700E1,-3.427140217E0,-8.376377327E0,-2.393822899E0,9.361590424E0
1.457256700E1,-2.183281327E0,-6.929892535E0,7.350277519E-1,7.302766167E0
1.458255600E1,-1.429044303E0,-6.527086034E0,3.960796002E0,7.767427160E0
1.459254600E1,8.133301556E-1,-5.573486438E0,6.059505833E0,8.273020486E0
1.460253600E1,3.833448615E0,-3.037047903E0,6.620418706E0,8.230973945E0
1.461252600E1,6.467200606E0,-1.224456659E-1,6.541386570E0,9.199424703E0
1.462251600E1,9.325261729E0,4.022860980E0,7.215344832E0,1.245813460E1
1.463250500E1,1.218273228E1,9.640577511E0,7.451967031E0,1.723054013E1
1.464249500E1,1.349293193E1,1.379126389E1,6.594973962E0,2.038999395E1
1.465248500E1,1.246668828E1,1.533349625E1,5.294944380E0,2.045900437E1
1.466247400E1,1.197360779E1,1.584156550E1,4.731497909E0,2.041346500E1
1.467246400E1,1.193659257E1,1.575889639E1,4.835402931E0,2.035205590E1
1.468245400E1,1.150765954E1,1.498321763E1,4.959176792E0,1.953244668E1
1.469244400E1,1.145510711E1,1.406674376E1,4.749772797E0,1.875241586E1
1.470243400E1,1.108149108E1,1.368445397E1,4.633055940E0,1.820793597E1
1.471242300E1,1.017188652E1,1.353222288E1,3.876789347E0,1.736714792E1
1.472241300E1,1.105227371E1,1.409708496E1,1.322357760E0,1.796188154E1
1.473240300E1,1.360212517E1,1.463310858E1,-2.960730044E0,2.019682149E1
1.474239300E1,1.668494800E1,1.457086730E1,-5.881028931E0,2.291907863E1
1.475238200E1,1.849103831E1,1.266243669E1,-7.713959130E0,2.370149713E1
1.476237200E1,1.838693098E1,7.546500721E0,-9.409092675E0,2.198999611E1
1.477236200E1,1.779664403E1,1.086093118E0,-9.817204939E0,2.035381168E1
1.478235200E1,1.633406946E1,-3.968197115E0,-7.807671286E0,1.853397271E1
1.479234100E1,1.437149947E1,-6.952832916E0,-4.418560482E0,1.656519119E1
1.480233100E1,1.299526488E1,-8.108409374E0,-9.896397874E-1,1.534935174E1
1.481232100E1,1.171466501E1,-7.504812997E0,1.425336876E0,1.398524864E1
1.482231100E1,9.627080968E0,-5.702276625E0,2.561291248E0,1.147853909E1
1.483230000E1,6.862791642E0,-2.851832669E0,2.781154158E0,7.935091502E0
1.484229000E1,4.485169916E0,-6.891002119E-2,1.773484773E0,4.823561548E0
1.485228000E1,2.809438017E0,7.209365469E-1,-4.835936782E-1,2.940502393E0
1.486227000E1,2.568756680E0,9.409777969E-1,-2.473804623E0,3.688313898E0
1.487225900E1,2.857480495E0,1.593658626E0,-3.394270972E0,4.714447796E0
1.488224900E1,3.204482338E0,2.046605000E0,-3.476221453E0,5.151836049E0
1.489223900E1,3.529253068E0,2.262992910E0,-3.082660278E0,5.203802314E0
1.490222900E1,3.690345029E0,1.859658991E0,-2.456966688E0,4.807667137E0
1.491221800E1,4.162245153E0,1.179368194E0,-2.218257033E0,4.861672378E0
1.492220800E1,4.502929664E0,8.979510605E-1,-2.478509585E0,5.217825354E0
1.493219800E1,4.415813752E0,1.138034227E0,-2.986765064E0,5.451174052E0
1.494218800E1,4.557416359E0,1.776540821E0,-3.830559798E0,6.212835868E0
1.495217700E1,5.104288312E0,2.920653813E0,-4.775827990E0,7.575784504E0
1.496216700E1,5.641380798E0,4.121398843E0,-5.617180341E0,8.964587035E0
1.497215700E1,6.176229706E0,5.146912760E0,-6.262493679E0,1.019094458E1
1.498214700E1,6.704928514E0,6.016021260E0,-6.939786023E0,1.137142068E1
1.499213600E1,6.994510115E0,6.902109489E0,-7.201859983E0,1.218314715E1
1.500212600E1,6.671057932E0,8.135810596E0,-6.953017688E0,1.261106193E1
1.501211600E1,6.212323984E0,9.373042837E0,-6.697536464E0,1.308831143E1
1.502210600E1,5.645361582E0,1.029785191E1,-6.524549512E0,1.343449321E1
1.503209500E1,5.042348757E0,1.092788589E1,-6.254322195E0,1.356320453E1
1.504208500E1,4.592186826E0,1.117176975E1,-5.942973749E0,1.346163274E1
1.505207500E1,4.305260446E0,1.126699516E1,-5.537330180E0,1.327186773E1
1.506206500E1,4.043255484E0,1.096954964E1,-5.200222410E0,1.279536038E1
1.507205400E1,4.077427197E0,1.053930099E1,-4.668968662E0,1.222708249E1
1.508204400E1,4.153450356E0,1.042766244E1,-4.116000693E0,1.195528149E1
1.509203400E1,3.836154706E0,1.054961782E1,-3.705882250E0,1.182134012E1
1.510202400E1,3.115478945E0,1.099178777E1,-3.395336042E0,1.191863727E1
1.511201300E1,2.455752221E0,1.155015243E1,-3.404946233E0,1.228944258E1
1.512200300E1,2.005347047E0,1.155731410E1,-3.826367052E0,1.233831475E1
1.513199300E1,1.555407311E0,1.108312479E1,-4.193209668E0,1.195148335E1
1.514198300E1,1.334472606E0,9.998841677E0,-4.163373080E0,1.091289730E1
1.515197200E1,1.443643046E0,8.038681328E0,-3.675048128E0,8.956030453E0
1.516196200E1,2.185883923E0,5.633551961E0,-2.633519564E0,6.591693372E0
1.517195200E1,3.101506439E0,4.116043963E0,-1.983850343E0,5.522392804E0
1.518194200E1,2.713329087E0,3.404631945E0,-2.148662302E0,4.854938013E0
1.519193100E1,1.708686807E0,3.794485109E0,-1.965134868E0,4.602117218E0
1.520192100E1,3.214620826E-1,5.174792284E0,-1.846083511E0,5.503620389E0
1.521191100E1,-1.679203099E0,6.629582462E0,-1.929631159E0,7.105952651E0
1.522190100E1,-2.766810645E0,7.812792277E0,-2.500068853E0,8.657095852E0
1.523189000E1,-3.341935468E0,6.299065089E0,-4.199484315E0,8.275410696E0
1.524188000E1,-4.129076822E0,2.489333950E0,-5.291765249E0,7.158829399E0
1.525187000E1,-5.657535485E0,-3.367098668E0,-6.010949385E0,8.914963473E0
1.526186000E1,-6.449015765E0,-1.179615415E1,-7.308991499E0,1.530230093E1
1.527184900E1,-9.029805431E0,-2.207766192E1,-8.738907037E0,2.540332731E1
1.528183900E1,-1.135294806E1,-3.035772859E1,-6.823438711E0,3.312160067E1
1.529182900E1,-1.019161736E1,-3.568422396E1,2.635182804E0,3.720453054E1
1.530181900E1,-1.009154928E1,-3.881781700E1,1.842030688E1,4.413581300E1
1.531180800E1,-1.339369766E1,-3.629260102E1,3.029493651E1,4.913580369E1
1.532179800E1,-1.748306721E1,-3.222059069E1,2.782780444E1,4.602402420E1
1.533178800E1,-1.869991957E1,-2.951152890E1,1.873461227E1,3.964344872E1
1.534177800E1,-2.061948796E1,-2.730133284E1,1.450259755E1,3.715980886E1
1.535176700E1,-2.281366031E1,-2.356191213E1,1.379116682E1,3.557840753E1
1.536175700E1,-2.380932887E1,-1.832453768E1,1.204500346E1,3.236904278E1
1.537174700E1,-2.324965678E1,-1.249321476E1,8.678698257E0,2.778392986E1
1.538173700E1,-2.083402698E1,-6.995044550E0,5.274211907E0,2.260098758E1
1.539172600E1,-1.639711530E1,-3.179357437E0,3.473888707E0,1.705994158E1
1.540171600E1,-1.149111192E1,-1.114302717E0,2.817765037E0,1.188390187E1
1.541170600E1,-6.986925691E0,-2.066581428E-2,1.849905835E0,7.227704289E0
1.542169608E1,-3.347119902E0,9.238513023E-1,4.110018115E-1,3.496517604E0
1.543168608E1,-8.429591668E-1,2.354894183E0,-1.096024321E0,2.730819673E0
1.544167508E1,8.815361720E-1,4.354497510E0,-2.292812102E0,4.999574174E0
1.545166508E1,2.500175858E0,6.788520893E0,-3.070927840E0,7.859102559E0
1.546165508E1,3.274036138E0,8.887897015E0,-4.118512073E0,1.032841555E1
1.547164408E1,3.752507363E0,1.027715628E1,-5.019956260E0,1.203749199E1
1.548163408E1,5.052830476E0,1.123505065E1,-6.158279924E0,1.377250415E1
1.549162408E1,7.567118588E0,1.039977122E1,-6.086940969E0,1.422910312E1
1.550161408E1,9.932918998E0,9.284879104E0,-4.774863784E0,1.441080095E1
1.551160308E1,1.162473366E1,8.460071449E0,-2.834340139E0,1.465403445E1
1.552159308E1,1.270094060E1,8.008443621E0,-1.186339683E0,1.506175499E1
1.553158308E1,1.284806123E1,8.286001593E0,-1.465918599E0,1.535836635E1
1.554157308E1,1.252141822E1,9.299521701E0,-3.060998098E0,1.589455024E1
1.555156208E1,1.133354349E1,1.133679338E1,-4.385227552E0,1.661933551E1
1.556155208E1,1.042932188E1,1.268307853E1,-4.424401558E0,1.700607435E1
1.557154208E1,9.608613122E0,1.307398945E1,-3.119557378E0,1.652229659E1
1.558153208E1,8.667740575E0,1.234486505E1,-1.899277385E0,1.520304819E1
1.559152108E1,8.097130680E0,1.125084515E1,-1.262818487E0,1.391904280E1
1.560151108E1,5.841424570E0,1.133841305E1,-1.191561320E0,1.281021741E1
1.561150108E1,3.017705314E0,1.265336298E1,-1.394378500E0,1.308275320E1
1.562149108E1,4.657868600E-1,1.394463869E1,-1.644796620E0,1.404903063E1
1.563148008E1,-2.165199398E0,1.359492257E1,-1.684509155E0,1.386894298E1
1.564147008E1,-5.132544397E0,1.219079676E1,-1.585148004E0,1.332183290E1
1.565146008E1,-8.657571098E0,9.506693230E0,-5.787924886E-1,1.287112094E1
1.566145008E1,-1.234522173E1,4.197156538E0,-5.803688979E-1,1.305210522E1
1.567143908E1,-1.817133829E1,-4.403740422E0,-1.878316287E0,1.879144851E1
1.568142908E1,-2.565655317E1,-1.633405893E1,-4.577742450E0,3.075737193E1
1.569141908E1,-3.104382450E1,-2.604564327E1,-6.173287972E0,4.099029224E1
1.570140908E1,-3.249032976E1,-2.970289657E1,-3.962695470E0,4.419939534E1
1.571139808E1,-3.041340812E1,-2.989029282E1,3.583961957E0,4.279310437E1
1.572138808E1,-2.560008778E1,-3.250893092E1,1.226150597E1,4.315715019E1
1.573137808E1,-1.771401820E1,-3.503680153E1,9.949580054E0,4.050133387E1
1.574136808E1,-1.275181723E1,-3.634654743E1,-8.226377535E-1,3.852735503E1
1.575135808E1,-1.170881078E1,-3.061891436E1,-8.173009998E0,3.378479331E1
1.576134708E1,-1.558462130E1,-2.200467464E1,-1.237275510E1,2.966767931E1
1.577133708E1,-1.926881740E1,-1.564238127E1,-1.691760287E1,3.003625646E1
1.578132708E1,-2.213305377E1,-1.220936752E1,-1.837002902E1,3.124737893E1
1.579131708E1,-2.551126624E1,-9.048948630E0,-1.524560675E1,3.106664935E1
1.580130608E1,-2.756432890E1,-6.153448954E0,-1.206254627E1,3.071094568E1
1.581129608E1,-2.846856338E1,-4.024067261E0,-1.071145237E1,3.068203758E1
1.582128608E1,-2.839318108E1,-3.542392346E0,-7.572467036E0,2.959837043E1
1.583127608E1,-2.471020471E1,-4.692038851E0,-2.582508162E0,2.528396317E1
1.584126508E1,-2.043135497E1,-5.526932661E0,3.245920386E0,2.141315599E1
1.585125508E1,-1.723586097E1,-6.481954885E0,1.030978959E1,2.110408500E1
1.586124508E1,-1.128708503E1,-9.219868591E0,1.630403582E1,2.186837555E1
1.587123508E1,-4.211091038E0,-1.152171040E1,2.133731788E1,2.461227809E1
1.588122408E1,9.624400020E-1,-1.212106638E1,2.438837396E1,2.725140960E1
1.589121408E1,4.206807953E0,-1.215286938E1,2.340071842E1,2.670174321E1
1.590120408E1,4.730779871E0,-1.072039043E1,1.984735612E1,2.304831000E1
1.591119408E1,2.277748944E0,-7.796241149E0,1.489546729E1,1.696597955E1
1.592118308E1,2.171404463E0,-6.227054874E0,1.000755403E1,1.198508854E1
1.593117308E1,6.357229097E0,-5.618852060E0,5.132297645E0,9.915963866E0
1.594116308E1,1.575544888E1,-3.386515810E0,2.873568232E0,1.636948542E1
1.595115308E1,2.706906272E1,6.018216890E0,7.773230016E-1,2.774089620E1
1.596114208E1,3.579684601E1,2.203614435E1,-3.110242471E0,4.215067557E1
1.597113208E1,3.692181288E1,3.533856698E1,-8.189868690E0,5.176010560E1
1.598112208E1,3.225290240E1,4.063903756E1,-1.837819875E1,5.504125068E1
1.599111108E1,2.949883342E1,3.911075081E1,-2.492508287E1,5.496445904E1
1.600110108E1,3.025179342E1,3.347024826E1,-1.855173241E1,4.878109571E1
1.601109108E1,2.988277096E1,2.346737434E1,-1.444418972E0,3.802346650E1
1.602108108E1,3.001920521E1,8.188936059E0,1.862104297E1,3.626230269E1
1.603107008E1,2.900214754E1,-5.297637023E0,3.290724092E1,4.418230443E1
1.604106008E1,2.860332767E1,-1.257615985E1,3.586270905E1,4.756515585E1
1.605105008E1,2.737897918E1,-1.309885532E1,3.027423035E1,4.286860781E1
1.606104008E1,2.300385854E1,-9.552909037E0,2.408395622E1,3.464783581E1
1.607102908E1,1.470926856E1,-4.867166176E0,1.985485225E1,2.518465894E1
1.608101908E1,2.354656202E0,-2.124579960E-1,1.700563621E1,1.716919355E1
1.609100908E1,-5.634327301E0,-1.097618857E0,1.072044890E1,1.216052778E1
1.610099908E1,-6.574315165E0,-5.334316022E0,7.165951062E0,1.109177181E1
1.611098808E1,-6.500533243E0,-7.075697535E0,9.168243524E0,1.328078000E1
1.612097808E1,-5.744630932E0,-6.084724874E0,9.851529264E0,1.292583808E1
1.613096808E1,-5.162374552E0,-6.266889031E0,7.005787640E0,1.072404166E1
1.614095808E1,-3.588795265E0,-6.784306805E0,4.837997925E0,9.072623336E0
1.615094708E1,-2.204978006E0,-6.121388671E0,3.086972015E0,7.201577847E0
1.616093708E1,-2.049428036E0,-5.271820396E0,9.746008949E-1,5.739520230E0
1.617092708E1,-1.835398893E0,-4.283558505E0,-1.018756802E0,4.770264981E0
1.618091708E1,-9.286331552E-1,-3.055109075E0,-2.876943537E0,4.298005946E0
1.619090608E1,3.754462087E-1,-1.709601603E0,-3.532623403E0,3.942477090E0
1.620089608E1,1.853560345E0,-7.654967156E-1,-3.175656150E0,3.755857180E0
1.621088608E1,3.565383013E0,-3.809902462E-1,-2.434823282E0,4.334221270E0
1.622087608E1,5.184197531E0,2.601581195E-1,-1.881160957E0,5.521082578E0
1.623086508E1,6.100933356E0,4.791714290E-1,-1.949257046E0,6.422662696E0
1.624085508E1,7.349952999E0,5.117649785E-1,-2.157792730E0,7.677224885E0
1.625084508E1,7.726612505E0,1.271685497E0,-2.601302868E0,8.251333311E0
1.626083508E1,7.312622620E0,2.240681689E0,-3.359013723E0,8.353327313E0
1.627082408E1,6.987938429E0,3.686551940E0,-3.667681805E0,8.710559025E0
1.628081408E1,6.986048609E0,5.544494773E0,-3.789181684E0,9.690417705E0
1.629080408E1,7.320235110E0,7.019119876E0,-4.346255275E0,1.103375824E1
1.630079408E1,7.597497212E0,8.250325391E0,-4.470694549E0,1.207381227E1
1.631078308E1,7.423496354E0,9.097682834E0,-4.403072085E0,1.254046151E1
1.632077308E1,6.800765548E0,9.299924574E0,-4.681527019E0,1.243606467E1
1.633076308E1,6.871526213E0,9.497623029E0,-4.726075786E0,1.263956123E1
1.634075308E1,6.684749773E0,1.033938235E1,-4.218869589E0,1.301489790E1
1.635074208E1,6.600988408E0,1.074189415E1,-4.089674774E0,1.325468889E1
1.636073208E1,7.232571314E0,1.079800169E1,-3.921851499E0,1.357526602E1
1.637072208E1,7.879698458E0,1.101037724E1,-3.603631405E0,1.401086058E1
1.638071208E1,8.280032170E0,1.100714490E1,-3.305683023E0,1.416487599E1
1.639070108E1,8.371175644E0,1.114298507E1,-3.311723782E0,1.432516012E1
1.640069108E1,7.847814760E0,1.142298250E1,-3.059949692E0,1.419281572E1
1.641068108E1,7.230457546E0,1.096600974E1,-2.399321328E0,1.335251395E1
1.642067121E1,6.670688388E0,1.069652677E1,-1.766932237E0,1.272932905E1
1.643066021E1,5.821914166E0,1.018509304E1,-1.385611916E0,1.181315898E1
1.644065021E1,5.134926553E0,9.644160685E0,-1.174491616E0,1.098893701E1
1.645064021E1,4.424241344E0,9.125411500E0,-1.594457356E0,1.026593107E1
1.646063021E1,3.822969235E0,8.444827757E0,-2.298709458E0,9.550616462E0
1.647061921E1,3.461920626E0,8.150927988E0,-2.547145956E0,9.214687949E0
1.648060921E1,3.268073732E0,6.915829396E0,-2.975350422E0,8.207418126E0
1.649059921E1,3.998557613E0,6.177610234E0,-2.820068255E0,7.880616483E0
1.650058821E1,4.537391984E0,7.702880411E0,-1.715214784E0,9.102980522E0
1.651057821E1,4.157400150E0,9.460647576E0,-1.228039248E0,1.040653203E1
1.652056821E1,3.604480421E0,9.386891382E0,-2.612665762E0,1.038903419E1
1.653055821E1,4.183267062E0,8.012006330E0,-5.385758656E0,1.052132905E1
1.654054721E1,1.973822953E0,2.308091900E0,-9.660872612E0,1.012698005E1
1.655053721E1,-3.935943289E0,-1.373632579E1,-1.334416473E1,1.955108764E1
1.656052721E1,-7.455253751E0,-2.929196595E1,-1.128714467E1,3.226452715E1
1.657051721E1,-1.501304778E1,-3.378851455E1,-1.421126003E0,3.700101239E1
1.658050621E1,-2.658591197E1,-3.281505839E1,9.531548574E0,4.329537147E1
1.659049621E1,-3.747736386E1,-2.755029558E1,1.259608716E1,4.818955281E1
1.660048621E1,-4.250101088E1,-2.034972082E1,8.659492493E0,4.791068642E1
1.661047621E1,-4.144733794E1,-1.710458864E1,4.628192811E0,4.507625698E1
1.662046521E1,-3.856402445E1,-1.935598301E1,3.981193721E0,4.333229700E1
1.663045521E1,-3.436961084E1,-1.966800330E1,1.395715320E0,3.962383783E1
1.664044521E1,-3.166190794E1,-1.658164407E1,-2.702298900E0,3.584312701E1
1.665043521E1,-2.839149708E1,-1.515540176E1,-4.310706543E0,3.247068678E1
