"Time (s)","Linear Acceleration x (m/s^2)","Linear Acceleration y (m/s^2)","Linear Acceleration z (m/s^2)","Absolute acceleration (m/s^2)"
2.803541603E-3,4.215576437E-1,-3.985590827E-1,-3.463227478E0,3.511481846E0
1.280954166E-2,9.065759960E-1,-4.186629796E-1,-3.028900977E0,3.189263215E0
2.281654160E-2,8.268335693E-1,-2.795243901E-1,-1.939176446E0,2.126544833E0
3.282254166E-2,5.893809190E-1,-3.636833650E-1,-9.665564418E-1,1.189061316E0
4.282854171E-2,4.923704951E-1,-8.108257931E-1,-6.885301083E-1,1.172152243E0
5.283454165E-2,4.151040718E-2,-1.388599112E0,-7.162090731E-1,1.562973462E0
6.284054171E-2,-5.162246498E-1,-1.829694934E0,-1.018535265E0,2.156776653E0
7.284654165E-2,-1.010151235E0,-1.773209077E0,-1.362946208E0,2.454037146E0
8.285254170E-2,-1.295430601E0,-1.063580168E0,-7.173334926E-1,1.823159498E0
9.285854164E-2,-9.727020116E-1,-5.279719985E-1,1.019190738E0,1.504544248E0
1.028645417E-1,-1.260431653E-1,-5.798116583E-1,2.528898550E0,2.597575084E0
1.128715416E-1,5.399750897E-1,-1.480994767E0,3.330866396E0,3.685049464E0
1.228775417E-1,1.953993291E-3,-2.941654673E0,3.494166266E0,4.567552290E0
1.328835416E-1,-4.956414275E-1,-3.674814824E0,1.710125806E0,4.083436627E0
1.428895417E-1,-4.583902418E-1,-3.639714573E0,-4.073059326E-1,3.691008251E0
1.528955416E-1,3.105434306E-1,-2.942917086E0,-2.515876216E0,3.884177047E0
1.629015417E-1,1.581431221E0,-1.627866007E0,-3.570134461E0,4.230452991E0
1.729075416E-1,1.975630035E0,-1.097843975E0,-3.721770304E0,4.354302427E0
1.829135417E-1,1.813078902E0,-1.658513018E0,-3.962690207E0,4.662706748E0
1.929205416E-1,1.443357702E0,-2.457596141E0,-3.512904253E0,4.523666272E0
2.029265417E-1,3.773148327E-1,-3.348921429E0,-2.863597267E0,4.422423604E0
2.129325416E-1,-4.008204934E-1,-4.398760056E0,-1.865585144E0,4.794805004E0
2.229385417E-1,2.225266090E-1,-5.671036121E0,-1.842393333E-1,5.678389993E0
2.329445416E-1,1.371573482E0,-6.478296282E0,1.144652106E0,6.720101560E0
2.429505417E-1,1.867205700E0,-5.561510171E0,1.295252992E0,6.007872570E0
2.529565416E-1,2.109879037E0,-3.689218270E0,-4.786741233E-1,4.276803703E0
2.629625417E-1,2.233610651E0,-2.533697360E0,-3.407495912E0,4.797881537E0
2.729695416E-1,1.576779469E0,-3.346377013E0,-6.203640284E0,7.222854379E0
2.829755417E-1,-6.785144126E-1,-4.387218237E0,-5.041447701E0,6.717459385E0
2.929815416E-1,-1.443284027E0,-5.751785585E0,-3.723719766E0,7.002299272E0
3.029875417E-1,-1.218618506E0,-7.287815223E0,-1.949175770E0,7.641764715E0
3.129935417E-1,-1.223055374E0,-7.897706712E0,-5.141123432E-1,8.008367328E0
3.229995416E-1,-1.083772066E0,-7.219679373E0,8.653996110E-2,7.301083570E0
3.330055417E-1,-4.515336871E-1,-5.914541078E0,2.203341955E-1,5.935842484E0
3.430115416E-1,2.783964622E-1,-4.677716973E0,-5.432355702E-2,4.686308966E0
3.530185417E-1,4.029842556E-1,-4.086938570E0,-6.973623276E-1,4.165546471E0
3.630245416E-1,7.737035751E-2,-3.942171451E0,-1.268052329E0,4.141818276E0
3.730305417E-1,-4.584334016E-2,-3.698695730E0,-1.492117633E0,3.988592075E0
3.830365416E-1,2.278466982E-1,-3.612383810E0,-1.109153075E0,3.785690353E0
3.930425417E-1,6.498671490E-1,-3.840725767E0,-7.709150380E-1,3.970870399E0
4.030485416E-1,6.685326308E-1,-4.135190963E0,5.364528000E-2,4.189226419E0
4.130545417E-1,3.270137215E-1,-4.896483823E0,1.657918357E0,5.179882728E0
4.230605416E-1,3.143229246E-1,-5.561104374E0,3.962689623E0,6.835758173E0
4.330665417E-1,4.371068519E-1,-5.031710917E0,4.731301442E0,6.920577324E0
4.430735416E-1,8.442782986E-1,-4.056417566E0,3.819971952E0,5.635558094E0
4.530795417E-1,1.675284587E0,-3.148613655E0,2.811946473E0,4.541738583E0
4.630855416E-1,2.629728522E0,-2.521442473E0,2.400962641E0,4.363228833E0
4.730915417E-1,3.351552676E0,-2.027772288E0,2.168440509E0,4.477376468E0
4.830975416E-1,3.899387666E0,-1.881948285E0,2.139111460E0,4.829363453E0
4.931035417E-1,4.065152137E0,-2.433407379E0,2.755706783E0,5.480953680E0
5.031095416E-1,4.080814489E0,-2.869824844E0,3.806901087E0,6.275463123E0
5.131155417E-1,4.391391687E0,-2.795849673E0,5.469756247E0,7.551114470E0
5.231225416E-1,4.721348897E0,-2.277224741E0,7.016604404E0,8.758403124E0
5.331285417E-1,5.136259718E0,-1.885046724E0,7.301897072E0,9.124267965E0
5.431345416E-1,5.220033946E0,-1.930303004E0,6.369763189E0,8.458646888E0
5.531405417E-1,4.944881519E0,-2.437890732E0,5.356514391E0,7.686833606E0
5.631465417E-1,5.031524391E0,-2.374105795E0,5.017206314E0,7.491660378E0
5.731525416E-1,5.381967906E0,-1.848911224E0,4.934268238E0,7.532002011E0
5.831585417E-1,5.185504968E0,-2.086212285E0,4.701990520E0,7.304139807E0
5.931645416E-1,5.118567798E0,-2.496481002E0,4.921240057E0,7.526669741E0
6.031715417E-1,4.778894854E0,-2.281276569E0,5.817424673E0,7.866669476E0
6.131775416E-1,4.293522745E0,-1.986259396E0,7.007688569E0,8.455014077E0
6.231835417E-1,3.902503647E0,-1.301187331E0,8.446112391E0,9.394649419E0
6.331895416E-1,3.284220234E0,-3.135089922E-1,9.431873428E0,9.992228319E0
6.431955417E-1,3.016739354E0,5.994834459E-1,9.607429061E0,1.008775445E1
6.532013334E-1,2.866658869E0,1.124901381E0,9.143926123E0,9.648550209E0
6.632073333E-1,2.903467092E0,1.399828105E0,9.346680665E0,9.886863979E0
6.732133334E-1,3.346873149E0,1.551615391E0,1.175448689E1,1.231978215E1
6.832193333E-1,4.773670952E0,2.379755960E0,7.785287560E0,9.437259940E0
6.932263334E-1,4.265134806E0,2.720378491E0,6.945461916E0,8.592512745E0
7.032323333E-1,4.408489530E0,2.576273861E0,6.213728485E0,8.042536206E0
7.132383334E-1,4.051733946E0,2.159536369E0,5.631248742E0,7.265748943E0
7.232443333E-1,3.495285130E0,1.379987333E0,5.261123500E0,6.465354102E0
7.332503333E-1,2.933131771E0,1.025990465E0,5.017283497E0,5.901614365E0
7.432563333E-1,2.314949222E0,1.101339440E0,4.960922771E0,5.584146595E0
7.532623333E-1,1.790146414E0,1.473780180E0,5.143790932E0,5.642272357E0
7.632683333E-1,1.732790199E0,1.869522659E0,5.166507365E0,5.761117530E0
7.732753333E-1,1.917157586E0,2.056991994E0,4.957336088E0,5.699288584E0
7.832813333E-1,2.273187531E0,2.272356641E0,4.444625323E0,5.485041524E0
7.932873333E-1,3.056470892E0,2.410089560E0,3.269482034E0,5.083311792E0
8.032933333E-1,4.077716049E0,2.447246277E0,1.939285204E0,5.135913708E0
8.132993333E-1,4.270430629E0,2.737882715E0,6.820496392E-1,5.118375839E0
8.233053333E-1,4.308337836E0,3.329839041E0,-6.322290230E-1,5.481725685E0
8.333113333E-1,5.737435933E0,4.556699490E0,-2.651267910E0,7.791720147E0
8.433173334E-1,1.038678339E1,6.359022439E0,-5.834002699E0,1.350400026E1
8.533243333E-1,1.175907227E1,7.127458257E0,-5.898164781E0,1.496211181E1
8.633303334E-1,1.113406924E1,7.671988986E0,-3.088751907E0,1.386965397E1
8.733363333E-1,1.032799314E1,7.270077694E0,-1.456471252E0,1.271388141E1
8.833423334E-1,8.419042121E0,5.551084000E0,-5.287108526E0,1.138632164E1
8.933483333E-1,5.739021113E0,3.392890736E0,-6.300365510E0,9.172931726E0
9.033543334E-1,3.797958355E0,1.546344126E0,-5.506838120E0,6.865925568E0
9.133603333E-1,1.919233932E0,7.373309702E-1,-6.078504606E0,6.416800924E0
9.233663334E-1,5.383484674E-1,1.031924804E0,-6.500713338E0,6.604086748E0
9.333723333E-1,2.171989185E-1,1.278825240E0,-6.186039580E0,6.320573949E0
9.433793334E-1,-1.287910643E-1,1.826687127E0,-4.916861662E0,5.246799176E0
9.533853333E-1,-1.858753842E-1,2.412576381E0,-3.437440088E0,4.203697041E0
9.633913334E-1,-3.852554977E-2,2.889765896E0,-1.783939887E0,3.396273351E0
9.733973333E-1,-1.127229157E-1,3.427897432E0,-5.570882088E-1,3.474699200E0
9.834033333E-1,-2.694282952E-1,3.731850904E0,3.137826419E-1,3.754698699E0
9.934093333E-1,-6.644622378E-1,3.386425470E0,1.140604371E0,3.634606700E0
1.003415333E0,-1.263896713E0,2.628835652E0,1.863537449E0,3.461355748E0
1.013421333E0,-1.901158435E0,2.027074131E0,2.274801947E0,3.591400399E0
1.023428333E0,-2.456042536E0,1.678076048E0,2.233968501E0,3.720040245E0
1.033434333E0,-2.578952178E0,1.596730168E0,1.925075886E0,3.592556017E0
1.043440333E0,-2.611213313E0,1.536207393E0,1.858477269E0,3.554195532E0
1.053446333E0,-2.075280915E0,1.506495937E0,2.065367546E0,3.292728957E0
1.063452333E0,-7.878202155E-1,1.384113128E0,1.505982551E0,2.191897189E0
1.073458333E0,9.757723846E-1,1.080000612E0,4.966025636E-1,1.537903499E0
1.083464333E0,1.711822961E0,3.968733305E-1,3.770173556E-1,1.797216842E0
1.093470333E0,1.664055009E0,-3.279293954E-1,1.277391795E0,2.123286735E0
1.103476333E0,2.126478843E0,-3.601873147E-1,2.705634152E0,3.460072736E0
1.113483333E0,3.091123538E0,4.138366878E-1,4.598285472E0,5.556125882E0
1.123489333E0,3.884501824E0,1.186432216E0,6.356655486E0,7.543476969E0
1.133495333E0,4.355731273E0,1.375576193E0,7.376483570E0,8.676238508E0
1.143501333E0,4.674911187E0,1.467660484E0,7.258600194E0,8.757630883E0
1.153507333E0,4.731231568E0,1.296339405E0,5.232085057E0,7.172151843E0
1.163513333E0,4.762191113E0,2.985132229E-1,1.398446408E0,4.972245639E0
1.173519333E0,4.579665599E0,-2.195901958E0,-3.089713774E0,5.944884659E0
1.183525333E0,2.125568724E0,-5.743544519E0,-6.906905376E0,9.231017707E0
1.193532333E0,1.409545300E0,-8.290451909E0,-1.115712598E1,1.397139474E1
1.203538333E0,1.499022610E0,-9.073774154E0,-1.092719124E1,1.428229515E1
1.213544333E0,9.874130215E-1,-7.498060048E0,-2.956901287E0,8.120292740E0
1.223550333E0,1.270168729E0,-5.883180122E0,3.942707933E0,7.195143000E0
1.233556333E0,6.245352566E-2,-5.351156588E0,5.490948311E0,7.667417468E0
1.243562333E0,-2.140082829E0,-5.982818431E0,3.842533434E0,7.425572980E0
1.253568333E0,-3.930090811E0,-6.558303149E0,6.733194539E-1,7.675305405E0
1.263574333E0,-4.910727932E0,-6.190331436E0,-2.938837484E0,8.430434027E0
1.273580333E0,-6.206589620E0,-6.079640136E0,-4.795547140E0,9.923761951E0
1.283587333E0,-6.481616331E0,-5.995221545E0,-4.435196395E0,9.880536357E0
1.293593333E0,-5.261847385E0,-4.556763225E0,-2.604160987E0,7.431876172E0
1.303599333E0,-3.520133750E0,-2.797906723E0,-1.014790124E0,4.609709605E0
1.313605333E0,-9.250480080E-1,-1.275588221E0,1.842618451E-1,1.586439899E0
1.323611333E0,1.338333523E0,3.182545924E-1,1.122753698E0,1.775668457E0
1.333617333E0,1.616041183E0,8.935896224E-1,8.311790738E-1,2.025080287E0
1.343623333E0,8.080643725E-1,5.230363637E-1,-3.181993362E-1,1.013797754E0
1.353629333E0,-7.248654373E-2,2.588837188E-1,-1.424629947E0,1.449774315E0
1.363635333E0,-9.694441623E-1,1.663527006E-1,-1.988610854E0,2.218573491E0
1.373642333E0,-1.773628030E0,3.515112162E-2,-1.908075106E0,2.605329653E0
1.383648333E0,-2.058980632E0,1.704615390E-1,-1.370503149E0,2.479261435E0
1.393654333E0,-1.975072211E0,4.767240769E-1,-5.731303373E-1,2.111078982E0
1.403660333E0,-1.466501274E0,1.184285118E0,5.472093379E-1,1.962802916E0
1.413666333E0,-7.555035317E-1,2.158818916E0,1.196620989E0,2.581314876E0
1.423672333E0,5.446922578E-2,3.036540365E0,1.160881930E0,3.251336823E0
1.433678333E0,7.727034089E-1,3.888579088E0,8.238045654E-1,4.049292758E0
1.443684333E0,1.007259787E0,4.464745592E0,2.057717049E-1,4.581579146E0
1.453691333E0,7.053847075E-1,4.511771824E0,-2.715325619E-1,4.574645615E0
1.463697333E0,-1.241577306E-1,4.001323931E0,-4.593367964E-1,4.029515930E0
1.473703333E0,-9.557288602E-1,3.349954047E0,-2.029194331E-1,3.489525192E0
1.483709333E0,-1.366668545E0,2.756361086E0,4.826066682E-1,3.114196292E0
1.493715333E0,-1.173216923E0,2.541268920E0,1.050434750E0,2.989631890E0
1.503721333E0,-5.522879371E-1,2.619371349E0,1.057750787E0,2.878361505E0
1.513727333E0,1.640211233E-1,2.734983666E0,6.280353999E-1,2.810954828E0
1.523733333E0,7.014328668E-1,2.537574649E0,1.738473693E-1,2.638468509E0
1.533739333E0,8.298213503E-1,2.270746318E0,3.005148710E-1,2.436226899E0
1.543746333E0,8.085219902E-1,2.053714045E0,1.385846097E0,2.606150148E0
1.553752333E0,7.080384663E-1,1.921529549E0,2.752376209E0,3.430622258E0
1.563758333E0,6.853118008E-1,1.619982791E0,4.027891924E0,4.395214427E0
1.573764333E0,9.818700072E-1,1.583199711E0,4.931703064E0,5.271838878E0
1.583770333E0,1.549904496E0,1.785287086E0,4.913261531E0,5.452485011E0
1.593776333E0,2.077864508E0,2.156902784E0,4.113557142E0,5.088330069E0
1.603782333E0,2.641434940E0,2.720866148E0,2.672002137E0,4.638953175E0
1.613788333E0,3.092386829E0,2.924705349E0,1.526283353E0,4.521758347E0
1.623795333E0,3.153626765E0,2.568746740E0,1.818525437E0,4.455429985E0
1.633801333E0,2.627465649E0,2.404784966E0,3.123076233E0,4.737105828E0
1.643807333E0,1.423528332E0,2.309770635E0,4.402269262E0,5.171213393E0
1.653813667E0,3.534934223E-3,1.685911902E0,5.046937652E0,5.321079881E0
1.663819667E0,-5.614397067E-1,9.942956328E-1,4.586074147E0,4.726088704E0
1.673825667E0,-4.979184794E-1,5.119822025E-2,3.761555929E0,3.794713043E0
1.683831667E0,-5.603456926E-1,-1.096255286E0,3.287890531E0,3.510838517E0
1.693837667E0,-6.395646474E-1,-1.886475492E0,3.332508295E0,3.882453380E0
1.703843667E0,-9.206733406E-1,-2.296195740E0,3.753151141E0,4.495141573E0
1.713850667E0,-1.353727780E0,-2.723235440E0,3.858869385E0,4.913192760E0
1.723856667E0,-1.561867315E0,-2.979062819E0,3.083518649E0,4.563149357E0
1.733862667E0,-1.347360454E0,-3.040788367E0,1.443319695E0,3.625595927E0
1.743868667E0,-9.328129642E-1,-3.012925799E0,-1.623189989E-1,3.158197169E0
1.753874667E0,-9.092654228E-2,-2.797037827E0,-3.038703250E0,4.131029615E0
1.763880667E0,9.439309332E-1,-3.043335414E0,-5.014442335E0,5.941172273E0
1.773886667E0,9.729652825E-1,-3.630235652E0,-4.623934869E0,5.958694991E0
1.783892667E0,6.448273607E-1,-4.397532433E0,-4.671655165E0,6.448135839E0
1.793898667E0,9.346445315E-2,-5.128943097E0,-4.145232971E0,6.595282350E0
1.803905667E0,-8.781414248E-2,-5.502922824E0,-3.057528068E0,6.295899365E0
1.813911667E0,2.077403162E-1,-5.679587674E0,-1.713257867E0,5.936002418E0
1.823917667E0,6.412258413E-1,-5.274004916E0,-6.846048725E-1,5.356769760E0
1.833923667E0,9.340601023E-1,-4.547060355E0,-2.077033326E-1,4.646651140E0
1.843929667E0,1.269562958E0,-3.701906728E0,-3.866015267E-1,3.932602735E0
1.853935667E0,1.485259726E0,-2.576566222E0,-8.703147805E-1,3.098731638E0
1.863941667E0,1.735142680E0,-1.223918715E0,-1.546499955E0,2.626853489E0
1.873947667E0,1.966059020E0,5.746117294E-2,-2.133992808E0,2.902174213E0
1.883954667E0,2.047616569E0,1.250893675E0,-2.310279343E0,3.330894661E0
1.893960667E0,1.797717974E0,1.908869743E0,-2.157144274E0,3.395415295E0
1.903966667E0,1.118376619E0,2.059388183E0,-2.049602576E0,3.113312813E0
1.913972667E0,3.056026796E-1,2.186258730E0,-1.952299937E0,2.946963738E0
1.923978667E0,-2.159283185E-1,2.307540507E0,-1.818109261E0,2.945656042E0
1.933984667E0,-8.691953310E-1,2.167228966E0,-2.088955799E0,3.133068503E0
1.943990667E0,-1.581516883E0,2.104064419E0,-1.851450085E0,3.218097287E0
1.953996667E0,-2.157690257E0,1.901367180E0,-1.422917298E0,3.208662967E0
1.964002667E0,-2.622729112E0,1.962979292E0,-1.385118849E0,3.556761156E0
1.974009667E0,-2.752682603E0,2.018921358E0,-1.971659191E0,3.942175152E0
1.984015667E0,-2.904969242E0,1.929472992E0,-2.530927826E0,4.308979924E0
1.994021667E0,-2.981303180E0,2.028622473E0,-2.439678810E0,4.353792656E0
2.004027667E0,-3.119345124E0,2.018778101E0,-1.928156784E0,4.186116053E0
2.014033667E0,-3.200705037E0,1.678766019E0,-1.404515525E0,3.877554892E0
2.024039667E0,-3.014803340E0,1.384581490E0,-1.047269068E0,3.478919025E0
2.034045667E0,-2.592389957E0,1.438509775E0,-6.178764474E-1,3.028459570E0
2.044051667E0,-2.017727795E0,1.649132915E0,-5.845783085E-2,2.606584383E0
2.054057667E0,-1.341428308E0,1.985009261E0,3.410327134E-1,2.419916318E0
2.064064667E0,-6.020454034E-1,2.264871036E0,4.502747816E-1,2.386387826E0
2.074070667E0,1.492858475E-1,2.421319723E0,5.175247782E-1,2.480505464E0
2.084076667E0,8.735199317E-1,2.855097170E0,1.149620485E0,3.199413099E0
2.094082667E0,1.951778512E0,2.982776386E0,1.224609564E0,3.769093115E0
2.104088667E0,2.472888656E0,2.355387104E0,1.287423570E0,3.649724121E0
2.114094667E0,1.778201722E0,1.699724194E0,2.246133633E0,3.331092914E0
2.124100667E0,1.303685408E0,9.793226677E-1,3.225965301E0,3.614625936E0
2.134106667E0,9.231054899E-1,-3.479444146E-1,4.289296378E0,4.401278505E0
2.144112667E0,8.283594002E-1,-1.193106228E0,5.241106142E0,5.438646464E0
2.154119667E0,1.132912505E0,-1.177387742E0,6.313356854E0,6.521365455E0
2.164125667E0,1.705561908E0,-6.923214430E-1,7.197522519E0,7.429170937E0
2.174131667E0,2.427432694E0,2.055881023E-1,7.679169951E0,8.056323423E0
2.184137667E0,2.975506835E0,7.361048090E-1,6.132034696E0,6.855460651E0
2.194143667E0,2.768138548E0,-4.036408979E-1,2.006392529E0,3.442546728E0
2.204149667E0,1.581357254E0,-2.821507255E0,-2.638319836E0,4.174005931E0
2.214155667E0,2.419221157E-1,-5.428611145E0,-6.872557662E0,8.761300936E0
2.224161667E0,-1.232135515E-1,-7.114861600E0,-1.011808395E1,1.236980436E1
2.234167667E0,1.179924265E-2,-7.727846267E0,-9.373363849E0,1.214823843E1
2.244174667E0,-2.014870115E-1,-7.047525650E0,-3.657182253E0,7.942493112E0
2.254180667E0,6.667848980E-1,-5.056569185E0,1.518420163E0,5.321568737E0
2.264186667E0,1.678925648E0,-3.030061065E0,3.572161691E0,4.975982369E0
2.274192667E0,1.431670726E0,-2.437663860E0,3.507528908E0,4.504957846E0
2.284198667E0,2.436718950E-1,-2.420203489E0,4.372103477E-1,2.471419392E0
2.294204667E0,-9.288490637E-1,-2.579837739E0,-4.647274907E0,5.395876889E0
2.304210667E0,-3.006262897E0,-3.487406300E0,-7.292036912E0,8.624002646E0
2.314216667E0,-4.746605945E0,-4.035526049E0,-5.856869406E0,8.550944844E0
2.324222667E0,-5.026080049E0,-3.678723688E0,-2.612373693E0,6.754182774E0
2.334229667E0,-4.223113498E0,-2.605508770E0,-1.280300492E-1,4.963844806E0
2.344235667E0,-2.519735963E0,-1.497831532E0,1.102892168E0,3.131922694E0
2.354241667E0,-7.494119024E-1,-7.743982244E-1,6.119017625E-1,1.239247585E0
2.364247667E0,2.210142267E-1,-1.192715049E-1,-6.503618234E-1,6.971681875E-1
2.374253667E0,3.562497266E-1,3.316511482E-1,-1.458842591E0,1.537897284E0
2.384259667E0,-3.319756687E-2,6.303298473E-1,-1.765936895E0,1.875353543E0
2.394265667E0,-6.856285007E-1,6.910970360E-1,-1.936660097E0,2.167568658E0
2.404271667E0,-1.370693768E0,6.862327373E-1,-2.028561078E0,2.542592540E0
2.414277667E0,-1.930334725E0,5.794415295E-1,-1.746871756E0,2.667115590E0
2.424284667E0,-2.602897988E0,4.985488093E-1,-9.421156651E-1,2.812687465E0
2.434290667E0,-2.594600204E0,8.277020270E-1,6.152732670E-2,2.724119395E0
2.444296667E0,-2.152168293E0,1.333383270E0,5.776043344E-1,2.596799198E0
2.454302667E0,-1.306361532E0,1.968270437E0,6.560523337E-1,2.451749096E0
2.464308667E0,-3.559643094E-1,2.641412428E0,5.078803807E-1,2.713247627E0
2.474314667E0,3.475995020E-1,3.210158815E0,2.423130020E-1,3.238002567E0
2.484320667E0,7.179780751E-1,3.326894383E0,1.616958319E-1,3.407325094E0
2.494326667E0,6.816502744E-1,3.163830156E0,4.124988449E-1,3.262609945E0
2.504332667E0,3.127789308E-1,2.898757160E0,7.302369820E-1,3.005639662E0
2.514339667E0,-1.406010512E-1,2.458397502E0,7.624725357E-1,2.577760908E0
2.524345667E0,-5.169309204E-1,1.818427350E0,3.190191159E-1,1.917203380E0
2.534351667E0,-5.668305106E-1,1.412458091E0,-2.489302960E-1,1.542174108E0
2.544357667E0,-3.733599587E-1,1.268434153E0,-6.082093920E-1,1.455417989E0
2.554363667E0,-1.350914757E-1,1.214771331E0,-5.930054618E-1,1.358519257E0
2.564369667E0,1.431963013E-1,1.201489381E0,-1.752881232E-1,1.222623343E0
2.574375667E0,3.109201375E-1,1.360528969E0,6.263981795E-1,1.529733665E0
2.584381667E0,4.106973177E-1,1.405331504E0,1.438700395E0,2.052678189E0
2.594387667E0,4.564316073E-1,1.382915034E0,2.229227140E0,2.662749978E0
2.604394667E0,4.625811240E-1,1.294478821E0,2.865784126E0,3.178423409E0
2.614400667E0,5.250448823E-1,1.196794066E0,3.369199573E0,3.613792181E0
2.624406667E0,8.855137405E-1,1.451156718E0,3.738865224E0,4.107201428E0
2.634412667E0,1.591524392E0,1.881864377E0,3.734078693E0,4.474115233E0
2.644418667E0,2.067189831E0,2.120924281E0,3.518943257E0,4.599408141E0
2.654424292E0,2.454496532E0,2.104153882E0,3.196738871E0,4.546554321E0
2.664430292E0,2.393473235E0,1.902467626E0,2.701124779E0,4.079726984E0
2.674436292E0,1.697708659E0,1.414022806E0,2.507991246E0,3.342408604E0
2.684442292E0,3.183238819E-1,4.118883955E-1,2.849434726E0,2.896594622E0
2.694449292E0,-1.242963096E0,-9.513127506E-1,3.254145080E0,3.611012796E0
2.704455292E0,-1.888632529E0,-1.771647871E0,3.133657939E0,4.065154497E0
2.714461292E0,-1.398633226E0,-1.919257321E0,2.565971652E0,3.496274315E0
2.724467292E0,-1.541752893E-1,-1.614275908E0,2.551560019E0,3.023262354E0
2.734473292E0,6.528120992E-1,-1.404850863E0,3.150255260E0,3.510538106E0
2.744479292E0,1.217086828E0,-1.539440904E0,3.500537977E0,4.013096656E0
2.754485292E0,1.129283869E0,-1.469098899E0,3.717964936E0,4.154130102E0
2.764491292E0,6.209468204E-1,-1.374622512E0,4.152951003E0,4.418389304E0
2.774497292E0,-1.292413730E-2,-1.149864314E0,4.338960873E0,4.488756669E0
2.784504292E0,-1.884490727E-1,-6.935212916E-1,2.933717662E0,3.020460918E0
2.794510292E0,-2.754678112E-1,-3.125839627E-1,3.836676863E-1,5.663851536E-1
2.804516292E0,-1.864317468E-1,-5.150402963E-2,-2.415701718E0,2.423432328E0
2.814522292E0,-1.527117312E-2,3.434794807E-1,-4.733229854E0,4.745700814E0
2.824528292E0,6.994527072E-2,-1.218121201E-1,-3.948368622E0,3.950866400E0
2.834534292E0,-1.211146203E-1,-1.134206055E0,-3.158734893E0,3.358377324E0
2.844540292E0,-7.276082931E-1,-2.191275056E0,-3.475684386E0,4.172706814E0
2.854546292E0,-1.771591445E0,-3.053240597E0,-3.355362137E0,4.870243265E0
2.864552292E0,-2.182867929E0,-3.900433148E0,-2.629523869E0,5.185815936E0
2.874559292E0,-1.683734545E0,-4.312502223E0,-1.735491905E0,4.944144981E0
2.884565292E0,-2.629717997E-1,-4.843606575E0,-1.228415809E0,5.003866926E0
2.894571292E0,5.074536802E-1,-5.238849117E0,-1.325780428E0,5.427775147E0
2.904577292E0,2.798452561E-1,-4.641854246E0,-2.119030660E0,5.110324368E0
2.914583292E0,3.330568188E-1,-3.164272791E0,-2.593826033E0,4.105055740E0
2.924589292E0,1.041012108E0,-1.407329498E0,-2.438143624E0,3.001470782E0
2.934595292E0,1.859480212E0,7.518466830E-2,-2.213980087E0,2.892235678E0
2.944601292E0,2.355114039E0,9.906855619E-1,-2.060960500E0,3.282617583E0
2.954607292E0,2.353843439E0,1.586695762E0,-2.053903495E0,3.503812487E0
2.964614292E0,2.059203411E0,1.992225895E0,-2.199676920E0,3.612182340E0
2.974620292E0,1.525961317E0,2.278012653E0,-2.304495277E0,3.581703236E0
2.984626292E0,9.342312795E-1,2.309108731E0,-2.394008255E0,3.454858425E0
2.994632292E0,1.036778578E-1,2.145111873E0,-2.467962962E0,3.271558532E0
3.004638292E0,-1.105630420E0,1.908604864E0,-2.433881588E0,3.284656867E0
3.014644292E0,-1.933422932E0,1.720668921E0,-2.287201845E0,3.454000297E0
3.024650292E0,-2.293374166E0,1.794156727E0,-1.931865672E0,3.494376683E0
3.034656292E0,-2.356613849E0,1.525471321E0,-1.551504294E0,3.207468965E0
3.044662292E0,-2.411926901E0,1.111931672E0,-1.489943346E0,3.045277425E0
3.054669292E0,-2.518344618E0,1.246438681E0,-1.276788070E0,3.086398675E0
3.064675292E0,-2.646011263E0,1.374703204E0,-9.463364777E-1,3.128376134E0
3.074681292E0,-2.780021260E0,1.410020387E0,-6.635031483E-1,3.186991077E0
3.084687292E0,-2.808805933E0,1.479411634E0,-5.295849529E-1,3.218463884E0
3.094693292E0,-2.576010152E0,1.526960022E0,-6.549030635E-1,3.065343901E0
3.104699292E0,-2.280430184E0,1.601520792E0,-5.796248397E-1,2.846259937E0
3.114705292E0,-1.880219702E0,1.835700025E0,-1.736783847E-1,2.633473920E0
3.124711292E0,-1.212623356E0,1.961284184E0,2.757038194E-1,2.322305675E0
3.134717292E0,-5.178799966E-1,2.059969981E0,5.732513747E-1,2.200066625E0
3.144723292E0,1.304686305E-1,2.462858343E0,7.957247740E-1,2.591499796E0
3.154730292E0,8.782360035E-1,2.869233983E0,1.342386228E0,3.287218112E0
3.164736292E0,1.866873870E0,3.054483715E0,1.828302712E0,4.019674069E0
3.174742292E0,2.936013864E0,2.855788311E0,2.105077449E0,4.605111872E0
3.184748292E0,3.570666850E0,2.093525398E0,2.400600114E0,4.784912878E0
3.194754292E0,3.241844585E0,1.172182551E0,2.704865243E0,4.381764967E0
3.204760292E0,2.492619208E0,-5.201799989E-2,2.943082563E0,3.857148086E0
3.214766292E0,1.750302610E0,-1.170623683E0,3.470222502E0,4.059108677E0
3.224772292E0,1.335546886E0,-1.579675010E0,4.243014204E0,4.720405508E0
3.234778292E0,1.300937216E0,-1.507504581E0,5.106572235E0,5.481066291E0
3.244785292E0,1.563958717E0,-9.706395525E-1,6.091273756E0,6.363310772E0
3.254791292E0,2.169956985E0,-6.954245603E-1,6.476408216E0,6.865580239E0
3.264797292E0,3.035155159E0,-1.482948614E0,4.570988916E0,5.683770148E0
3.274803292E0,3.221278465E0,-3.047101021E0,3.121448368E-2,4.434234311E0
3.284809292E0,2.072747317E0,-4.935353481E0,-4.926234164E0,7.274735628E0
3.294815292E0,3.293385744E-2,-5.782945397E0,-7.077152907E0,9.139454873E0
3.304821292E0,-1.163369189E0,-6.173876202E0,-6.558002018E0,9.081716010E0
3.314827292E0,-8.690373100E-1,-5.932161663E0,-3.526536159E0,6.955733255E0
3.324833292E0,4.886996131E-1,-4.804564131E0,3.548783353E-1,4.842375701E0
3.334840292E0,1.840319910E0,-3.147495959E0,2.857160652E0,4.632156644E0
3.344846292E0,2.120703110E0,-1.835608808E0,3.270384844E0,4.308393948E0
3.354852292E0,1.200686558E0,-1.921424299E0,1.232698894E0,2.579353817E0
3.364858292E0,1.162952721E-2,-2.609462657E0,-3.387775592E0,4.276266370E0
3.374864292E0,-1.687218462E0,-3.566616776E0,-8.124590374E0,9.031967123E0
3.384870292E0,-3.335155914E0,-3.943448775E0,-8.295893912E0,9.772200828E0
3.394876292E0,-3.808912821E0,-3.575274163E0,-4.599635594E0,6.960391499E0
3.404882292E0,-3.073001847E0,-2.768492889E0,-1.574176873E0,4.425598949E0
3.414888292E0,-1.980864024E0,-1.862790760E0,1.342658123E-1,2.722469284E0
3.424894292E0,-1.013276572E0,-1.165455329E0,1.062154325E0,1.874349846E0
3.434901292E0,-5.258551602E-1,-7.045345223E-1,1.342080126E0,1.604391351E0
3.444907292E0,-3.553076671E-1,-9.914597332E-2,9.930674252E-1,1.059366024E0
3.454913292E0,-6.648756360E-1,1.703516114E-1,3.109604833E-1,7.535089282E-1
3.464919292E0,-1.436791425E0,1.396490514E-2,-7.961162451E-1,1.642670293E0
3.474925292E0,-1.935648675E0,-2.676820242E-1,-1.497077534E0,2.461631695E0
3.484931292E0,-2.149234891E0,-1.532625389E-1,-1.691706200E0,2.739447004E0
3.494937292E0,-2.060614198E0,2.629504573E-1,-1.473814971E0,2.547038356E0
3.504943292E0,-1.559535445E0,9.998253447E-1,-9.102249509E-1,2.064052079E0
3.514949292E0,-7.982273823E-1,1.949266986E0,-5.474970210E-1,2.176364337E0
3.524955292E0,-1.296960671E-1,2.728033081E0,-3.525398876E-1,2.753773762E0
3.534962292E0,2.340238430E-1,3.284492714E0,-2.946379808E-1,3.305975058E0
3.544968292E0,5.276205808E-1,3.493097979E0,-4.993989944E-1,3.567844773E0
3.554974292E0,4.559913120E-1,3.578004813E0,-6.021819359E-1,3.656866090E0
3.564980292E0,1.356511639E-1,3.589674686E0,-4.427397671E-1,3.619417645E0
3.574986292E0,-1.392339722E-1,3.409859356E0,1.857645795E-2,3.412751385E0
3.584992292E0,-4.911596829E-1,3.180902857E0,3.773500621E-1,3.240644054E0
3.594998292E0,-7.633014516E-1,2.858873886E0,5.409795682E-1,3.008063812E0
3.605004292E0,-1.015272227E0,2.486116812E0,4.310842198E-1,2.719813983E0
3.615010292E0,-1.160718719E0,2.233998907E0,1.855311294E-1,2.524369398E0
3.625017292E0,-1.067748721E0,2.028149434E0,-8.662079886E-2,2.293682764E0
3.635023292E0,-7.635797790E-1,1.784467891E0,-1.625100566E-1,1.947765194E0
3.645029292E0,-3.812455503E-1,1.586509236E0,1.294675872E-2,1.631725266E0
3.655034667E0,3.181440800E-2,1.385771399E0,5.588546526E-1,1.494554465E0
3.665040667E0,1.581177379E-1,1.157518319E0,1.545716574E0,1.937547317E0
3.675046667E0,2.597689508E-1,9.623423535E-1,2.438643707E0,2.634495368E0
3.685052667E0,5.068006924E-1,8.553295362E-1,2.970718843E0,3.132667553E0
3.695058667E0,7.108968776E-1,8.434234357E-1,3.280706642E0,3.461180945E0
3.705064667E0,7.684220776E-1,8.778728914E-1,3.299596657E0,3.499781622E0
3.715070667E0,9.026981226E-1,8.881651604E-1,2.811332515E0,3.083389655E0
3.725077667E0,1.291483292E0,8.028197855E-1,2.278758612E0,2.739560094E0
3.735083667E0,1.763029367E0,8.393637139E-1,2.109057211E0,2.874182720E0
3.745089667E0,2.094074159E0,8.138289231E-1,2.103196108E0,3.077482407E0
3.755095667E0,2.085543364E0,7.132211459E-1,2.142064304E0,3.073534612E0
3.765101667E0,1.460292993E0,2.984582591E-1,2.477925448E0,2.891651342E0
3.775107667E0,2.132891412E-1,-5.624115139E-1,3.084131438E0,3.142238962E0
3.785113667E0,-9.813864425E-1,-1.289649020E0,3.929462820E0,4.250528437E0
3.795119667E0,-1.371246038E0,-1.423185977E0,4.416806610E0,4.838796818E0
3.805125667E0,-6.508436340E-1,-1.140635068E0,3.942067078E0,4.155061809E0
3.815132667E0,8.183195847E-1,-6.473616171E-1,3.067401969E0,3.240012167E0
3.825138667E0,1.471072335E0,-3.262225932E-1,2.974737049E0,3.334596753E0
3.835144667E0,1.733060633E0,-5.230708623E-1,3.214051892E0,3.688798157E0
3.845150667E0,1.871182391E0,-6.666083121E-1,3.345753407E0,3.890983943E0
3.855156667E0,1.616771208E0,-4.336412072E-1,3.472806972E0,3.855176014E0
3.865162667E0,1.117406931E0,-4.014131087E-1,2.999625138E0,3.226062879E0
3.875168667E0,5.691691411E-1,-4.581708616E-1,2.044232785E0,2.170889617E0
3.885174667E0,4.154885262E-2,-4.523791945E-1,6.374804074E-1,7.827863773E-1
3.895180667E0,-2.612009704E-2,-3.651211953E-1,-2.527619179E0,2.553987953E0
3.905186667E0,1.187501525E-1,-5.482039493E-1,-3.508373830E0,3.552930636E0
3.915193667E0,3.526134163E-2,-1.139431711E0,-3.463297060E0,3.646090305E0
3.925199667E0,-1.848929058E-1,-1.923349788E0,-3.482247886E0,3.982400047E0
3.935205667E0,-6.582691593E-1,-2.646469685E0,-3.191998825E0,4.198330213E0
3.945211667E0,-1.025591393E0,-3.280421882E0,-2.707084261E0,4.375078357E0
3.955217667E0,-1.001376172E0,-3.774995754E0,-1.775405437E0,4.290152870E0
3.965223667E0,-3.989949927E-1,-3.967105440E0,-1.144712332E0,4.148191039E0
3.975229667E0,3.229121920E-1,-4.110476829E0,-1.240475106E0,4.305702095E0
3.985235667E0,6.706994627E-1,-3.676213478E0,-1.747762872E0,4.125416144E0
3.995241667E0,6.670776974E-1,-2.759846612E0,-2.034132012E0,3.492769534E0
4.005247667E0,7.384469113E-1,-2.088679810E0,-2.314704516E0,3.204020004E0
4.015254667E0,7.150969326E-1,-1.226752861E0,-2.535783647E0,2.906283693E0
4.025260667E0,7.999197127E-1,-3.180154413E-1,-2.543094128E0,2.684833908E0
4.035266667E0,1.012619199E0,7.483939022E-1,-2.251375370E0,2.579570144E0
4.045272667E0,1.107995911E0,1.575121198E0,-1.919421628E0,2.718977954E0
4.055278667E0,8.222948143E-1,1.798885370E0,-1.754938867E0,2.644232926E0
4.065284667E0,4.063848500E-1,1.739720319E0,-1.722588269E0,2.481750548E0
4.075290667E0,-3.550888351E-1,1.717787998E0,-1.650106477E0,2.408263912E0
4.085296667E0,-1.027556642E0,1.521279452E0,-1.707459768E0,2.507106436E0
4.095302667E0,-1.580119983E0,1.277593816E0,-1.765171202E0,2.691626737E0
4.105308667E0,-1.975591151E0,1.400683553E0,-1.684173817E0,2.949799359E0
4.115315667E0,-2.119410144E0,1.427122323E0,-1.692473355E0,3.064807260E0
4.125321667E0,-2.138721159E0,1.478004794E0,-1.845601992E0,3.188239809E0
4.135327667E0,-2.123103538E0,1.517607400E0,-1.871427390E0,3.211376859E0
4.145333667E0,-2.169669302E0,1.551025992E0,-1.758147819E0,3.194406089E0
4.155339667E0,-2.222632212E0,1.607994245E0,-1.453196227E0,3.104435329E0
4.165345667E0,-2.179545834E0,1.581579448E0,-8.451752615E-1,2.822434200E0
4.175351667E0,-2.274496137E0,1.604489424E0,-1.353428695E-1,2.786760966E0
4.185357667E0,-2.198845446E0,1.732408376E0,1.381542107E-1,2.802721296E0
4.195363667E0,-2.005034806E0,1.780166094E0,1.077024963E-1,2.683422390E0
4.205370667E0,-1.701975372E0,1.882308766E0,2.409485543E-1,2.549090556E0
4.215376667E0,-1.096251193E0,2.052419472E0,2.999200630E-1,2.346091305E0
4.225382667E0,-2.177845171E-1,2.180881630E0,1.067239648E-1,2.194325588E0
4.235388667E0,4.308167097E-1,2.416781698E0,3.520129073E-1,2.479989900E0
4.245394667E0,1.307846725E0,2.767125810E0,9.104067993E-1,3.193162828E0
4.255400667E0,2.700032227E0,2.751864578E0,1.148265685E0,4.022616905E0
4.265406667E0,3.669439771E0,2.415351470E0,1.444706655E0,4.624487893E0
4.275412667E0,3.517651315E0,2.018240157E0,2.235370663E0,4.630771654E0
4.285418667E0,2.881903730E0,1.248394575E0,3.129665752E0,4.433809406E0
4.295424667E0,2.133074064E0,-2.723001552E-1,3.798264457E0,4.364741140E0
4.305431667E0,1.564549140E0,-1.179876902E0,4.115991923E0,4.558652545E0
4.315437667E0,1.480978103E0,-1.200263804E0,4.522932989E0,4.908243287E0
4.325443667E0,1.568838365E0,-7.590083528E-1,5.189834247E0,5.474644007E0
4.335449667E0,1.575464137E0,-7.269281888E-1,5.754604527E0,6.010489590E0
4.345455667E0,2.364436255E0,-1.346761699E0,5.429198205E0,6.072933314E0
4.355461667E0,2.911632729E0,-2.282641309E0,2.288844035E0,4.350501524E0
4.365467667E0,2.582402620E0,-4.170542352E0,-2.990077220E0,5.744805356E0
4.375473667E0,1.343258340E0,-5.771097184E0,-6.749168547E0,8.981157039E0
4.385479667E0,-3.520535454E-2,-6.114025857E0,-7.493750650E0,9.671548500E0
4.395485667E0,-2.451573801E-1,-5.915126384E0,-5.090802294E0,7.808014490E0
4.405492667E0,7.260395582E-1,-5.155076058E0,-1.009261289E0,5.302881382E0
4.415498667E0,2.103864444E0,-3.694476086E0,1.723870856E0,4.587715105E0
4.425504667E0,2.468358234E0,-2.177504863E0,2.152677878E0,3.932981292E0
4.435510667E0,1.444247356E0,-1.895518795E0,8.628797534E-1,2.534443410E0
4.445516667E0,-1.827488780E-2,-2.144755778E0,-2.414460939E0,3.229540670E0
4.455522667E0,-1.555339337E0,-2.606439062E0,-6.311723142E0,7.003602934E0
4.465528667E0,-3.112983938E0,-2.912505133E0,-7.180196049E0,8.350363492E0
4.475534667E0,-3.721003442E0,-2.903138478E0,-4.607714692E0,6.595840684E0
4.485540667E0,-3.433567769E0,-2.359861393E0,-1.905827144E0,4.581540191E0
4.495546667E0,-2.752521220E0,-1.540993924E0,-1.282791406E-2,3.154552250E0
4.505552667E0,-1.848101092E0,-8.871781504E-1,1.341099256E0,2.449716296E0
4.515559667E0,-8.717075872E-1,-3.414569288E-1,1.561507126E0,1.820651383E0
4.525565667E0,-1.883179124E-1,5.287871003E-2,7.057054272E-1,7.323113710E-1
4.535571667E0,-1.193653527E-1,6.522393644E-2,-6.120391721E-1,6.269722461E-1
4.545577667E0,-5.153475675E-1,-1.282136518E-1,-1.604511643E0,1.690112265E0
4.555583667E0,-9.457179885E-1,-2.616471130E-1,-1.862224457E0,2.104927945E0
4.565589667E0,-1.303890499E0,-3.272470254E-1,-1.896998141E0,2.325042579E0
4.575595667E0,-1.629559945E0,-2.386330569E-1,-1.704524758E0,2.370193242E0
4.585601667E0,-1.856477960E0,8.227266312E-2,-1.020600794E0,2.120119144E0
4.595607667E0,-2.018850022E0,5.185193896E-1,-2.262299430E-1,2.096615786E0
4.605613667E0,-1.904673781E0,1.134673247E0,2.881993192E-1,2.235693279E0
4.615620667E0,-1.390041766E0,1.815389137E0,4.165133969E-1,2.324077718E0
4.625626667E0,-8.595436245E-1,2.602787476E0,2.904961056E-1,2.756393635E0
4.635632667E0,-3.603428507E-1,3.149792746E0,-1.371382570E-1,3.173302414E0
4.645638667E0,2.154991329E-2,3.430673690E0,-4.892394572E-1,3.465449698E0
4.655645042E0,1.709728780E-1,3.514735601E0,-4.873999232E-1,3.552485996E0
4.665651042E0,1.284057328E-1,3.440844337E0,-3.423480445E-1,3.460216751E0
4.675657042E0,6.528050825E-3,3.158540180E0,-3.974133208E-2,3.158796932E0
4.685663042E0,-1.278449848E-1,2.766199611E0,3.086850393E-1,2.786304198E0
4.695669042E0,-3.247921450E-1,2.393405115E0,5.592047547E-1,2.479231320E0
4.705676042E0,-4.510573583E-1,1.962670559E0,5.078992380E-1,2.076894340E0
4.715682042E0,-5.325415975E-1,1.392314433E0,3.053170431E-1,1.521630221E0
4.725688042E0,-4.953962830E-1,8.209069777E-1,6.593940175E-1,1.163660695E0
4.735694042E0,-2.919514775E-1,6.781939852E-1,1.577693973E0,1.741924516E0
4.745700042E0,5.005984046E-2,6.340738195E-1,2.350978449E0,2.435498976E0
4.755706042E0,5.116278247E-1,5.603503704E-1,2.561973910E0,2.671977898E0
4.765712042E0,8.946826863E-1,2.983009690E-1,2.499909809E0,2.671888776E0
4.775718042E0,1.012147401E0,2.058219910E-1,2.696045887E0,2.887121141E0
4.785724042E0,1.146880479E0,5.322270173E-1,3.058232950E0,3.309288324E0
4.795730042E0,1.589265613E0,9.343137252E-1,3.174802456E0,3.671250191E0
4.805736042E0,2.036559192E0,1.240177483E0,2.925592371E0,3.774215714E0
4.815743042E0,2.325412814E0,1.302554995E0,2.308506467E0,3.526102151E0
4.825749042E0,2.340243400E0,1.242815162E0,1.882713393E0,3.250528944E0
4.835755042E0,2.057976958E0,1.111428226E0,2.184156071E0,3.200168684E0
4.845761042E0,1.092394077E0,1.042406523E0,3.189582464E0,3.528933617E0
4.855767042E0,-1.922479722E-1,4.355333662E-1,4.227748586E0,4.254469027E0
4.865773042E0,-1.268720959E0,-2.822258037E-1,4.580588289E0,4.761417158E0
4.875779042E0,-1.287169801E0,-6.751943636E-1,4.183896223E0,4.429185154E0
4.885785042E0,-1.682051168E-1,-6.219262290E-1,3.106336239E0,3.172445433E0
4.895791042E0,1.236520927E0,-3.755929738E-1,2.526242745E0,2.837596957E0
4.905797042E0,1.627168142E0,-5.183106440E-1,3.248626478E0,3.670135703E0
4.915804042E0,1.551468334E0,-9.327150965E-1,4.305258107E0,4.670359602E0
4.925810042E0,1.288914610E0,-8.836014086E-1,4.416997229E0,4.685287274E0
4.935816042E0,9.351896381E-1,-7.872632682E-1,3.994721255E0,4.177578367E0
4.945822042E0,8.039766571E-1,-6.664516068E-1,3.219440686E0,3.384573021E0
4.955828042E0,1.113611284E0,-5.197204077E-1,1.549385263E0,1.977582890E0
4.965834042E0,1.383280777E0,-3.304062760E-1,-2.037551026E0,2.484803452E0
4.975840042E0,1.391575052E0,-3.061327296E-1,-3.402846206E0,3.689113806E0
4.985846042E0,6.431872898E-1,-4.650430942E-1,-2.601405194E0,2.719791160E0
4.995852042E0,2.953758263E-1,-8.601224989E-1,-3.154606758E0,3.283078036E0
5.005858042E0,1.458327743E-1,-1.725776464E0,-3.741912208E0,4.123284925E0
5.015864042E0,-3.394693141E-1,-2.623286644E0,-3.383364745E0,4.294651235E0
5.025871042E0,-8.017199242E-1,-3.330431364E0,-2.390031856E0,4.176934304E0
5.035877042E0,-6.909061975E-1,-3.990163935E0,-1.479116495E0,4.311211571E0
5.045883042E0,-1.842720777E-1,-4.419253085E0,-1.507905700E0,4.673064693E0
5.055889042E0,3.209507436E-1,-4.420074034E0,-1.834006671E0,4.796211454E0
5.065895042E0,5.331716350E-1,-3.886312122E0,-1.781053702E0,4.308113995E0
5.075901042E0,7.497615659E-1,-3.243795508E0,-1.674519187E0,3.726709837E0
5.085907042E0,1.105492571E0,-2.491173484E0,-2.062588657E0,3.417942528E0
5.095913042E0,1.495592926E0,-1.512073596E0,-2.582611073E0,3.345600800E0
5.105919042E0,1.761796043E0,-5.641954994E-1,-2.962223131E0,3.492421472E0
5.115925042E0,1.738766930E0,2.176590943E-1,-3.025068128E0,3.495958108E0
5.125932042E0,1.345994106E0,7.388354588E-1,-2.913322866E0,3.293179025E0
5.135938042E0,5.577023126E-1,1.018518308E0,-2.561558466E0,2.812471011E0
5.145944042E0,-1.599888834E-1,1.299091104E0,-2.151671864E0,2.518516617E0
5.155950042E0,-6.122930874E-1,1.760274451E0,-1.851892427E0,2.627351238E0
5.165956042E0,-7.631394106E-1,2.148060039E0,-1.669222486E0,2.825393318E0
5.175962042E0,-7.746022922E-1,2.361947680E0,-1.644083844E0,2.980237782E0
5.185968042E0,-9.360380691E-1,2.432625899E0,-1.782540941E0,3.157734668E0
5.195974042E0,-1.253061969E0,2.410305322E0,-1.900648850E0,3.315449004E0
5.205980042E0,-1.764035527E0,2.266387219E0,-1.890339624E0,3.438272278E0
5.215986042E0,-2.223309027E0,2.080301335E0,-1.637781715E0,3.457323476E0
5.225993042E0,-2.653764671E0,1.888057163E0,-1.328227195E0,3.517302129E0
5.235999042E0,-3.096657343E0,1.673294780E0,-1.049347461E0,3.672918759E0
5.246005042E0,-3.183794012E0,1.568067117E0,-7.950090748E-1,3.636951777E0
5.256011042E0,-3.031100700E0,1.527550591E0,-5.226144871E-1,3.434255110E0
5.266017042E0,-2.563218783E0,1.694754646E0,-2.860267863E-1,3.086113277E0
5.276023042E0,-2.111339233E0,1.822786449E0,1.458161098E-1,2.793128377E0
5.286029042E0,-1.718942384E0,1.812147440E0,7.068737009E-1,2.595825821E0
5.296035042E0,-1.037876101E0,1.995565825E0,8.373206967E-1,2.400119936E0
5.306041042E0,-6.198852584E-2,2.307696628E0,5.637870714E-1,2.376375847E0
5.316047042E0,9.845895472E-1,2.565582812E0,8.041892034E-1,2.863276448E0
5.326053042E0,1.975021778E0,2.884892242E0,1.770776928E0,3.919051569E0
5.336060042E0,3.485855910E0,2.991317414E0,2.077704586E0,5.041431111E0
5.346066042E0,4.615862787E0,2.832376644E0,2.027952675E0,5.782831381E0
5.356072042E0,4.587799661E0,2.505009751E0,3.004836177E0,6.029263639E0
5.366078042E0,3.935747992E0,2.023582174E0,3.968292717E0,5.944101627E0
5.376084042E0,2.770063744E0,9.569097054E-1,4.360731812E0,5.254037615E0
5.386090042E0,1.751475707E0,1.125162166E-1,4.916735362E0,5.220595145E0
5.396096042E0,1.372310670E0,-1.467516643E-1,5.836231073E0,5.997196492E0
5.406102042E0,1.640744792E0,1.579432350E-1,6.900461159E0,7.094600323E0
5.416108042E0,2.861093782E0,3.627963424E-2,6.098165284E0,6.736081478E0
5.426114042E0,4.389692778E0,-1.443093992E0,1.012547716E0,4.730451970E0
5.436120042E0,3.817940630E0,-4.796355225E0,-5.396278381E0,8.167099514E0
5.446127042E0,1.203390895E0,-7.491235178E0,-8.959017284E0,1.174013394E1
5.456133042E0,-1.096035723E-1,-8.363393585E0,-1.068896983E1,1.357248839E1
5.466139042E0,-6.586644311E-1,-7.942487614E0,-6.594439527E0,1.034425353E1
5.476145042E0,4.493218316E-1,-5.951198443E0,1.682455320E0,6.200750674E0
5.486151042E0,1.993711088E0,-3.409346555E0,6.141390241E0,7.301725956E0
5.496157042E0,1.960509135E0,-2.290364896E0,5.717803906E0,6.463949949E0
5.506163042E0,3.099511077E-1,-2.733869187E0,1.446782124E0,3.108583107E0
5.516169042E0,-1.638784513E0,-3.009161362E0,-4.363741373E0,5.548234454E0
5.526175042E0,-3.823380879E0,-3.532819285E0,-7.852464466E0,9.421265925E0
5.536181042E0,-5.776566085E0,-4.018625257E0,-6.932961153E0,9.878462180E0
5.546188042E0,-5.887217039E0,-3.697403203E0,-3.289510502E0,7.690968356E0
5.556194042E0,-4.840219867E0,-2.936229041E0,-8.120288578E-1,5.719139814E0
5.566200042E0,-3.386509962E0,-2.103058698E0,7.488786364E-1,4.056121895E0
5.576206042E0,-1.741419227E0,-1.473505361E0,1.135650902E0,2.548227216E0
5.586212042E0,-4.930778620E-1,-1.013644069E0,2.212978166E-1,1.148726600E0
5.596218042E0,-1.426393175E-1,-6.871893418E-1,-6.434545076E-1,9.521601072E-1
5.606224042E0,-1.546373655E-1,-4.501478970E-1,-7.868747208E-1,9.196290938E-1
5.616230042E0,-2.668631217E-1,-2.013395154E-1,-8.004540020E-1,8.674561289E-1
5.626236042E0,-5.052435789E-1,1.367424005E-1,-7.993477088E-1,9.554717775E-1
5.636242042E0,-9.014067650E-1,6.117859876E-1,-8.220185333E-1,1.364745661E0
5.646248042E0,-1.184381012E0,9.420636249E-1,-6.570323271E-1,1.649828395E0
5.656254917E0,-1.414359898E0,1.280787565E0,-2.976028115E-1,1.931164970E0
5.666260917E0,-1.329197833E0,1.823784569E0,-3.161472559E-2,2.256979513E0
5.676266917E0,-9.630760328E-1,2.324327279E0,-4.447479934E-2,2.516344720E0
5.686272917E0,-5.920362858E-1,2.692584336E0,-3.116522089E-1,2.774462915E0
5.696278917E0,-3.265276717E-1,2.933724679E0,-6.851518795E-1,3.030312510E0
5.706284917E0,-2.443754612E-1,2.935591695E0,-8.876718016E-1,3.076585639E0
5.716290917E0,-3.951827542E-1,2.768867111E0,-1.024100353E0,2.978519099E0
5.726296917E0,-7.428143428E-1,2.354429330E0,-1.077214559E0,2.693603873E0
5.736302917E0,-1.195533699E0,1.909629881E0,-8.248170108E-1,2.399231170E0
5.746308917E0,-1.614403962E0,1.651171839E0,-6.649734306E-1,2.403093477E0
5.756315917E0,-1.548235701E0,1.395260260E0,-5.771850890E-1,2.162620541E0
5.766321917E0,-1.386440905E0,1.201453128E0,-5.499838418E-1,1.915252001E0
5.776327917E0,-1.124300579E0,9.972514004E-1,-3.122015548E-1,1.534937119E0
5.786333917E0,-8.899453452E-1,7.671622950E-1,2.431786823E-1,1.199865232E0
5.796339917E0,-7.621770320E-1,6.272097731E-1,9.421652202E-1,1.364544330E0
5.806345917E0,-5.563731674E-1,5.905412990E-1,1.548478214E0,1.748163295E0
5.816351917E0,-1.548337588E-1,5.596691698E-1,2.099530342E0,2.178355051E0
5.826357917E0,2.200836423E-1,7.654011136E-1,2.563514067E0,2.684377031E0
5.836363917E0,6.540415493E-1,1.035741867E0,2.836035247E0,3.089276207E0
5.846369917E0,1.101706061E0,1.361556909E0,3.062216073E0,3.527713245E0
5.856375917E0,1.441036357E0,1.728431684E0,3.181669427E0,3.897060714E0
5.866381917E0,1.740980102E0,2.037611983E0,2.692918797E0,3.799300719E0
5.876388917E0,2.008325619E0,1.979525743E0,1.439137620E0,3.165913935E0
5.886394917E0,1.883763261E0,1.732407206E0,4.904870338E-1,2.605835045E0
5.896400917E0,1.725273896E0,1.498583484E0,8.342221840E-1,2.432745183E0
5.906406917E0,1.805005066E0,1.411388050E0,2.303322326E0,3.248900315E0
5.916412917E0,1.287757446E0,1.316733323E0,4.100716656E0,4.495329018E0
5.926418917E0,2.952349449E-1,6.937551802E-1,5.445021940E0,5.496974064E0
5.936424917E0,-4.199359550E-1,1.351466954E-2,5.859306525E0,5.874351182E0
5.946430917E0,-1.049624180E-1,6.683601379E-2,5.208817232E0,5.210303362E0
5.956436917E0,9.302164350E-1,4.467635286E-1,4.588781700E0,4.703383650E0
5.966442917E0,1.495064338E0,5.605281258E-1,4.338982508E0,4.623437937E0
5.976448917E0,1.580909649E0,3.652205980E-1,4.499870401E0,4.783460571E0
5.986455917E0,1.616695194E0,2.019195592E-1,4.419757699E0,4.710491798E0
5.996461917E0,1.396143774E0,1.363336802E-2,3.528397036E0,3.794599972E0
6.006467917E0,9.421603232E-1,-1.745423108E-1,2.344344491E0,2.532603835E0
6.016473917E0,3.284307211E-1,-3.318318272E-1,1.252600916E0,1.336782763E0
6.026479917E0,-1.213049472E-1,-3.174850988E-1,-6.146734889E-1,7.023782287E-1
6.036485917E0,-2.544296023E-1,-4.494555867E-1,-3.062016098E0,3.105267675E0
6.046491917E0,-5.175572303E-1,-1.105041313E0,-4.290407349E0,4.460557926E0
6.056497917E0,-1.328716607E0,-1.963149446E0,-4.202129595E0,4.824659232E0
6.066503917E0,-2.191637876E0,-2.749273676E0,-4.210992805E0,5.485821974E0
6.076509917E0,-2.458991871E0,-3.661859148E0,-4.084542089E0,6.011600246E0
6.086515917E0,-2.067832294E0,-4.549277619E0,-3.211516831E0,5.940176564E0
6.096522917E0,-1.199576464E0,-4.922266828E0,-1.817413443E0,5.382442386E0
6.106528917E0,-8.397164471E-2,-4.829260431E0,-6.818059565E-1,4.877875245E0
6.116534917E0,1.079882352E0,-4.605536020E0,1.015757838E-1,4.731535223E0
6.126540917E0,2.035452021E0,-4.078010164E0,5.156083533E-1,4.586838105E0
6.136546917E0,2.738621804E0,-3.395070578E0,-1.382138523E-1,4.364132982E0
6.146552917E0,3.116363044E0,-2.597541938E0,-1.442207847E0,4.305683014E0
6.156558917E0,3.156990083E0,-1.653356359E0,-2.666804839E0,4.451069724E0
6.166564917E0,2.752234706E0,-9.076153386E-1,-3.237533433E0,4.345133394E0
6.176570917E0,2.012581661E0,-3.018742025E-1,-3.118307536E0,3.723634631E0
6.186576917E0,1.143993271E0,5.492114246E-2,-2.689321882E0,2.923044495E0
6.196582917E0,3.265842435E-1,3.314757317E-1,-2.336719868E0,2.382602184E0
6.206589917E0,-3.415475607E-1,5.585067433E-1,-2.228432942E0,2.322605842E0
6.216595917E0,-1.002222411E0,7.529833817E-1,-2.115937775E0,2.459395536E0
6.226601917E0,-1.363024560E0,1.000383169E0,-2.013843636E0,2.629480676E0
6.236607917E0,-1.376935379E0,1.398031256E0,-1.935428381E0,2.756143219E0
6.246613917E0,-1.264880946E0,1.792190893E0,-1.938042379E0,2.927094168E0
6.256619917E0,-1.174620109E0,2.138878741E0,-2.050938080E0,3.187613790E0
6.266625917E0,-1.293144486E0,2.359090145E0,-2.102782125E0,3.414560241E0
6.276631917E0,-1.499231648E0,2.412378745E0,-2.053781288E0,3.505036993E0
6.286637917E0,-1.793687927E0,2.354494818E0,-2.019847265E0,3.583398555E0
6.296643917E0,-2.221590676E0,2.199685106E0,-1.949818671E0,3.684545094E0
6.306649917E0,-2.764808851E0,1.934011601E0,-1.596024410E0,3.732541061E0
6.316655917E0,-3.122768084E0,1.763443058E0,-1.153290782E0,3.767159614E0
6.326662917E0,-3.114221794E0,1.653185036E0,-6.606099460E-1,3.587172096E0
6.336668917E0,-2.677295036E0,1.733634537E0,-3.035441673E-1,3.203987591E0
6.346674917E0,-2.083100105E0,1.800644798E0,-3.955816805E-2,2.753759718E0
6.356680917E0,-1.396346673E0,2.049516914E0,4.342031246E-1,2.517704503E0
6.366686917E0,-4.402718036E-1,2.225567806E0,8.511818138E-1,2.423118198E0
6.376692917E0,6.333894029E-1,2.520820037E0,1.103576000E0,2.823755617E0
6.386698917E0,1.457564828E0,2.931803284E0,1.585103272E0,3.637652829E0
6.396704917E0,2.064299114E0,3.116284107E0,2.615609542E0,4.562233087E0
6.406710917E0,2.873207459E0,3.067431790E0,2.842430347E0,5.073841657E0
6.416716917E0,3.662971873E0,2.462772388E0,1.878049946E0,4.796840875E0
6.426722917E0,3.507701985E0,1.759514898E0,1.580705874E0,4.230661527E0
6.436729917E0,3.022237490E0,1.400529771E0,2.615360743E0,4.235034227E0
6.446735917E0,2.593782179E0,5.697065002E-1,3.556103482E0,4.438259058E0
6.456741917E0,2.272386316E0,-3.563585579E-1,4.435831988E0,4.996732574E0
6.466747917E0,2.023875119E0,-6.870267892E-1,5.309872321E0,5.723881583E0
6.476753917E0,1.873787472E0,-6.212859589E-1,6.081727592E0,6.394097765E0
6.486759917E0,2.337344350E0,-8.456757832E-1,6.638407665E0,7.088497899E0
6.496765917E0,3.149374085E0,-1.996151131E0,4.753168859E0,6.041174610E0
6.506771917E0,3.140122913E0,-4.302497052E0,-5.979444587E-1,5.359980445E0
6.516777917E0,2.092777831E0,-6.302152419E0,-5.534743956E0,8.644665108E0
6.526783917E0,1.072404640E0,-7.165372773E0,-7.877732624E0,1.070286363E1
6.536789917E0,2.524200605E-1,-6.797949529E0,-6.124255561E0,9.153269353E0
6.546795917E0,7.996323220E-1,-5.367928156E0,-1.082311139E0,5.534027642E0
6.556802917E0,2.584865760E0,-3.879724064E0,2.263393737E0,5.182348987E0
6.566808917E0,3.040880168E0,-2.916543805E0,1.606872456E0,4.509458843E0
6.576814917E0,1.299907960E0,-3.329142637E0,-9.661395353E-1,3.702212447E0
6.586820917E0,-7.087470026E-1,-3.503049940E0,-3.574913683E0,5.055065681E0
6.596826917E0,-2.217883542E0,-3.691897464E0,-5.961121752E0,7.354188387E0
6.606832917E0,-4.035555285E0,-3.931245051E0,-6.145468090E0,8.337096146E0
6.616838917E0,-4.926599615E0,-3.616494110E0,-2.848821061E0,6.742862512E0
6.626844917E0,-4.591568191E0,-3.144057797E0,-3.375922117E-1,5.575084428E0
6.636850917E0,-3.647156617E0,-2.452108821E0,7.754121315E-1,4.462718122E0
6.646856917E0,-2.280172614E0,-1.691205386E0,1.034876479E0,3.021643946E0
6.656862708E0,-1.209311493E0,-9.479886085E-1,-5.914043480E-1,1.646473745E0
6.666869708E0,-6.427309147E-1,-4.663236344E-1,-2.020265048E0,2.170721453E0
6.676875708E0,-8.860155778E-1,-3.366546106E-1,-1.918948881E0,2.140262773E0
6.686881708E0,-1.494036543E0,-4.425927097E-1,-1.133964857E0,1.927150694E0
6.696887708E0,-1.968787770E0,-4.934096915E-1,-5.058306393E-1,2.091755971E0
6.706893708E0,-2.028215653E0,-3.128921109E-1,-9.923806697E-2,2.054606630E0
6.716899708E0,-1.934505544E0,1.112959027E-1,-1.918793052E-2,1.937799436E0
6.726905708E0,-1.719802656E0,7.802793539E-1,-1.548529816E-1,1.894871101E0
6.736911708E0,-1.265556007E0,1.583825364E0,-3.337728104E-1,2.054638430E0
6.746917708E0,-6.506207089E-1,2.235149639E0,-3.668236122E-1,2.356641843E0
6.756923708E0,-3.456280401E-1,2.827394232E0,-4.628024411E-1,2.885793302E0
6.766929708E0,-5.496227762E-1,3.293200972E0,-9.846582520E-1,3.480920814E0
6.776935708E0,6.657493562E-2,3.131283385E0,-1.090719143E0,3.316479474E0
6.786942708E0,-3.033070627E-1,3.190173617E0,-1.405121005E0,3.499081011E0
6.796948708E0,-7.818262348E-1,3.104336491E0,-8.522071230E-1,3.312765354E0
6.806954708E0,-9.030052476E-1,2.877849271E0,1.251976579E-2,3.016221419E0
6.816960708E0,-1.067925819E0,2.680930835E0,3.458090115E-1,2.906447930E0
6.826966708E0,-7.036428219E-1,2.529773878E0,7.129182601E-1,2.720867792E0
6.836972708E0,-3.587217832E-1,2.478993149E0,5.319356798E-1,2.560672552E0
6.846978708E0,-1.215258989E-1,2.289111253E0,1.159707516E-1,2.295266453E0
6.856984708E0,8.741316967E-2,1.974025851E0,1.732300495E-1,1.983539204E0
6.866990708E0,1.836485452E-1,1.686990713E0,8.640069504E-1,1.904251156E0
6.876996708E0,2.142625199E-1,1.447875845E0,1.617304328E0,2.181267104E0
6.887002708E0,7.028992753E-2,9.855674940E-1,2.106492622E0,2.326713374E0
6.897009708E0,2.454715583E-1,6.728502148E-1,2.315112944E0,2.423371957E0
6.907015708E0,5.334721819E-1,7.273316467E-1,2.482718410E0,2.641494766E0
6.917021708E0,1.084088692E0,8.859999365E-1,2.622234730E0,2.972601413E0
6.927027708E0,1.765709146E0,1.447996298E0,2.885300962E0,3.679590155E0
6.937033708E0,2.616488964E0,2.217254820E0,2.785339887E0,4.418184211E0
6.947039708E0,2.818404430E0,2.496965736E0,1.827581020E0,4.185486089E0
6.957045708E0,2.267763361E0,1.873443217E0,1.270230417E0,3.204063898E0
6.967051708E0,1.681920885E0,1.170518433E0,1.211792175E0,2.380632592E0
6.977057708E0,1.427669622E0,7.035118443E-1,1.853060847E0,2.442745170E0
6.987063708E0,8.661609185E-1,2.774509674E-1,3.001750601E0,3.136514060E0
6.997069708E0,-1.476041883E-1,-3.023934352E-1,4.147543498E0,4.161171212E0
7.007075708E0,-8.667061713E-1,-7.891495800E-1,4.580335105E0,4.727938908E0
7.017081708E0,2.333510477E-2,-4.389855623E-1,3.843999331E0,3.869054627E0
7.027088708E0,1.529296277E0,2.820860553E-1,3.095675011E0,3.464321494E0
7.037094708E0,1.978886349E0,5.079107863E-1,3.602919214E0,4.141858450E0
7.047100708E0,1.999895980E0,2.174573654E-1,4.326394038E0,4.771221752E0
7.057106708E0,2.104257085E0,-3.978960085E-1,4.193513723E0,4.708691587E0
7.067112708E0,1.879757918E0,-9.168492615E-1,3.745321720E0,4.289701293E0
7.077118708E0,1.172553557E0,-1.096685057E0,3.582888408E0,3.926154518E0
7.087124708E0,6.033124951E-1,-1.104871159E0,2.868728784E0,3.132783280E0
7.097130708E0,3.376047101E-1,-9.877566916E-1,6.574438249E-1,1.233642008E0
7.107136708E0,1.900174056E-1,-5.700193262E-1,-3.002706036E0,3.062233202E0
7.117142708E0,-1.631965198E-1,-5.845022947E-1,-2.374646224E0,2.450963224E0
7.127148708E0,-5.366425422E-1,-7.033352584E-1,-3.530393275E0,3.639552497E0
7.137155708E0,-7.847593443E-1,-1.505602482E0,-4.057317452E0,4.398239531E0
7.147161708E0,-1.277545430E0,-2.793964530E0,-3.813291801E0,4.896892329E0
7.157167708E0,-1.888102625E0,-3.447565126E0,-3.969890176E0,5.586650592E0
7.167173708E0,-1.693916009E0,-3.798689842E0,-3.381127893E0,5.360169940E0
7.177179708E0,-5.437648894E-1,-4.265804604E0,-2.358421955E0,4.904581867E0
7.187185708E0,6.317520364E-1,-4.741577924E0,-1.351673507E0,4.970783954E0
7.197191708E0,8.726125900E-1,-4.214636205E0,-5.895031258E-1,4.344205912E0
7.207197708E0,1.141677042E0,-3.307111498E0,-2.855686569E-1,3.510265287E0
7.217203708E0,1.644884036E0,-2.713434337E0,-6.817490923E-1,3.245481662E0
7.227209708E0,2.123390344E0,-1.932897706E0,-1.354944878E0,3.175020585E0
7.237215708E0,2.331355486E0,-1.144792439E0,-1.999602450E0,3.277831308E0
7.247221708E0,2.315399896E0,-2.217661786E-1,-2.357156763E0,3.311562309E0
7.257227708E0,2.283304968E0,2.206815201E-1,-2.460027705E0,3.363616836E0
7.267234708E0,1.777297743E0,5.576536345E-1,-2.255937660E0,2.925580210E0
7.277240708E0,1.086895648E0,3.340432441E-1,-2.229001876E0,2.502274246E0
7.287246708E0,2.081154151E-1,5.625576943E-1,-2.380408216E0,2.454816992E0
7.297252708E0,-5.185775694E-1,9.791992915E-1,-2.050824936E0,2.331016273E0
7.307258708E0,-1.050807072E0,1.374215546E0,-1.693215951E0,2.420670181E0
7.317264708E0,-1.151910693E0,1.374826580E0,-1.896689115E0,2.610455127E0
7.327270708E0,-1.455277543E0,1.923341017E0,-2.306064670E0,3.336915890E0
7.337276708E0,-1.722415192E0,2.218911921E0,-2.288323048E0,3.623079709E0
7.347282708E0,-1.922491124E0,2.293748095E0,-2.085372917E0,3.647743501E0
7.357288708E0,-2.268890412E0,2.276078979E0,-1.760031792E0,3.664165816E0
7.367294708E0,-2.599070693E0,2.221284136E0,-1.478403281E0,3.724909119E0
7.377300708E0,-2.832718998E0,2.050868790E0,-1.056138417E0,3.653188754E0
7.387307708E0,-3.221624036E0,1.848195525E0,-5.252574286E-1,3.751077644E0
7.397313708E0,-3.252823609E0,1.901702811E0,-4.920782804E-2,3.768256417E0
7.407319708E0,-2.898672960E0,2.138481715E0,4.266920838E-1,3.627323408E0
7.417325708E0,-2.360639804E0,2.126287932E0,9.255554733E-1,3.309134870E0
7.427331708E0,-1.913733164E0,2.046778078E0,1.065047819E0,2.997666089E0
7.437337708E0,-1.230736276E0,2.310371144E0,8.075554454E-1,2.739465715E0
7.447343708E0,-2.424559665E-1,2.795752024E0,6.657721603E-1,2.884140573E0
7.457349708E0,9.517157699E-1,3.264146158E0,9.625905678E-1,3.533694051E0
7.467355708E0,2.722529389E0,3.440882344E0,5.010262746E-1,4.416204808E0
7.477361708E0,4.631175183E0,3.072693114E0,-4.240599597E-1,5.573962092E0
7.487367708E0,4.755165099E0,2.428177337E0,7.605175191E-1,5.393146317E0
7.497373708E0,3.929042697E0,1.952685269E0,3.511370528E0,5.619615580E0
7.507379708E0,3.080686258E0,1.071021042E0,5.100142636E0,6.053855697E0
7.517386708E0,2.300560832E0,-1.774121243E-1,5.479486599E0,5.945488087E0
7.527392708E0,2.028034536E0,-9.763926280E-1,5.893492856E0,6.308686447E0
7.537398708E0,1.951971616E0,-1.278010722E0,6.372521905E0,6.786202180E0
7.547404708E0,2.444515335E0,-1.222990177E0,6.399159481E0,6.958491378E0
7.557410708E0,3.701980111E0,-1.836335617E0,3.738973398E0,5.572854503E0
7.567416708E0,3.339566469E0,-3.890634384E0,-2.071556239E0,5.530016760E0
7.577422708E0,1.127757453E0,-6.315670012E0,-6.500064297E0,9.132927266E0
7.587428708E0,-6.201160772E-1,-7.188268130E0,-8.138256487E0,1.087598094E1
7.597434708E0,-1.379780049E0,-6.911643959E0,-6.000130282E0,9.256142750E0
7.607440708E0,-1.206749243E0,-6.225273812E0,-8.561118937E-1,6.398687783E0
7.617446708E0,1.036450842E0,-4.412152226E0,2.714353520E0,5.282900022E0
7.627452708E0,2.735905187E0,-2.340900627E0,2.705294721E0,4.503733170E0
7.637459708E0,2.148562607E0,-2.296050729E0,7.402826446E-1,3.230509034E0
7.647465708E0,4.734443736E-1,-2.750377631E0,-2.413378619E0,3.689596596E0
7.657472333E0,-1.200136920E0,-2.733609570E0,-5.590322326E0,6.337558963E0
7.667478333E0,-3.174262758E0,-2.972492888E0,-6.290924596E0,7.647704904E0
7.677484333E0,-4.579437557E0,-3.191688631E0,-3.914905007E0,6.817962003E0
7.687490333E0,-4.824301115E0,-3.095238808E0,-1.400201157E0,5.900419291E0
7.697496333E0,-4.289119792E0,-2.541411592E0,2.045306334E-1,4.989704826E0
7.707502333E0,-3.201503182E0,-1.585286583E0,1.099839337E0,3.737967729E0
7.717508333E0,-1.857722539E0,-8.972020322E-1,1.185368022E-1,2.066435456E0
7.727514333E0,-8.597982708E-1,-7.307867664E-1,-1.252190588E0,1.685610759E0
7.737520333E0,-6.245131834E-1,-6.991217548E-1,-1.563325903E0,1.822848272E0
7.747526333E0,-8.853446098E-1,-6.491175359E-1,-1.327297195E0,1.722471044E0
7.757532333E0,-1.098647675E0,-6.318056846E-1,-9.926151431E-1,1.609810535E0
7.767539333E0,-1.203901357E0,-5.695591503E-1,-7.756968910E-1,1.541259800E0
7.777545333E0,-1.393437098E0,-2.736900383E-1,-7.115003103E-1,1.588334308E0
7.787551333E0,-1.484605715E0,3.947589773E-1,-4.576317483E-1,1.602908481E0
7.797557333E0,-1.299939389E0,1.193432502E0,-7.327350587E-2,1.766208527E0
7.807563333E0,-8.918750726E-1,1.823209788E0,4.932389528E-2,2.030263018E0
7.817569333E0,-4.218336323E-1,2.191386738E0,-1.437146205E-1,2.236240895E0
7.827575333E0,9.519413263E-3,2.592848378E0,-3.689426431E-1,2.618983010E0
7.837581333E0,2.774780108E-1,2.931886899E0,-6.131118438E-1,3.008132472E0
7.847587333E0,3.277139255E-1,3.040771995E0,-6.248627007E-1,3.121561169E0
7.857593333E0,1.815876210E-1,3.077834571E0,-4.288622779E-1,3.112870470E0
7.867599333E0,-1.946169716E-1,3.049108955E0,-2.180017412E-1,3.063081119E0
7.877605333E0,-6.704788765E-1,2.991409800E0,6.088822603E-2,3.066232524E0
7.887611333E0,-8.972637203E-1,2.709644172E0,1.861847019E-1,2.860405298E0
7.897618333E0,-7.246293560E-1,2.484694769E0,1.721069455E-2,2.588260421E0
7.907624333E0,-6.131019766E-1,2.149764503E0,-1.775356467E-1,2.242520982E0
7.917630333E0,-6.091983023E-1,1.741804267E0,3.639599383E-2,1.845624378E0
7.927636333E0,-6.833187774E-1,1.409670138E0,7.618916148E-1,1.742002665E0
7.937642333E0,-7.533173309E-1,1.063271143E0,1.354920758E0,1.879851798E0
7.947648333E0,-5.031055444E-1,8.643938899E-1,1.687689455E0,1.961781762E0
7.957654333E0,-9.254534394E-2,8.014486134E-1,1.884925979E0,2.050324479E0
7.967660333E0,3.955939597E-1,8.011059666E-1,2.203637824E0,2.377874053E0
7.977666333E0,8.729200074E-1,1.051134077E0,2.532079436E0,2.877203235E0
7.987672333E0,1.510102499E0,1.420668166E0,2.831578499E0,3.509493467E0
7.997678333E0,1.919487409E0,2.040157276E0,3.012774357E0,4.113816105E0
8.007684333E0,2.485929701E0,2.276775967E0,2.004285046E0,3.921825319E0
8.017690333E0,2.462069553E0,2.170470078E0,8.743914592E-1,3.396658250E0
8.027697333E0,1.909472006E0,1.792566285E0,1.047718572E0,2.820831692E0
8.037703333E0,1.740090740E0,1.382997479E0,2.174421626E0,3.109454489E0
8.047709333E0,1.593703942E0,1.282309595E0,3.726335226E0,4.250856898E0
8.057715333E0,8.529663840E-1,1.064214299E0,5.071797089E0,5.251973861E0
8.067721333E0,-1.282619644E-2,6.084811413E-1,5.765318381E0,5.797353693E0
8.077727333E0,2.692119482E-1,5.480583537E-1,5.263537815E0,5.298836982E0
8.087733333E0,1.151746240E0,7.723142767E-1,4.382166535E0,4.596343360E0
8.097739333E0,1.400713666E0,6.180553722E-1,4.149627446E0,4.423053149E0
8.107745333E0,1.399229058E0,-1.212496179E-1,4.099738417E0,4.333635716E0
8.117751333E0,1.310428271E0,-8.108310556E-1,3.681236821E0,3.990761053E0
8.127757333E0,9.583893433E-1,-1.055979080E0,3.232450740E0,3.533035485E0
8.137763333E0,4.294712288E-1,-1.132633154E0,2.847050816E0,3.094026785E0
8.147769333E0,1.378750793E-1,-1.192848950E0,8.856124122E-1,1.492048089E0
8.157776333E0,-6.912132494E-2,-1.184129582E0,-6.737172107E-1,1.364124446E0
8.167782333E0,-5.443102884E-1,-1.392662342E0,-1.246946805E0,1.946961331E0
8.177788333E0,-4.941008323E-1,-1.627537394E0,-3.211352817E0,3.633978607E0
8.187794333E0,-3.736718711E-1,-1.951308249E0,-4.834177939E0,5.226519961E0
8.197800333E0,-1.009138571E0,-2.746223184E0,-4.604084741E0,5.455061753E0
8.207806333E0,-1.292830490E0,-3.507008505E0,-4.510257980E0,5.857725359E0
8.217812333E0,-1.105523416E0,-4.079313508E0,-3.588660779E0,5.544498797E0
8.227818333E0,-2.470436919E-1,-4.243347788E0,-2.690432560E0,5.030453101E0
8.237824333E0,8.882072604E-1,-4.228122808E0,-2.181488571E0,4.839920144E0
8.247830333E0,1.817676714E0,-3.923862357E0,-1.477523275E0,4.569870836E0
8.257836333E0,2.141062969E0,-3.439627531E0,-6.424107796E-1,4.102179884E0
8.267842333E0,2.065939258E0,-3.041289473E0,-2.354010084E-1,3.684149876E0
8.277848333E0,1.833297404E0,-2.609136967E0,-4.278314137E-1,3.217392547E0
8.287855333E0,1.648965685E0,-1.958432497E0,-9.859844005E-1,2.743485176E0
8.297861333E0,1.641530950E0,-1.109723178E0,-1.712708521E0,2.619060876E0
8.307867333E0,1.671629639E0,-3.709917998E-1,-2.363574083E0,2.918640610E0
8.317873333E0,1.437733119E0,2.337553096E-1,-2.630851479E0,3.007174350E0
8.327879333E0,9.960259701E-1,5.395699507E-1,-2.737301795E0,2.962435582E0
8.337885333E0,5.333771646E-1,8.906642604E-1,-2.583691639E0,2.784463415E0
8.347891333E0,1.175724502E-1,1.225488693E0,-2.278887104E0,2.590168383E0
8.357897333E0,-4.452562626E-1,1.378756494E0,-2.037112338E0,2.499809850E0
8.367903333E0,-1.159461641E0,1.352092606E0,-1.867674939E0,2.580836180E0
8.377909333E0,-1.802021232E0,1.427290138E0,-1.726104493E0,2.874695528E0
8.387915333E0,-2.063958367E0,1.630408376E0,-1.818452493E0,3.197643677E0
8.397921333E0,-2.326732385E0,1.748549615E0,-2.058797907E0,3.565074777E0
8.407927333E0,-2.581364447E0,1.797498996E0,-2.191483802E0,3.833672691E0
8.417933333E0,-2.894839818E0,1.735357711E0,-2.100568954E0,3.975418706E0
8.427939333E0,-3.151511242E0,1.802867909E0,-2.065002972E0,4.176911908E0
8.437946333E0,-3.218278259E0,1.829730603E0,-2.101038778E0,4.256711521E0
8.447952333E0,-3.209886043E0,1.879215589E0,-1.832892192E0,4.146602636E0
8.457958333E0,-2.882267427E0,2.046488641E0,-1.212430398E0,3.737053485E0
8.467964333E0,-2.510454970E0,2.211643247E0,-4.541824758E-1,3.376393302E0
8.477970333E0,-2.074565216E0,2.377774338E0,-3.030027151E-2,3.155716994E0
8.487976333E0,-1.332381057E0,2.576527630E0,1.702943087E-2,2.900693695E0
8.497982333E0,-3.274145481E-1,2.692893069E0,-3.931930929E-2,2.713009284E0
8.507988333E0,7.773399585E-1,2.869607620E0,3.149494538E-1,2.989665276E0
8.517994333E0,2.020667921E0,2.936278743E0,8.171372777E-1,3.656849058E0
8.528000333E0,3.533673271E0,2.758737395E0,5.840555674E-1,4.520906956E0
8.538006333E0,4.648424177E0,2.446411294E0,5.570311984E-1,5.282334646E0
8.548012333E0,4.738170167E0,1.653185620E0,1.757381541E0,5.317110974E0
8.558019333E0,3.695988176E0,5.828796923E-1,3.238440043E0,4.948491816E0
8.568025333E0,2.376970492E0,-9.992382842E-1,3.834158175E0,4.620523215E0
8.578031333E0,1.249056188E0,-2.451942176E0,4.826431548E0,5.555772069E0
8.588037333E0,1.050170018E0,-2.483846338E0,6.415748616E0,6.959466934E0
8.598043333E0,1.580171438E0,-1.513787999E0,7.625771424E0,7.933529207E0
8.608049333E0,3.312835338E0,-1.474533302E-1,7.640736787E0,8.329314444E0
8.618055333E0,5.235943635E0,5.009999621E-1,4.577686024E0,6.972898683E0
8.628061333E0,5.344286694E0,-9.160522860E-1,-1.321866886E0,5.581028948E0
8.638067333E0,3.447542322E0,-3.757978603E0,-5.942940420E0,7.831123296E0
8.648073333E0,4.957592489E-1,-5.867607817E0,-7.514258004E0,9.546657639E0
8.658079292E0,-1.134128287E0,-6.480194288E0,-6.919974487E0,9.548047544E0
8.668085292E0,-1.299797448E0,-6.940406413E0,-3.878420720E0,8.056107116E0
8.678091292E0,-8.356521937E-1,-6.527336880E0,9.179625714E-1,6.644328154E0
8.688097292E0,4.320960805E-1,-4.818010973E0,2.942091167E0,5.661787456E0
8.698103292E0,1.057737192E0,-3.028888698E0,1.706199693E0,3.633743539E0
8.708110292E0,1.345280600E-1,-2.627096690E0,-5.709455252E-1,2.691786323E0
8.718116292E0,-1.107160782E0,-2.529025435E0,-3.035445473E0,4.103133421E0
8.728122292E0,-2.452639456E0,-2.298283195E0,-4.763690339E0,5.830119347E0
8.738128292E0,-4.420002113E0,-2.476030365E0,-4.465203429E0,6.753161238E0
8.748134292E0,-5.761504827E0,-2.666304610E0,-2.431777468E0,6.798357139E0
8.758140292E0,-5.643939539E0,-2.528237230E0,-2.430599838E-2,6.184385806E0
8.768146292E0,-4.664281241E0,-1.819787412E0,1.457191045E0,5.214456008E0
8.778152292E0,-3.019789846E0,-9.610968965E-1,1.040424317E0,3.335464093E0
8.788158292E0,-1.135532349E0,-4.185624075E-1,-5.814994571E-1,1.342672642E0
8.798164292E0,-2.328653634E-2,1.556762695E-2,-1.761787126E0,1.762009788E0
8.808170292E0,-8.660895824E-3,2.376396149E-1,-1.826943820E0,1.842354829E0
8.818176292E0,-5.836192189E-1,2.331425214E-1,-1.313785450E0,1.456365008E0
8.828182292E0,-1.324496379E0,1.145165491E-1,-1.009318299E0,1.669169892E0
8.838188292E0,-1.911403341E0,-8.694283426E-2,-1.016806828E0,2.166775927E0
8.848195292E0,-2.335641349E0,1.100598013E-1,-9.160867846E-1,2.511284266E0
8.858201292E0,-2.323666251E0,6.682771075E-1,-6.166005850E-1,2.495238550E0
8.868207292E0,-1.748642001E0,1.322682281E0,-3.056693378E-1,2.213745922E0
8.878213292E0,-9.962809087E-1,2.075842833E0,-1.239694503E-1,2.305876740E0
8.888219292E0,-3.711802264E-1,2.720941578E0,-2.001382050E-1,2.753425708E0
8.898225292E0,7.470373482E-2,3.175477810E0,-2.670891166E-1,3.187565931E0
8.908231292E0,2.394174609E-1,3.430385422E0,-1.582677555E-1,3.442370338E0
8.918237292E0,2.465361536E-1,3.350235883E0,-1.170998490E-1,3.361334991E0
8.928243292E0,1.655352598E-1,3.184787747E0,-1.612293702E-1,3.193159849E0
8.938249292E0,-1.303034467E-1,3.078025190E0,-2.199938875E-1,3.088626777E0
8.948255292E0,-4.552902308E-1,2.687871480E0,-6.602032721E-2,2.726958190E0
8.958261292E0,-8.114854322E-1,2.195440028E0,2.019438252E-2,2.340699326E0
8.968267292E0,-9.409769198E-1,1.724467857E0,-1.462505579E-1,1.969927963E0
8.978273292E0,-6.946664688E-1,1.335933825E0,-3.115267861E-1,1.537637677E0
8.988280292E0,-3.349565792E-1,9.416005254E-1,-3.285456920E-1,1.052021735E0
8.998286292E0,-2.903142571E-4,7.641416234E-1,2.403000981E-1,8.010347321E-1
9.008292292E0,1.478532797E-1,7.038334411E-1,1.152707230E0,1.358667017E0
9.018298292E0,3.539477144E-1,6.980832893E-1,1.840322103E0,1.999846170E0
9.028304292E0,7.554880366E-1,8.939603359E-1,2.255796011E0,2.541366345E0
9.038310292E0,1.218193706E0,1.001722766E0,2.293915764E0,2.783791289E0
9.048316292E0,1.489125321E0,1.031282780E0,2.101861188E0,2.774681756E0
9.058322292E0,1.698178483E0,1.320088456E0,2.297567935E0,3.147262637E0
9.068328292E0,1.712161222E0,1.680666364E0,2.556453554E0,3.505936430E0
9.078334292E0,1.827640808E0,1.644027711E0,2.637471405E0,3.605461614E0
9.088340292E0,1.594381050E0,1.451288280E0,2.393405115E0,3.221284938E0
9.098346292E0,1.359040267E0,1.311576079E0,2.089640508E0,2.816703696E0
9.108352292E0,1.507713912E0,1.315268011E0,2.194092098E0,2.969372209E0
9.118358292E0,1.644790188E0,1.080533293E0,2.769993285E0,3.397903730E0
9.128364292E0,9.895620194E-1,7.498638922E-1,3.656966783E0,3.861985875E0
9.138371292E0,-1.370441169E-2,3.495085448E-1,4.406365821E0,4.420226667E0
9.148377292E0,-6.300693539E-1,-1.376019412E-1,4.379183285E0,4.426417053E0
9.158383292E0,-2.485315342E-1,-3.374726361E-1,3.748380398E0,3.771738500E0
9.168389292E0,8.602219015E-1,-1.415569979E-1,3.151423534E0,3.269784457E0
9.178395292E0,1.392971660E0,-2.259346586E-1,3.074899853E0,3.383256660E0
9.188401292E0,1.671516641E0,-7.435512382E-1,3.088857157E0,3.589968644E0
9.198407292E0,1.534453521E0,-1.157786121E0,2.999763717E0,3.562807695E0
9.208413292E0,1.023992179E0,-1.342321908E0,3.093320922E0,3.524063338E0
9.218419292E0,2.922245425E-1,-1.339370819E0,3.667206427E0,3.915062241E0
9.228425292E0,-6.218367666E-2,-1.039299313E0,2.591487147E0,2.792814978E0
9.238431292E0,-1.057992277E-1,-5.651509345E-1,-5.385519505E-2,5.774854434E-1
9.248437292E0,-3.975612554E-1,-1.964617682E-1,-1.606620149E0,1.666697477E0
9.258443292E0,-6.232611483E-1,2.237478000E-1,-2.296713218E0,2.390273864E0
9.268449292E0,-7.172873727E-1,5.120465219E-2,-2.774499734E0,2.866177222E0
9.278456292E0,-7.472947718E-1,-3.418329048E-1,-3.738329327E0,3.827584795E0
9.288462292E0,-7.027806500E-1,-9.223415512E-1,-4.045651088E0,4.208551687E0
9.298468292E0,-5.804931512E-1,-1.831153815E0,-3.617328508E0,4.095749275E0
9.308474292E0,-3.032000586E-1,-2.742269297E0,-2.784772707E0,3.920067627E0
9.318480292E0,8.349414647E-2,-3.619473267E0,-1.764366918E0,4.027474223E0
9.328486292E0,3.202386989E-1,-4.081714960E0,-1.051238304E0,4.227061841E0
9.338492292E0,2.462686434E-1,-4.011117432E0,-5.766360354E-1,4.059830097E0
9.348498292E0,6.167891577E-2,-3.669245351E0,-3.746927950E-1,3.688842695E0
9.358504292E0,1.861977120E-1,-3.142672006E0,-4.940444067E-1,3.186712539E0
9.368510292E0,5.463293320E-1,-2.374937854E0,-9.360024011E-1,2.610537501E0
9.378516292E0,1.189787202E0,-1.463481479E0,-1.465529467E0,2.388545215E0
9.388522292E0,1.835513937E0,-4.080602235E-1,-1.941138479E0,2.702525329E0
9.398528292E0,2.007796884E0,4.092577332E-1,-2.210800956E0,3.014362467E0
9.408534292E0,1.740479872E0,9.821445340E-1,-2.072570731E0,2.879136590E0
9.418540292E0,1.282818011E0,1.022791454E0,-2.083554433E0,2.651965966E0
9.428547292E0,4.713200802E-1,9.595777899E-1,-2.244057872E0,2.485704706E0
9.438553292E0,-4.234521416E-1,1.033470808E0,-2.258886411E0,2.519909015E0
9.448559292E0,-1.073181442E0,1.083110746E0,-1.969270019E0,2.490556504E0
9.458565292E0,-1.518083218E0,1.077635413E0,-1.637659801E0,2.479476631E0
9.468571292E0,-1.992591931E0,1.069076259E0,-1.683394968E0,2.819071703E0
9.478577292E0,-2.358658913E0,9.863755792E-1,-1.819240698E0,3.137809007E0
9.488583292E0,-2.542595945E0,1.073499677E0,-1.837847707E0,3.315852815E0
9.498589292E0,-2.744119356E0,1.189603745E0,-1.630403991E0,3.406400635E0
9.508595292E0,-3.025632676E0,1.337007374E0,-1.356089762E0,3.575055420E0
9.518601292E0,-3.306677050E0,1.505340527E0,-1.150279758E0,3.810945649E0
9.528607292E0,-3.407319618E0,1.625423040E0,-8.060684985E-1,3.860255622E0
9.538613292E0,-3.014993960E0,1.824816602E0,-5.496102047E-1,3.566821496E0
9.548619292E0,-2.419966969E0,1.943299903E0,-3.044648114E-1,3.118549898E0
9.558625292E0,-2.108686643E0,2.130854607E0,1.379130131E-1,3.001019946E0
9.568631292E0,-1.654769046E0,2.651192481E0,5.839228356E-1,3.179315657E0
9.578637292E0,-7.890902308E-1,2.807011423E0,7.331569353E-1,3.006575396E0
9.588644292E0,8.544068456E-2,2.901085521E0,9.614643940E-1,3.057451732E0
9.598650292E0,8.112853843E-1,3.230281423E0,1.955776107E0,3.862377795E0
9.608656292E0,2.290849338E0,2.342906806E0,1.842658212E0,3.759334020E0
9.618662292E0,3.573093444E0,2.617075147E0,9.399323148E-1,4.527643078E0
9.628668292E0,4.143704801E0,2.627859167E0,1.699214902E0,5.192616350E0
9.638674292E0,3.776679752E0,1.962056601E0,3.018222500E0,5.217532282E0
9.648680292E0,3.174405431E0,1.140469592E0,3.860502220E0,5.126499597E0
9.658685833E0,2.509146948E0,3.255460703E-1,4.149894664E0,4.860393438E0
9.668691833E0,1.548000058E0,-7.170674443E-2,3.918914150E0,4.214182501E0
9.678697833E0,4.240880263E-1,-6.529117942E-2,4.306931580E0,4.328252907E0
9.688703833E0,-7.520308703E-2,-5.381128246E-1,5.876395013E0,5.901460774E0
9.698709833E0,5.183742325E-1,-1.442900450E0,6.930131101E0,7.097703194E0
9.708715833E0,2.262378660E0,-1.570610656E0,6.114979538E0,6.706575116E0
9.718721833E0,3.956134017E0,-2.376708391E0,8.306215417E-1,4.689314585E0
9.728727833E0,4.535467080E0,-4.622040371E0,-6.895544236E0,9.459505755E0
9.738734833E0,3.304168594E0,-6.023336127E0,-1.175070842E1,1.361165884E1
9.748740833E0,8.903099191E-1,-5.569101611E0,-1.060878111E1,1.201473184E1
9.758746833E0,5.347594464E-1,-4.610816056E0,-4.797863806E0,6.675708911E0
9.768752833E0,1.673577493E0,-4.267285704E0,5.864000085E-1,4.621087953E0
9.778758833E0,1.480289885E0,-3.542863047E0,4.104450688E0,5.620467255E0
9.788764833E0,-2.501842314E-1,-3.203987079E0,5.540582401E0,6.405168124E0
9.798770833E0,-1.759127812E0,-3.474851743E0,3.403371286E0,5.172239496E0
9.808776833E0,-2.900467470E0,-3.984221410E0,-1.925372924E0,5.290916053E0
9.818782833E0,-4.771941345E0,-4.939547689E0,-7.417305906E0,1.010875771E1
9.828788833E0,-5.817345736E0,-5.408312536E0,-8.266778287E0,1.146433509E1
9.838794833E0,-5.197042694E0,-4.878453641E0,-5.073153643E0,8.749025693E0
9.848800833E0,-4.006644897E0,-3.915166962E0,-1.926916589E0,5.924081635E0
9.858806833E0,-2.331205212E0,-2.736975812E0,6.748166335E-1,3.657995603E0
9.868812833E0,-6.701644425E-1,-1.719117070E0,1.979573690E0,2.706140402E0
9.878818833E0,2.397576226E-1,-1.052102961E0,1.699138011E0,2.012827449E0
9.888824833E0,1.480924308E-2,-7.160319024E-1,3.939441678E-1,8.173817996E-1
9.898831833E0,-6.650083677E-1,-7.966053647E-1,-9.309360811E-1,1.394079705E0
9.908837833E0,-1.276190046E0,-8.989988816E-1,-1.567484442E0,2.212208738E0
9.918843833E0,-1.573265000E0,-9.755646622E-1,-1.668338680E0,2.492035939E0
9.928849833E0,-1.881030564E0,-7.503550583E-1,-1.540610347E0,2.544560657E0
9.938855833E0,-1.767395191E0,2.409988403E-2,-9.571389163E-1,2.010070016E0
9.948861833E0,-1.249348841E0,1.025244945E0,-2.851020491E-1,1.641122452E0
9.958867833E0,-6.782200053E-1,1.936859779E0,1.625447014E-1,2.058598786E0
9.968873833E0,-4.045276281E-1,2.792363563E0,3.055532706E-1,2.838009808E0
9.978879833E0,1.046036182E-1,3.256747091E0,2.505096290E-1,3.268042014E0
9.988885833E0,2.546522351E-1,3.500445006E0,-8.073923081E-2,3.510624136E0
9.998891833E0,1.957326204E-1,3.682143139E0,-4.108663023E-1,3.710161786E0
1.000889783E1,-2.294660845E-1,3.568020108E0,-5.802683258E-1,3.622172484E0
1.001890383E1,-8.084654184E-1,3.237400408E0,-5.837956586E-1,3.387505735E0
1.002890983E1,-1.108537801E0,3.003712342E0,-3.569271997E-1,3.221574291E0
1.003891583E1,-1.192608629E0,2.848347144E0,-9.083064795E-2,3.089279366E0
1.004892183E1,-1.227668242E0,2.674420545E0,5.594557464E-2,2.943267652E0
1.005892883E1,-1.112561417E0,2.452086602E0,1.267921937E-1,2.695662788E0
1.006893483E1,-1.093068261E0,2.179581794E0,2.859726995E-1,2.455026559E0
1.007894083E1,-1.047908607E0,1.615081070E0,5.055148897E-1,1.990513656E0
1.008894683E1,-8.711798760E-1,1.088915861E0,1.020742005E0,1.728180074E0
1.009895283E1,-3.845023763E-1,1.040559973E0,1.790589926E0,2.106375896E0
1.010895883E1,3.749764580E-1,1.046126522E0,2.224340037E0,2.486498873E0
1.011896483E1,1.067794257E0,1.123364148E0,2.370961747E0,2.832594427E0
1.012897083E1,1.655808974E0,1.113906861E0,2.462634979E0,3.169710222E0
1.013897683E1,2.144497038E0,1.069095554E0,2.846418732E0,3.720743535E0
1.014898283E1,2.608589083E0,1.143985523E0,2.986692266E0,4.127198878E0
1.015898883E1,3.026033503E0,1.454348128E0,2.663823636E0,4.285786229E0
1.016899483E1,2.984199014E0,1.493240883E0,2.463820210E0,4.147966021E0
1.017900083E1,2.319026485E0,8.276102257E-1,2.192814482E0,3.297159061E0
1.018900683E1,1.726002166E0,4.406578660E-2,1.763890954E0,2.468265903E0
1.019901283E1,1.267227580E0,-3.001217920E-1,2.186263992E0,2.544737525E0
1.020901883E1,6.504460233E-1,-3.041446763E-1,3.220020145E0,3.299108023E0
1.021902483E1,3.335108186E-1,-1.850988740E-1,4.149145051E0,4.166640819E0
1.022903183E1,6.037273185E-1,-1.158041060E-2,4.605192788E0,4.644612083E0
1.023903783E1,1.330412300E0,2.321964419E-1,4.260632742E0,4.469552935E0
1.024904383E1,1.899054314E0,3.311710918E-1,3.932892796E0,4.379923210E0
1.025904983E1,2.191787857E0,2.075749862E-1,4.079995294E0,4.636095661E0
1.026905583E1,2.478663951E0,-1.598143440E-1,4.173727330E0,4.856883304E0
1.027906183E1,2.484606476E0,-5.511948001E-1,3.953890148E0,4.702162519E0
1.028906783E1,1.915332963E0,-5.982040751E-1,3.970501503E0,4.448733601E0
1.029907383E1,1.156407056E0,-4.089589405E-1,3.768529319E0,3.963122244E0
1.030907983E1,7.125776598E-1,-1.078290886E-1,2.198902749E0,2.313993806E0
1.031908583E1,6.078926191E-1,4.655342603E-1,-9.629837930E-2,7.717052298E-1
1.032909183E1,5.808758515E-1,7.816335690E-1,-1.967243081E0,2.195088411E0
1.033909783E1,1.856568445E-1,6.654844773E-1,-3.298502935E0,3.370083035E0
1.034910383E1,-5.732218462E-1,8.672122478E-2,-3.828048711E0,3.871699987E0
1.035910983E1,-9.125898573E-1,-2.003205796E0,-3.450826119E0,4.093147275E0
1.036911583E1,-1.396359683E0,-3.557359464E0,-3.062546441E0,4.897327580E0
1.037912183E1,-1.607330878E0,-4.694474509E0,-2.491558231E0,5.552428827E0
1.038912883E1,-1.467094912E0,-5.668369791E0,-1.734237677E0,6.106583651E0
1.039913483E1,-8.898498894E-1,-6.206446363E0,-1.419124794E0,6.428508727E0
1.040914083E1,-1.173376845E-1,-5.877023588E0,-1.559335763E0,6.081504946E0
1.041914683E1,3.328552361E-1,-4.753750657E0,-2.005910426E0,5.170359229E0
1.042915283E1,6.733038126E-1,-3.544090378E0,-2.521236067E0,4.401198238E0
1.043915883E1,9.029391740E-1,-2.472295164E0,-2.776015625E0,3.825415700E0
1.044916483E1,1.080183337E0,-1.583641761E0,-2.835125420E0,3.422375406E0
1.045917083E1,1.301606576E0,-8.054878700E-1,-2.798401397E0,3.189677220E0
1.046917683E1,1.339842981E0,2.461011207E-1,-2.631925028E0,2.963574587E0
1.047918283E1,1.172364107E0,9.935805184E-1,-2.177446391E0,2.665129008E0
1.048918883E1,1.055296418E0,1.383384565E0,-1.797101093E0,2.501394755E0
1.049919483E1,7.657873222E-1,1.600157806E0,-1.623564211E0,2.404765264E0
1.050920083E1,3.184767866E-1,1.807011831E0,-1.713917726E0,2.510823210E0
1.051920683E1,-3.686575913E-1,1.976523782E0,-1.865741557E0,2.742908354E0
1.052921283E1,-1.095280263E0,2.103881986E0,-1.875688840E0,3.023932356E0
1.053921883E1,-1.545524054E0,1.655461357E0,-2.187023838E0,3.148375799E0
1.054922483E1,-2.100232739E0,1.563796896E0,-2.862998220E0,3.879844984E0
1.055923183E1,-2.380993523E0,1.709715917E0,-2.999581284E0,4.194013179E0
1.056923783E1,-2.492366901E0,1.687609348E0,-2.589983827E0,3.970885834E0
1.057924383E1,-2.669547768E0,1.455353850E0,-2.206659373E0,3.756845179E0
1.058924983E1,-3.031055676E0,1.412086793E0,-1.865951180E0,3.829237709E0
1.059925583E1,-3.197932580E0,1.460750830E0,-8.912425500E-1,3.626965544E0
1.060926183E1,-3.100391667E0,1.382553676E0,-1.278686661E-1,3.397091926E0
1.061926783E1,-2.726545549E0,1.424260111E0,8.816724122E-2,3.077391908E0
1.062927383E1,-2.375840372E0,1.557657904E0,1.782397977E-1,2.846521569E0
1.063927983E1,-1.951828359E0,1.801757523E0,4.355395058E-1,2.691776138E0
1.064928583E1,-1.322940727E0,1.967875165E0,7.128875622E-1,2.476068156E0
1.065929242E1,-5.340914020E-1,2.206002438E0,9.410304219E-1,2.457079290E0
1.066929842E1,8.110848248E-2,2.550239133E0,1.461440509E0,2.940426259E0
1.067930442E1,9.043148777E-1,2.930353174E0,1.799254037E0,3.555568902E0
1.068931042E1,2.180684579E0,3.111146159E0,1.442926470E0,4.064068460E0
1.069931642E1,3.535480353E0,2.932783862E0,9.008495253E-1,4.681065303E0
1.070932242E1,4.417456820E0,2.673852196E0,1.138847575E0,5.287757948E0
1.071932842E1,4.257354208E0,2.126825291E0,1.930189860E0,5.135570423E0
1.072933542E1,4.059942560E0,6.216116488E-1,3.406949197E0,5.336369315E0
1.073934142E1,2.989759423E0,-2.631662196E-1,4.785071560E0,5.648435864E0
1.074934742E1,1.312610452E0,-9.222088194E-1,4.988442106E0,5.240035301E0
1.075935342E1,3.135060686E-1,-1.562026944E0,5.176485638E0,5.416107254E0
1.076935942E1,3.729400921E-1,-1.688230323E0,5.950130156E0,6.196229080E0
1.077936542E1,1.695341999E0,-1.559807341E0,6.254719806E0,6.665485975E0
1.078937142E1,3.634328410E0,-1.997504761E0,4.366493658E0,6.022012548E0
1.079937742E1,4.772045718E0,-3.480621775E0,-1.022524236E0,5.994389384E0
1.080938342E1,4.846765240E0,-5.187693581E0,-7.543198214E0,1.035872276E1
1.081938942E1,3.133979828E0,-5.890887337E0,-1.080489907E1,1.269922151E1
1.082939542E1,8.663107534E-1,-5.274856271E0,-8.382577715E0,9.941942071E0
1.083940142E1,1.511148566E0,-4.857329990E0,-3.538223866E0,6.196470991E0
1.084940742E1,2.245225268E0,-4.130450917E0,5.231802052E-1,4.730262024E0
1.085941342E1,1.150494643E0,-2.977826718E0,3.230890118E0,4.541997451E0
1.086941942E1,-3.230472627E-1,-2.478795514E0,3.993996785E0,4.711772177E0
1.087942542E1,-1.803647051E0,-2.507022947E0,1.819938855E0,3.584757199E0
1.088943142E1,-3.651665405E0,-3.201413135E0,-2.538699068E0,5.479844820E0
1.089943742E1,-5.181190892E0,-4.082026032E0,-6.300933859E0,9.121921020E0
1.090944442E1,-4.908390216E0,-4.292532227E0,-6.246291044E0,9.029633395E0
1.091945042E1,-3.931850823E0,-3.588194171E0,-4.328124813E0,6.860557754E0
1.092945642E1,-2.727659444E0,-2.699712092E0,-2.030621637E0,4.341888489E0
1.093946242E1,-1.394292546E0,-2.047974418E0,-1.378235507E-1,2.481379909E0
1.094946842E1,-5.369992223E-1,-1.381473110E0,8.195551014E-1,1.693666639E0
1.095947442E1,-4.744886863E-1,-7.801974928E-1,9.698531020E-1,1.332089592E0
1.096948042E1,-9.832403022E-1,-6.393977094E-1,5.621290934E-1,1.300607566E0
1.097948642E1,-1.586381766E0,-8.365436018E-1,-2.331334582E-1,1.808525232E0
1.098949242E1,-1.942931090E0,-1.101440597E0,-1.113989014E0,2.495821334E0
1.099949842E1,-2.028272810E0,-9.760026187E-1,-1.746080335E0,2.848730988E0
1.100950442E1,-1.882432434E0,-4.161726505E-1,-1.875027228E0,2.689326802E0
1.101951042E1,-1.402751420E0,2.897482467E-1,-1.352039689E0,1.969689547E0
1.102951642E1,-8.764081639E-1,1.059317840E0,-6.245375955E-1,1.510063828E0
1.103952242E1,-4.816496252E-1,1.663301888E0,-1.092408988E-1,1.735077262E0
1.104952842E1,-2.737359390E-1,2.198180033E0,1.136587626E-1,2.218072392E0
1.105953442E1,-2.180708845E-1,2.639638968E0,1.099659535E-1,2.650913296E0
1.106954042E1,-2.948683611E-1,2.831020675E0,-5.276468933E-2,2.846824463E0
1.107954642E1,-7.093805484E-1,2.797037827E0,-3.970022616E-1,2.912773964E0
1.108955342E1,-1.146450124E0,2.712277173E0,-7.445078427E-1,3.037282878E0
1.109955942E1,-1.362205658E0,2.806353026E0,-7.749703744E-1,3.214311846E0
1.110956542E1,-1.295143503E0,2.936724885E0,-6.586979064E-1,3.276527533E0
1.111957142E1,-8.728738875E-1,3.005643677E0,-4.185169454E-1,3.157682563E0
1.112957742E1,-5.796939100E-1,3.054375542E0,-1.394767047E-1,3.112026467E0
1.113958342E1,-3.876959062E-1,2.933621183E0,2.597318575E-1,2.970505344E0
1.114958942E1,-2.448637768E-1,2.558393075E0,8.841402295E-1,2.717910474E0
1.115959542E1,-1.215852847E-1,2.066829350E0,1.815743916E0,2.753814176E0
1.116960142E1,-3.661150027E-2,1.591691623E0,2.692636961E0,3.128117074E0
1.117960742E1,1.137020320E-1,1.125122405E0,3.302036700E0,3.490311583E0
1.118961342E1,6.273740798E-1,7.859067142E-1,3.463439732E0,3.606475063E0
1.119961942E1,1.220759465E0,6.674871486E-1,3.359392038E0,3.636111608E0
1.120962542E1,2.022866474E0,1.028066812E0,3.372503250E0,4.064810981E0
1.121963142E1,2.970528224E0,1.718235310E0,3.118242339E0,4.636788306E0
1.122963742E1,3.613277849E0,2.032400360E0,2.243906429E0,4.713973281E0
1.123964342E1,3.539408804E0,1.712178179E0,1.191190680E0,4.108272634E0
1.124964942E1,2.602621122E0,7.067862850E-1,8.680559280E-1,2.833143952E0
1.125965542E1,2.151819507E0,2.680363655E-1,1.890165669E0,2.876612059E0
1.126966142E1,1.949064965E0,6.277863085E-1,3.172449537E0,3.775898032E0
1.127966742E1,1.735110959E0,1.076588761E0,4.372043835E0,4.825393320E0
1.128967442E1,1.576685328E0,1.308230887E0,5.261114144E0,5.645947814E0
1.129968042E1,1.682198335E0,1.375759211E0,5.291099836E0,5.719986199E0
1.130968642E1,2.040154060E0,1.173896370E0,4.380338110E0,4.972687728E0
1.131969242E1,2.154769427E0,5.540154970E-1,3.592740966E0,4.225843360E0
1.132969842E1,2.232157618E0,-4.709803569E-1,3.544683870E0,4.215345047E0
1.133970442E1,2.059367718E0,-1.338161615E0,3.767401391E0,4.497219713E0
1.134971042E1,1.488058496E0,-1.914311162E0,4.047657852E0,4.718308956E0
1.135971642E1,6.995052590E-1,-2.031536726E0,3.785994952E0,4.353183530E0
1.136972242E1,3.275223561E-1,-1.802409487E0,3.110200664E0,3.609612032E0
1.137972842E1,1.225423642E-1,-1.138164620E0,9.311286007E-1,1.475613704E0
1.138973442E1,1.466078228E-1,-1.223183720E0,-1.691286662E0,2.092396435E0
1.139974042E1,-9.126699641E-3,-1.495449377E0,-3.395535432E0,3.710271285E0
1.140974642E1,-4.651498058E-1,-2.157762909E0,-4.455011147E0,4.971863779E0
1.141975242E1,-1.149142182E0,-2.817179146E0,-4.845192924E0,5.721269140E0
1.142975842E1,-1.469976420E0,-3.480567981E0,-4.606112263E0,5.957470464E0
1.143976442E1,-1.473733110E0,-4.103936133E0,-3.934896052E0,5.873464736E0
1.144977042E1,-1.408944353E0,-4.393007857E0,-2.948962230E0,5.475401397E0
1.145977642E1,-1.232705765E0,-4.558246663E0,-1.755139573E0,5.037627523E0
1.146978242E1,-9.587550867E-1,-4.888747664E0,-7.813979262E-1,5.042781748E0
1.147978942E1,-1.067893367E0,-4.441185406E0,-4.311982405E-1,4.588077590E0
1.148979542E1,-9.365792289E-1,-3.427033798E0,-5.829039583E-1,3.600210873E0
1.149980142E1,-4.651410350E-1,-2.654924174E0,-1.058768787E0,2.895853915E0
1.150980742E1,1.417999497E-1,-1.953409154E0,-1.683861868E0,2.582887016E0
1.151981342E1,6.355806470E-1,-1.138088606E0,-2.450501422E0,2.775637882E0
1.152981942E1,1.079065057E0,-2.359392446E-1,-2.962159104E0,3.161397678E0
1.153982542E1,1.366819111E0,6.995269668E-1,-3.162458984E0,3.515491329E0
1.154983142E1,1.366914713E0,1.430860448E0,-3.021475013E0,3.611804080E0
1.155983742E1,1.058000755E0,2.047952199E0,-2.747790238E0,3.586617487E0
1.156984342E1,8.188592827E-1,2.268396322E0,-2.397480040E0,3.400597439E0
1.157984942E1,5.200993073E-1,2.285301792E0,-1.985747472E0,3.071856213E0
1.158985542E1,1.088432881E-1,2.336667827E0,-1.862078569E0,2.989849493E0
1.159986142E1,-4.147507538E-1,2.263857129E0,-2.008214814E0,3.054503892E0
1.160986742E1,-1.004882894E0,2.167192714E0,-2.301602075E0,3.317210575E0
1.161987342E1,-1.550661418E0,2.115995663E0,-2.461194810E0,3.597147254E0
1.162987942E1,-1.944851169E0,2.229160336E0,-2.489141285E0,3.866190141E0
1.163988542E1,-2.191104610E0,2.350432173E0,-2.351089692E0,3.981594348E0
1.164989142E1,-2.440304170E0,2.453706281E0,-1.986141575E0,3.990052294E0
1.165989692E1,-2.660861729E0,2.396111206E0,-1.278313901E0,3.802054771E0
1.166990292E1,-2.820518783E0,2.338015026E0,-4.202019668E-1,3.687575106E0
1.167990992E1,-2.750452475E0,2.423814145E0,3.139668292E-1,3.679461781E0
1.168991592E1,-2.556954953E0,2.370548349E0,1.026853807E0,3.634824184E0
1.169992192E1,-2.348169008E0,2.302660421E0,1.703062662E0,3.703588144E0
1.170992792E1,-2.013284057E0,2.316424182E0,2.358196398E0,3.870429426E0
1.171993392E1,-1.400306992E0,2.703715096E0,3.005390493E0,4.278236436E0
1.172993992E1,-6.647854427E-1,3.144577614E0,3.593994317E0,4.821524987E0
1.173994592E1,6.139427331E-1,3.343555439E0,3.622356821E0,4.967671244E0
1.174995192E1,2.400553044E0,3.264260763E0,2.468963420E0,4.744874457E0
1.175995792E1,3.896859330E0,2.826173333E0,8.023759818E-1,4.880222901E0
1.176996392E1,4.768497920E0,2.364816908E0,-2.734424087E-1,5.329700008E0
1.177996992E1,5.079806020E0,1.244205045E0,4.855340767E-1,5.252448832E0
1.178997592E1,4.194774967E0,-9.650829434E-2,2.388325054E0,4.827996214E0
1.179998192E1,2.857679885E0,-7.993991643E-1,4.129881399E0,5.085400055E0
1.180998792E1,1.653169540E0,-1.034078334E0,4.841032923E0,5.218992938E0
1.181999392E1,7.945275566E-1,-1.001054429E0,5.083273419E0,5.241474283E0
1.182999992E1,9.232800293E-1,-7.445616370E-1,5.794130536E0,5.914284970E0
1.184000592E1,1.867935725E0,-5.331099468E-1,6.099222461E0,6.401086214E0
1.185001192E1,3.361430085E0,-1.281800888E0,4.093402959E0,5.449603061E0
1.186001792E1,3.790584431E0,-3.734604943E0,-2.117756844E0,5.727189403E0
1.187002392E1,2.769415288E0,-5.642401137E0,-9.052427723E0,1.102056257E1
1.188003092E1,6.556819126E-1,-6.097831993E0,-1.254903696E1,1.396752671E1
1.189003692E1,-7.190300623E-1,-5.960148191E0,-9.893628048E0,1.157256439E1
1.190004292E1,-6.395655245E-2,-6.063263839E0,-4.407236179E0,7.496064938E0
1.191004892E1,1.279535676E0,-5.419530419E0,3.977524593E-1,5.582716949E0
1.192005492E1,1.576415187E0,-4.006427965E0,3.663536714E0,5.653145243E0
1.193006092E1,4.121696466E-1,-3.260982229E0,4.777239507E0,5.798784892E0
1.194006692E1,-1.228640634E0,-3.098043718E0,2.953697598E0,4.453286672E0
1.195007292E1,-2.989159499E0,-3.572783834E0,-1.261466318E0,4.826091183E0
1.196007892E1,-5.189660584E0,-4.598609993E0,-5.855724521E0,9.075753440E0
1.197008492E1,-5.981747221E0,-4.890788342E0,-6.682745347E0,1.021568381E1
1.198009092E1,-4.603503235E0,-4.388939365E0,-4.135699671E0,7.586767596E0
1.199009692E1,-2.898910941E0,-3.559804770E0,-1.937967242E0,4.983132717E0
1.200010292E1,-1.040986819E0,-2.822417082E0,-2.608472139E-1,3.019558413E0
1.201010892E1,3.911304876E-1,-2.096588169E0,4.256161961E-1,2.174813591E0
1.202011492E1,7.181544417E-1,-1.309903775E0,4.686689526E-1,1.565645008E0
1.203012092E1,5.444430202E-2,-8.518516123E-1,2.515586194E-1,8.898859986E-1
1.204012692E1,-9.118449220E-1,-7.559584451E-1,-1.767206910E-1,1.197566088E0
1.205013292E1,-1.669613665E0,-7.917621160E-1,-8.625160566E-1,2.039223133E0
1.206013892E1,-2.259350972E0,-7.530453622E-1,-1.484869132E0,2.806524625E0
1.207014492E1,-2.548774113E0,-3.807946569E-1,-1.556990444E0,3.010892442E0
1.208015192E1,-2.396811703E0,2.319274700E-1,-1.076198167E0,2.637555532E0
1.209015792E1,-2.063945065E0,9.107278115E-1,-4.680623040E-1,2.303991471E0
1.210016392E1,-1.602050842E0,1.600220371E0,1.715865433E-3,2.264348711E0
1.211016992E1,-1.127246991E0,2.196549245E0,1.128372288E-1,2.471486719E0
1.212017592E1,-8.146253139E-1,2.705575680E0,1.160087585E-2,2.825577594E0
1.213018192E1,-5.509360608E-1,3.142455075E0,-1.630425918E-1,3.194548063E0
1.214018792E1,-4.972469267E-1,3.467529860E0,-2.534434694E-1,3.512157659E0
1.215019392E1,-5.942626132E-1,3.668524389E0,-1.577815595E-1,3.719692765E0
1.216019992E1,-7.272199649E-1,3.688739383E0,-4.753786325E-2,3.760040819E0
1.217020592E1,-6.471543333E-1,3.480576167E0,-1.387497497E-1,3.542946610E0
1.218021192E1,-7.660780750E-1,3.021399000E0,-4.885468546E-1,3.155060310E0
1.219021792E1,-9.284420975E-1,2.559170170E0,-5.806422552E-1,2.783613141E0
1.220022392E1,-8.972571422E-1,2.209336520E0,-2.673724142E-1,2.399526255E0
1.221022992E1,-8.085499106E-1,1.876207781E0,2.488653919E-1,2.058116269E0
1.222023592E1,-4.586902405E-1,1.711909207E0,7.843732819E-1,1.938110243E0
1.223024192E1,1.870410267E-1,1.724754370E0,1.214221108E0,2.117568153E0
1.224024792E1,7.955878030E-1,1.742452723E0,1.600035892E0,2.495839798E0
1.225025392E1,1.326266331E0,1.754762281E0,1.974101865E0,2.955545841E0
1.226025992E1,1.746984023E0,1.771284758E0,2.388577654E0,3.448870261E0
1.227026592E1,1.790082972E0,1.496862064E0,2.780864428E0,3.630179066E0
1.228027192E1,2.094276765E0,1.454740477E0,2.989898880E0,3.929600531E0
1.229027792E1,2.679936516E0,1.845407572E0,2.914104931E0,4.368019733E0
1.230028492E1,3.051434977E0,2.302892556E0,2.584956391E0,4.614820591E0
1.231029092E1,2.610572166E0,1.957931390E0,2.423408933E0,4.064663974E0
1.232029692E1,2.088795000E0,9.919836438E-1,2.401761225E0,3.333999563E0
1.233030292E1,1.817963373E0,3.219225508E-1,2.214379159E0,2.883071282E0
1.234030892E1,1.473713522E0,7.124481440E-2,2.610497029E0,2.998600025E0
1.235031492E1,1.128720563E0,3.802327394E-2,3.895805662E0,4.056199900E0
1.236032092E1,9.402892873E-1,8.303981781E-2,5.033651024E0,5.121394554E0
1.237032692E1,1.561402461E0,2.591977143E-1,5.049437921E0,5.291690129E0
1.238033292E1,2.314808012E0,5.489898151E-1,4.153150978E0,4.786270886E0
1.239033892E1,2.536984665E0,1.846036148E-1,3.529327912E0,4.350462642E0
1.240034492E1,2.611133206E0,-5.942186129E-1,3.149330231E0,4.133931940E0
1.241035092E1,2.738615664E0,-1.124275728E0,2.723044236E0,4.022310478E0
1.242035692E1,2.338335599E0,-1.523950460E0,2.804075536E0,3.956397097E0
1.243036292E1,1.095051637E0,-1.835294813E0,3.771870418E0,4.335256807E0
1.244036892E1,-2.313256453E-1,-1.562126931E0,3.759109454E0,4.077334422E0
1.245037492E1,-9.249901937E-1,-1.078996060E0,2.271086480E0,2.679117981E0
1.246038092E1,-1.043547023E0,-5.671372336E-1,-1.275827372E-1,1.194534380E0
1.247038692E1,-8.763131467E-1,-5.817792463E-1,-2.304594680E0,2.533288073E0
1.248039292E1,-1.009631710E0,-1.156131944E0,-3.838514643E0,4.134028535E0
1.249039892E1,-1.148066733E0,-1.914760813E0,-4.485895848E0,5.010751216E0
1.250040492E1,-1.107072489E0,-2.677892622E0,-4.569598740E0,5.410910370E0
1.251041092E1,-8.818750182E-1,-3.350859781E0,-4.017729464E0,5.305479701E0
1.252041692E1,-3.990895714E-1,-4.166964440E0,-3.305620458E0,5.333853368E0
1.253042292E1,-3.167085886E-1,-4.600334921E0,-2.515834701E0,5.252885870E0
1.254042992E1,-3.186978114E-1,-4.850613878E0,-1.616273317E0,5.122730007E0
1.255043592E1,-6.134840190E-1,-4.320060918E0,-1.146959417E0,4.511629959E0
1.256044192E1,-7.291249877E-1,-3.357248449E0,-9.360483018E-1,3.560748070E0
1.257044792E1,-6.796019948E-1,-2.536312235E0,-7.851506692E-1,2.740656892E0
1.258045392E1,-4.333912387E-1,-1.967144848E0,-9.137040442E-1,2.211863897E0
1.259045992E1,5.693770096E-2,-1.319211958E0,-1.180387656E0,1.771123121E0
1.260046592E1,5.314119154E-1,-4.430873841E-1,-1.496944217E0,1.649110986E0
1.261047192E1,8.730851912E-1,3.910547662E-1,-1.799532073E0,2.038017974E0
1.262047792E1,9.572906515E-1,1.065109507E0,-2.108199863E0,2.548601639E0
1.263048392E1,6.984808999E-1,1.448289828E0,-2.359298598E0,2.855119765E0
1.264048992E1,1.625593194E-1,1.635629355E0,-2.539299285E0,3.024855332E0
1.265049592E1,-4.441556704E-1,1.693951823E0,-2.546631401E0,3.090643708E0
1.266050254E1,-9.166960645E-1,1.777497425E0,-2.438856399E0,3.154021133E0
1.267050854E1,-1.270744388E0,1.862373853E0,-2.337559820E0,3.247678183E0
1.268051454E1,-1.554546016E0,1.941378508E0,-2.344638167E0,3.418024570E0
1.269052054E1,-1.766490919E0,1.968873285E0,-2.388652790E0,3.564072717E0
1.270052654E1,-1.985967620E0,2.008671774E0,-2.486212707E0,3.762988613E0
1.271053254E1,-2.215536616E0,2.008015131E0,-2.515228345E0,3.907313769E0
1.272053854E1,-2.378547632E0,1.900921038E0,-2.405263853E0,3.880242755E0
1.273054454E1,-2.501748466E0,1.762913300E0,-2.126409846E0,3.726691230E0
1.274055054E1,-2.663402637E0,1.596706195E0,-1.611424514E0,3.498553021E0
1.275055654E1,-2.845803605E0,1.504247682E0,-9.392885363E-1,3.353151086E0
1.276056254E1,-2.797159741E0,1.387938961E0,-3.634667256E-1,3.143657939E0
1.277056854E1,-2.624982921E0,1.148722937E0,1.820732322E-1,2.871106126E0
1.278057554E1,-2.438446510E0,1.284768350E0,6.865999424E-1,2.840434927E0
1.279058154E1,-1.815071048E0,1.687141571E0,9.832069731E-1,2.666013042E0
1.280058754E1,-8.036562297E-1,2.097305038E0,1.120889606E0,2.510168374E0
1.281059354E1,2.206721646E-1,2.491630152E0,1.412131524E0,2.872461046E0
1.282059954E1,1.401952691E0,2.663502624E0,1.497857260E0,3.362037172E0
1.283060554E1,2.794308347E0,2.483883761E0,1.295068220E0,3.956644963E0
1.284061154E1,3.828958246E0,1.975975313E0,1.335174564E0,4.510885811E0
1.285061754E1,3.817370526E0,1.360795017E0,1.912683882E0,4.481343598E0
1.286062354E1,3.518705568E0,4.528183204E-1,2.916094446E0,4.592378482E0
1.287062954E1,2.956908889E0,-4.405128551E-1,3.762766303E0,4.805806072E0
1.288063554E1,2.109835329E0,-8.262197578E-1,4.064680559E0,4.653565541E0
1.289064154E1,1.424328523E0,-1.181560900E0,4.182946635E0,4.574039840E0
1.290064754E1,1.100698878E0,-1.176749811E0,4.565208066E0,4.841219146E0
1.291065354E1,1.402849069E0,-1.058066536E0,5.466045020E0,5.741527537E0
1.292065954E1,2.675746694E0,-1.273593151E0,6.270162302E0,6.935170883E0
1.293066554E1,3.939419166E0,-2.270179723E0,4.927387235E0,6.704616641E0
1.294067154E1,4.404820402E0,-4.061778878E0,-7.667564982E-1,6.040563381E0
1.295067754E1,3.414561395E0,-5.142772347E0,-7.778262130E0,9.930191272E0
1.296068354E1,1.435642008E0,-5.003365955E0,-1.025674131E1,1.150197727E1
1.297068954E1,4.355286884E-1,-4.500624107E0,-7.637801485E0,8.875883850E0
1.298069554E1,1.713112272E0,-4.478026958E0,-3.765168631E0,6.096226202E0
1.299070154E1,2.669753298E0,-3.932753633E0,-3.686043817E-1,4.767599291E0
1.300070754E1,1.574033324E0,-3.217985898E0,2.092384898E0,4.148624918E0
1.301071454E1,-2.016818699E-1,-2.790340426E0,2.505428704E0,3.755509055E0
1.302072054E1,-1.784550044E0,-2.588667619E0,7.613919702E-1,3.235048166E0
1.303072654E1,-3.513508270E0,-3.041826248E0,-2.451043751E0,5.254052032E0
1.304073254E1,-4.891681212E0,-3.704167846E0,-5.070368029E0,7.959776157E0
1.305073854E1,-4.782356113E0,-3.826303902E0,-4.806133816E0,7.785271595E0
1.306074454E1,-3.917631856E0,-3.502188646E0,-3.231675692E0,6.169026864E0
1.307075054E1,-3.107945100E0,-3.056352485E0,-1.403228261E0,4.579264440E0
1.308075654E1,-1.981640388E0,-2.482034286E0,1.186212945E-1,3.178280012E0
1.309076254E1,-1.071039461E0,-1.821029946E0,5.665159670E-1,2.187285059E0
1.310076854E1,-9.044853240E-1,-1.279240392E0,1.754381043E-1,1.576492375E0
1.311077454E1,-1.135675752E0,-8.523679215E-1,-4.400535563E-1,1.486585894E0
1.312078054E1,-1.368859497E0,-6.596045172E-1,-7.851264033E-1,1.710344383E0
1.313078654E1,-1.750171047E0,-5.443208134E-1,-6.996690542E-1,1.961866618E0
1.314079254E1,-2.011185638E0,-2.073516226E-1,-5.219107747E-1,2.088121937E0
1.315079854E1,-1.956602757E0,2.944552553E-1,-2.134029061E-1,1.990110310E0
1.316080454E1,-1.647627549E0,1.007233182E0,2.988365740E-2,1.931343641E0
1.317081054E1,-1.107558100E0,1.738007085E0,1.719341603E-1,2.068070339E0
1.318081654E1,-5.755230179E-1,2.388703954E0,8.085237443E-3,2.457071162E0
1.319082254E1,-1.757827976E-1,2.985161465E0,-4.280322656E-1,3.020811180E0
1.320082854E1,1.590647310E-2,3.470340031E0,-8.494273567E-1,3.572819585E0
1.321083454E1,2.327323392E-2,3.740454497E0,-1.045359659E0,3.883853538E0
1.322084054E1,-2.256319191E-1,3.775857049E0,-1.102880474E0,3.940095374E0
1.323084654E1,-6.886726342E-1,3.612826737E0,-9.868477419E-1,3.807972622E0
1.324085254E1,-9.393493474E-1,3.339936597E0,-6.540543401E-1,3.530628945E0
1.325085854E1,-1.010170677E0,2.803624130E0,-3.312982687E-1,2.998418184E0
1.326086554E1,-1.032739468E0,2.373538030E0,-9.471290678E-2,2.590213143E0
1.327087154E1,-9.156956059E-1,2.047809527E0,1.477503687E-1,2.248077506E0
1.328087754E1,-6.771072802E-1,1.655952523E0,3.211238211E-1,1.817628547E0
1.329088354E1,-4.652176335E-1,1.286955208E0,6.967097783E-1,1.535605962E0
1.330088954E1,-2.345392750E-1,1.033210607E0,1.399916106E0,1.755647440E0
1.331089554E1,1.529338523E-1,8.415839016E-1,1.948870837E0,2.128320880E0
1.332090154E1,6.020438685E-1,8.012609178E-1,2.200207116E0,2.417723564E0
1.333090754E1,9.101287642E-1,5.128037363E-1,2.250238963E0,2.480902544E0
1.334091354E1,1.096519873E0,4.078093779E-1,2.327398236E0,2.604889032E0
1.335091954E1,1.479853683E0,8.178313422E-1,2.727216809E0,3.208820119E0
1.336092554E1,2.064336390E0,1.218769072E0,3.147092502E0,3.956143829E0
1.337093154E1,2.623753252E0,1.527994394E0,3.194951377E0,4.407557407E0
1.338093754E1,2.582296493E0,1.618881176E0,2.984041139E0,4.265387785E0
1.339094354E1,2.288547289E0,1.222852183E0,2.800781214E0,3.818008848E0
1.340094954E1,1.889899621E0,6.248106605E-1,2.432405313E0,3.143040652E0
1.341095554E1,1.432873352E0,1.934288174E-1,2.023686108E0,2.487136147E0
1.342096154E1,9.335793149E-1,-2.429506409E-1,2.236539960E0,2.435714750E0
1.343096754E1,4.960380149E-1,-5.280982983E-1,3.031743894E0,3.117116065E0
1.344097354E1,5.391647021E-1,-4.582819587E-1,3.900027351E0,3.963702092E0
1.345097954E1,1.062849851E0,-1.211776972E-2,4.199815267E0,4.332233249E0
1.346098554E1,1.805467874E0,3.679746366E-1,4.250883679E0,4.633047769E0
1.347099154E1,2.300290545E0,5.589183873E-1,4.461094006E0,5.050256041E0
1.348099754E1,2.515870077E0,3.110508227E-1,4.494887404E0,5.160461959E0
1.349100354E1,2.623821664E0,-8.587396324E-2,4.062240223E0,4.836694129E0
1.350100954E1,2.343844115E0,-3.800257480E-1,3.642668586E0,4.348224837E0
1.351101554E1,2.101051641E0,-6.957286155E-1,3.244732817E0,3.927689825E0
1.352102154E1,1.484065725E0,-6.386504352E-1,2.009905536E0,2.578768256E0
1.353102854E1,8.567585957E-1,-1.607066292E-1,9.952311873E-2,8.773635296E-1
1.354103454E1,1.524429055E-1,-2.858855760E-1,-1.185705260E0,1.229173042E0
1.355104054E1,-8.998576914E-1,-4.962929535E-1,-2.026636028E0,2.272290508E0
1.356104654E1,-1.373124748E0,-1.143942254E0,-2.194721990E0,2.830349813E0
1.357105254E1,-1.917825484E0,-2.005567487E0,-2.560644546E0,3.775878179E0
1.358105854E1,-2.426298773E0,-2.841435151E0,-3.161098630E0,4.894203101E0
1.359106454E1,-2.167061444E0,-3.590623689E0,-3.472278968E0,5.444764000E0
1.360107054E1,-1.404387033E0,-4.119684439E0,-3.213319235E0,5.410131544E0
1.361107654E1,-6.056717004E-1,-4.266149590E0,-2.651908180E0,5.059593613E0
1.362108254E1,9.430652529E-2,-4.454179088E0,-2.071090216E0,4.913045874E0
1.363108854E1,3.796070874E-1,-4.424914359E0,-1.541198577E0,4.700985182E0
1.364109454E1,3.640727895E-1,-3.866957839E0,-1.292035854E0,4.093319993E0
1.365110054E1,1.282936125E-1,-3.203692964E0,-1.367717828E0,3.485794015E0
1.366110642E1,3.484458134E-2,-2.437479088E0,-1.779848883E0,3.018340685E0
1.367111242E1,2.476399617E-1,-1.575198966E0,-2.100660463E0,2.637300080E0
1.368111842E1,7.177093224E-1,-4.858983582E-1,-2.406793777E0,2.558096982E0
1.369112442E1,1.180584123E0,4.226501960E-1,-2.631927660E0,2.915382524E0
1.370113042E1,1.238076871E0,1.288919873E0,-2.547395925E0,3.111812136E0
1.371113642E1,1.023529372E0,1.601191594E0,-2.466602315E0,3.113768436E0
1.372114242E1,5.463018501E-1,1.665109847E0,-2.501062295E0,3.053907189E0
1.373114842E1,-1.434228444E-1,1.910014043E0,-2.257792981E0,2.960802746E0
1.374115442E1,-6.369193670E-1,1.938649027E0,-2.121628286E0,2.943693753E0
1.375116042E1,-1.402497944E0,1.861871578E0,-2.242023041E0,3.234228435E0
1.376116642E1,-2.155953196E0,1.825114226E0,-2.197047720E0,3.578574409E0
1.377117242E1,-2.408338319E0,1.703862269E0,-2.146912231E0,3.648626073E0
1.378117842E1,-2.552902832E0,1.575828711E0,-2.053419638E0,3.635530389E0
1.379118442E1,-2.693369909E0,1.595870043E0,-1.838026632E0,3.630342210E0
1.380119042E1,-2.694810956E0,1.710207667E0,-1.652601483E0,3.594149136E0
1.381119742E1,-2.763922998E0,1.697369521E0,-1.496300439E0,3.572009047E0
1.382120342E1,-3.011685605E0,1.621526456E0,-1.032386150E0,3.572872709E0
1.383120942E1,-2.999300618E0,1.708749372E0,-2.106044286E-1,3.458320812E0
1.384121542E1,-2.647211989E0,1.866129520E0,3.659719652E-1,3.259464094E0
1.385122142E1,-2.252808230E0,1.877029315E0,9.099448693E-1,3.070241625E0
1.386122742E1,-2.050979010E0,1.940479206E0,1.507803374E0,3.200850740E0
1.387123342E1,-1.223691551E0,2.191832296E0,1.573776046E0,2.962823125E0
1.388123942E1,5.865663618E-2,2.434965954E0,8.286501530E-1,2.572772994E0
1.389124542E1,1.143688192E0,2.697576689E0,3.720171091E-1,2.953529990E0
1.390125142E1,2.515866568E0,2.825895005E0,-2.962313470E-1,3.795131115E0
1.391125742E1,4.155348654E0,2.463396286E0,-1.607305735E0,5.091038737E0
1.392126342E1,4.461551843E0,1.848805389E0,-8.283522373E-1,4.899968739E0
1.393126942E1,3.776752258E0,1.881080266E0,2.268786916E0,4.790586045E0
1.394127542E1,2.714137173E0,1.397757606E0,4.491886028E0,5.431142330E0
1.395128142E1,1.710964882E0,9.452667296E-2,5.035599900E0,5.319173101E0
1.396128742E1,9.750550774E-1,-9.360450858E-1,5.087227891E0,5.263724957E0
1.397129342E1,5.834477493E-1,-1.303993410E0,5.490461238E0,5.673268431E0
1.398129942E1,4.470997435E-1,-9.649969894E-1,6.741543193E0,6.824919194E0
1.399130542E1,8.268559349E-1,-1.733436316E-1,7.746900004E0,7.792829937E0
1.400131142E1,2.872754007E0,7.494212580E-1,6.269202774E0,6.936659948E0
1.401131742E1,5.464471534E0,2.436511374E-1,5.956704766E-1,5.502239393E0
1.402132342E1,5.246100833E0,-2.039651492E0,-6.963805801E0,8.954124379E0
1.403132942E1,1.878333244E0,-3.801950249E0,-9.662050241E0,1.055169069E1
1.404133542E1,-3.945212880E-1,-4.702681661E0,-9.298135327E0,1.042718478E1
1.405134142E1,-2.740782934E-1,-5.508995157E0,-6.715127812E0,8.690056852E0
1.406134742E1,3.712204260E-1,-5.939595813E0,-1.391026876E0,6.111592165E0
1.407135342E1,1.094835582E0,-5.800516280E0,2.353630600E0,6.354858855E0
1.408135942E1,8.813853139E-1,-5.168433437E0,2.931380530E0,6.006874069E0
1.409136542E1,-6.560260212E-1,-4.734782290E0,1.200436882E0,4.928446224E0
1.410137242E1,-2.209613094E0,-4.852698995E0,-2.674062696E0,5.965038882E0
1.411137842E1,-3.107880489E0,-4.495369799E0,-6.549234118E0,8.529931904E0
1.412138442E1,-4.512332572E0,-4.458360432E0,-6.625375975E0,9.172444047E0
1.413139042E1,-5.123518050E0,-4.277814785E0,-3.079396362E0,7.350701906E0
1.414139642E1,-4.690953900E0,-3.514299399E0,1.742996514E-1,5.863934611E0
1.415140242E1,-3.730547560E0,-2.759738438E0,1.686307466E0,4.937284093E0
1.416140842E1,-2.155739626E0,-1.933679479E0,1.349689693E0,3.194994824E0
1.417141442E1,-1.036546151E-1,-1.264308942E0,-3.042408630E-1,1.304524389E0
1.418142042E1,1.268787178E0,-7.007940584E-1,-1.880504607E0,2.374285323E0
1.419142642E1,1.320037585E0,-3.232182938E-1,-2.362780323E0,2.725747631E0
1.420143242E1,7.393754491E-1,-3.669092739E-1,-1.931045308E0,2.100055821E0
1.421143842E1,-1.638555010E-1,-4.898364580E-1,-1.461952725E0,1.550514157E0
1.422144442E1,-1.231795353E0,-3.799678606E-1,-9.208630827E-1,1.584198278E0
1.423145042E1,-2.088763718E0,-8.973371029E-2,-1.810081619E-1,2.098511368E0
1.424145642E1,-2.484519353E0,4.307637924E-1,3.608740702E-1,2.547277754E0
1.425146242E1,-2.288392484E0,1.041834081E0,6.223615542E-1,2.590268773E0
1.426146842E1,-1.786895509E0,1.487142822E0,5.475733271E-1,2.388393996E0
1.427147442E1,-1.365021531E0,1.904459188E0,2.424457338E-1,2.355637602E0
1.428148042E1,-1.146561514E0,2.531531551E0,-6.311309159E-2,2.779791101E0
1.429148642E1,-9.913495132E-1,3.140883343E0,-1.878808330E-1,3.298972755E0
1.430149242E1,-7.789472120E-1,3.586701377E0,-1.155962375E-1,3.672131264E0
1.431149842E1,-6.031430720E-1,3.818948690E0,-7.386100486E-2,3.866989282E0
1.432150442E1,-6.798203883E-1,3.960624971E0,-3.587173247E-1,4.034524016E0
1.433151042E1,-6.304413099E-1,3.936390601E0,-5.758339436E-1,4.027928989E0
1.434151642E1,-5.269190611E-1,3.648146843E0,-6.005146024E-1,3.734599961E0
1.435152242E1,-1.810555243E-1,3.265031426E0,-2.605279559E-1,3.280409446E0
1.436152842E1,2.029679650E-1,2.797240140E0,3.672495818E-1,2.828536840E0
1.437153442E1,4.606619217E-1,2.271999376E0,1.091174933E0,2.562196969E0
1.438154042E1,7.721154714E-1,1.925331409E0,1.529735695E0,2.577431790E0
1.439154642E1,1.176765014E0,1.887689373E0,1.371562665E0,2.613298914E0
1.440155242E1,1.496194312E0,1.728846252E0,1.157243061E0,2.562560884E0
1.441155842E1,1.621796890E0,1.396389357E0,1.097059717E0,2.404925864E0
1.442156442E1,1.690325380E0,9.845986104E-1,1.684847708E0,2.581733161E0
1.443157142E1,1.778621552E0,7.514660293E-1,2.420108764E0,3.095984859E0
1.444157742E1,1.854870414E0,8.998701167E-1,2.611817915E0,3.327446965E0
1.445158342E1,2.279772373E0,1.168918051E0,2.573335050E0,3.631223590E0
1.446158942E1,2.356774940E0,1.235574555E0,2.313502328E0,3.526092118E0
1.447159542E1,2.216363997E0,9.252850395E-1,1.908470816E0,3.067683593E0
1.448160142E1,2.000965143E0,5.051421297E-1,1.229727778E0,2.402344789E0
1.449160742E1,1.618317504E0,4.294955313E-2,6.974481355E-1,1.762733703E0
1.450161342E1,1.817236272E0,-5.448634350E-1,1.194780285E0,2.242035629E0
1.451161942E1,1.501973115E0,-8.484479481E-1,1.904964241E0,2.569956404E0
1.452162542E1,1.434981273E0,-1.047301227E0,2.890465808E0,3.392757537E0
1.453163142E1,1.273756581E0,-9.725673795E-1,3.547313363E0,3.892528128E0
1.454163742E1,1.633758831E0,-5.849846900E-1,4.034071262E0,4.391481066E0
1.455164342E1,2.186814215E0,-1.156053007E-1,4.205671839E0,4.741644927E0
1.456164942E1,2.435989510E0,2.735912204E-3,4.455894077E0,5.078291484E0
1.457165542E1,2.491845329E0,-5.346810937E-2,4.270276555E0,4.944432610E0
1.458166142E1,2.349099885E0,-1.986474574E-1,3.638077937E0,4.335128852E0
1.459166742E1,2.178319673E0,-3.321697962E-1,3.450124453E0,4.093747929E0
1.460167342E1,1.755067798E0,-7.110740483E-2,3.153993970E0,3.610124264E0
1.461167942E1,1.218988051E0,2.585890192E-1,2.356067719E0,2.665305845E0
1.462168542E1,7.025292197E-1,3.869166917E-1,1.566325232E0,1.759723434E0
1.463169142E1,2.737455138E-1,5.235205132E-1,1.231907474E-1,6.034784953E-1
1.464169742E1,2.792330526E-2,7.138239938E-1,-1.576132913E0,1.730467961E0
1.465170342E1,-6.629257357E-1,3.366797537E-1,-2.500447168E0,2.608650960E0
1.466170917E1,-1.629549567E0,-7.777720678E-1,-3.028872326E0,3.526248537E0
1.467171517E1,-2.204421205E0,-1.880428886E0,-3.320537290E0,4.406977823E0
1.468172117E1,-2.328892346E0,-3.063041115E0,-3.311344882E0,5.076511141E0
1.469172717E1,-1.955445885E0,-4.099376475E0,-2.692310101E0,5.279885394E0
1.470173317E1,-1.139181304E0,-5.008806789E0,-1.926564879E0,5.486121738E0
1.471173917E1,-7.462140602E-1,-5.367051659E0,-1.120955679E0,5.533409488E0
1.472174517E1,-2.124756838E-1,-5.262184185E0,-2.879626532E-1,5.274338897E0
1.473175117E1,-7.292778924E-2,-4.180415375E0,2.928867397E-1,4.191297390E0
1.474175717E1,8.206567168E-2,-3.494409510E0,3.689359188E-1,3.514789654E0
1.475176317E1,3.686619768E-1,-3.308883204E0,-7.877211052E-1,3.421275238E0
1.476176917E1,3.602772157E-1,-2.966970193E0,-2.689845792E0,4.020942947E0
1.477177617E1,5.046258205E-1,-2.239246783E0,-3.995465605E0,4.607886584E0
1.478178217E1,1.145720392E0,-1.030468848E0,-4.457286299E0,4.716136386E0
1.479178817E1,1.321178523E0,-1.152269858E-1,-4.048618257E0,4.260293387E0
1.480179417E1,9.846146902E-1,5.196935105E-1,-3.186764106E0,3.375649996E0
1.481180017E1,4.223236290E-1,8.139680868E-1,-2.309118671E0,2.484538253E0
1.482180617E1,-1.693499833E-3,1.100315593E0,-1.651849239E0,1.984767790E0
1.483181217E1,-4.213360342E-1,1.373741337E0,-1.398129489E0,2.004857946E0
1.484181817E1,-5.578192569E-1,1.753102257E0,-1.571504403E0,2.419536306E0
1.485182417E1,-6.552797703E-1,2.109008240E0,-2.038039122E0,3.005147384E0
1.486183017E1,-7.186817144E-1,2.482301504E0,-2.454559682E0,3.564153110E0
1.487183617E1,-1.079599785E0,2.633647326E0,-2.571219528E0,3.835727283E0
1.488184217E1,-1.675671965E0,2.637389544E0,-2.274513679E0,3.864856093E0
1.489184817E1,-2.305741611E0,2.587477711E0,-1.836727965E0,3.922378730E0
1.490185417E1,-2.737507324E0,2.461949685E0,-1.318369667E0,3.910657385E0
1.491186017E1,-2.848912570E0,2.383733820E0,-7.130708724E-1,3.782454207E0
1.492186617E1,-2.867061158E0,2.341595861E0,-1.554315636E-1,3.705033040E0
1.493187217E1,-2.606607462E0,2.461602945E0,4.456195208E-1,3.612819989E0
1.494187817E1,-2.200368938E0,2.501013179E0,1.067808875E0,3.498128954E0
1.495188417E1,-1.735300993E0,2.540901130E0,1.377488525E0,3.371190105E0
1.496189017E1,-1.143657202E0,2.550949570E0,1.181956464E0,3.035179828E0
1.497189617E1,-4.723282863E-1,2.492226568E0,4.403856781E-1,2.574534292E0
1.498190217E1,3.560764298E-1,2.441435899E0,-1.868898761E-1,2.474333748E0
1.499190817E1,1.702335999E0,2.608814201E0,-9.407708055E-1,3.254060402E0
1.500191417E1,3.821668814E0,2.319436668E0,-1.094649056E0,4.602520564E0
1.501192017E1,4.238432034E0,1.775992352E0,8.855464849E-1,4.680026444E0
1.502192617E1,3.489408971E0,1.403772052E0,3.034897297E0,4.832923809E0
1.503193217E1,3.163688946E0,6.954040951E-1,3.682047830E0,4.904078998E0
1.504193817E1,2.536341471E0,-5.980081934E-1,3.769162864E0,4.582273514E0
1.505194417E1,1.981513503E0,-1.339572548E0,4.606356969E0,5.190315491E0
1.506195017E1,1.897593387E0,-1.584903590E0,5.314274690E0,5.861253751E0
1.507195617E1,2.111668139E0,-1.662756928E0,4.814003876E0,5.513486759E0
1.508196217E1,2.946032191E0,-2.049215198E0,3.072412448E0,4.724204361E0
1.509196817E1,2.928118368E0,-2.929304184E0,1.151492178E-2,4.141839298E0
1.510197417E1,1.394418992E0,-4.135223415E0,-2.967771846E0,5.277513311E0
1.511198017E1,5.583709417E-1,-5.264352332E0,-4.586531399E0,7.004388186E0
1.512198617E1,1.914948508E-1,-5.503788797E0,-4.425906339E0,7.065196977E0
1.513199217E1,-7.125343904E-1,-5.423015944E0,-2.163273325E0,5.881883939E0
1.514199817E1,-4.073844315E-1,-5.000789087E0,6.387936920E-1,5.057856359E0
1.515200517E1,1.212614439E0,-4.197503863E0,1.351655819E0,4.573450110E0
1.516201117E1,1.999747168E0,-3.135775216E0,5.266557902E-1,3.756253621E0
1.517201717E1,1.068218180E0,-2.732554733E0,-5.004327822E-1,2.976302810E0
1.518202317E1,-5.432515039E-1,-2.424818696E0,-2.209547313E0,3.325201833E0
1.519202917E1,-1.905331885E0,-2.208109190E0,-4.242283010E0,5.148106538E0
1.520203517E1,-3.713878902E0,-2.468599724E0,-5.237938705E0,6.879162956E0
1.521204117E1,-5.166888603E0,-2.534894285E0,-3.717855594E0,6.851633169E0
1.522204717E1,-4.996318306E0,-2.304201747E0,-9.179929769E-1,5.578104822E0
1.523205317E1,-3.770216240E0,-1.563289357E0,1.095709156E0,4.225988958E0
1.524205917E1,-2.162952020E0,-4.368747175E-1,1.645581901E0,2.752664301E0
1.525206517E1,-6.244548574E-1,2.844705498E-1,3.701115015E-1,7.796472832E-1
1.526207117E1,3.591535270E-2,4.406666368E-1,-1.300819249E0,1.373902368E0
1.527207717E1,-9.862937182E-2,4.750523579E-1,-2.022787537E0,2.080161512E0
1.528208317E1,-4.266758578E-1,3.166202956E-1,-1.889539140E0,1.962819111E0
1.529208917E1,-9.008463094E-1,4.961888731E-2,-1.052895259E0,1.386569339E0
1.530209517E1,-1.559841547E0,-1.925610906E-1,1.222243488E-2,1.571729879E0
1.531210117E1,-2.422350294E0,-3.336620057E-1,7.832544172E-1,2.567605648E0
1.532210717E1,-3.039508411E0,-1.300122553E-1,1.066989680E0,3.223969842E0
1.533211317E1,-2.841191906E0,3.394478256E-1,8.593641150E-1,2.987658440E0
1.534211917E1,-2.112167052E0,9.396703595E-1,3.334418580E-1,2.335682665E0
1.535212517E1,-1.321005153E0,1.586902168E0,-1.969152197E-1,2.074147707E0
1.536213117E1,-4.521030597E-1,2.140816509E0,-4.365446422E-1,2.231157485E0
1.537213717E1,1.755806302E-1,2.446539933E0,-5.291048965E-1,2.509250524E0
1.538214317E1,6.004444358E-1,2.611849490E0,-5.637505263E-1,2.738632129E0
1.539214917E1,7.188087451E-1,2.651954958E0,-5.931380475E-1,2.810936473E0
1.540215517E1,5.689087938E-1,2.501565156E0,-3.985348168E-1,2.596211749E0
1.541216117E1,1.797004321E-1,2.389004501E0,-1.033512908E-1,2.397981701E0
1.542216717E1,-4.391630253E-1,2.073149021E0,8.310121357E-2,2.120782128E0
1.543217317E1,-9.660183518E-1,1.750009664E0,8.466212779E-2,2.000723109E0
1.544217917E1,-9.059485897E-1,1.590032768E0,6.116947711E-2,1.831034886E0
1.545218517E1,-4.689993203E-1,1.443318526E0,-3.059087813E-2,1.517914533E0
1.546219117E1,3.080093935E-3,1.187837886E0,2.189343721E-2,1.188043624E0
1.547219717E1,3.649887559E-1,8.893375272E-1,6.129653710E-1,1.140116036E0
1.548220317E1,3.796356656E-1,6.201761574E-1,1.363078208E0,1.544902556E0
1.549220917E1,6.385168263E-1,3.078500569E-1,1.838331272E0,1.970263247E0
1.550221517E1,7.432723260E-1,2.226198721E-1,1.745939856E0,1.910580890E0
1.551222117E1,9.758485445E-1,1.930516720E-1,1.859855458E0,2.109173215E0
1.552222717E1,9.701021934E-1,4.520663685E-1,2.156891089E0,2.407829196E0
1.553223317E1,1.466256568E0,7.380946165E-1,2.957533371E0,3.382557557E0
1.554223917E1,1.904605661E0,1.545737770E0,3.194049736E0,4.027254858E0
1.555224517E1,2.193939925E0,2.034559736E0,3.144422078E0,4.340529451E0
1.556225117E1,1.987425916E0,2.486696856E0,2.616115619E0,4.120386384E0
1.557225717E1,1.844020613E0,2.263791640E0,2.153592675E0,3.628102261E0
1.558226417E1,1.599216405E0,1.891178992E0,1.962880035E0,3.160213461E0
1.559227017E1,1.448459105E0,1.567281836E0,2.241472818E0,3.094932394E0
1.560227617E1,1.152912467E0,1.371469694E0,3.228711446E0,3.692521344E0
1.561228217E1,4.189413071E-1,1.252009909E0,4.345927831E0,4.542040218E0
1.562228817E1,-3.166705360E-2,8.904005510E-1,4.685557505E0,4.769514134E0
1.563229417E1,6.229220098E-1,5.571671462E-1,4.352103075E0,4.431621401E0
1.564230017E1,1.380055453E0,5.136270243E-1,3.969946017E0,4.234245760E0
1.565230617E1,1.986982404E0,1.693347806E-1,3.824346839E0,4.313050207E0
1.566231192E1,2.463893592E0,-4.432937908E-1,3.324346751E0,4.161557682E0
1.567231792E1,2.480260241E0,-1.067130305E0,3.147856733E0,4.147223163E0
1.568232392E1,1.877293024E0,-1.541078124E0,3.369179108E0,4.153374380E0
1.569232992E1,1.075563160E0,-1.712700920E0,2.441747409E0,3.170537961E0
1.570233592E1,3.459432051E-1,-1.605474679E0,1.042138721E0,1.945065233E0
1.571234192E1,-3.356461852E-1,-1.797386144E0,7.963279143E-2,1.830190344E0
1.572234792E1,-1.359167152E0,-1.598477901E0,-4.483528018E-1,2.145573859E0
1.573235392E1,-1.819943241E0,-1.226015527E0,-2.069819762E0,3.016531339E0
1.574235992E1,-1.854389188E0,-1.657890875E0,-3.032663076E0,3.922296106E0
1.575236592E1,-2.154229437E0,-2.042650529E0,-3.133227584E0,4.316276258E0
1.576237192E1,-2.274427433E0,-2.468994995E0,-2.937063439E0,4.460414563E0
1.577237792E1,-1.978382027E0,-2.832705842E0,-2.442762632E0,4.231466307E0
1.578238392E1,-1.302539061E0,-3.156670825E0,-1.957779655E0,3.936252010E0
1.579238992E1,-8.230375569E-1,-3.247237179E0,-1.802764121E0,3.804194868E0
1.580239592E1,8.106886759E-2,-4.040529512E0,-1.689274343E0,4.380193911E0
1.581240192E1,3.613623127E-2,-4.132861724E0,-1.632239432E0,4.443653612E0
1.582240792E1,-9.271652117E-2,-3.542573025E0,-1.236396966E0,3.753278227E0
1.583241392E1,-1.289881155E-2,-2.959174685E0,-9.186195061E-1,3.098506574E0
1.584241992E1,2.296242517E-1,-2.244121606E0,-1.069876158E0,2.496686619E0
1.585242592E1,6.222481182E-1,-1.590008794E0,-1.870061188E0,2.532281487E0
1.586243192E1,7.800678308E-1,-1.110540034E0,-2.732462639E0,3.050927246E0
1.587243792E1,7.703013727E-1,-4.024913353E-1,-3.331858084E0,3.443347466E0
1.588244392E1,6.647778413E-1,2.743648070E-1,-3.386779227E0,3.462293915E0
1.589244992E1,2.402632606E-1,7.307277095E-1,-3.003983068E0,3.100903690E0
1.590245592E1,-2.042680934E-1,1.131026339E0,-2.424600595E0,2.683213387E0
1.591246192E1,-7.500350694E-1,1.247675952E0,-1.932757080E0,2.419668948E0
1.592246792E1,-1.287988704E0,1.387578773E0,-1.782558775E0,2.600347196E0
1.593247392E1,-1.760837246E0,1.503266519E0,-1.797895437E0,2.931345431E0
1.594247992E1,-2.113190753E0,1.652786840E0,-1.800502710E0,3.230957986E0
1.595248592E1,-2.219058686E0,1.907447115E0,-1.899242887E0,3.488509638E0
1.596249192E1,-2.189231308E0,2.038820602E0,-2.160782119E0,3.690325532E0
1.597249792E1,-2.279028899E0,2.194657086E0,-2.299996430E0,3.911582291E0
1.598250392E1,-2.502852128E0,2.321490794E0,-2.091648149E0,4.003570939E0
1.599250992E1,-2.749797587E0,2.316586735E0,-1.360618723E0,3.844378256E0
1.600251592E1,-2.874653767E0,2.218478642E0,-3.339365324E-1,3.646477118E0
1.601252192E1,-2.663514026E0,2.245238425E0,4.505645111E-1,3.512607426E0
1.602252792E1,-2.072814998E0,2.290835597E0,9.848678747E-1,3.242599957E0
1.603253392E1,-1.342940252E0,2.469473298E0,1.494105687E0,3.183416198E0
1.604253992E1,-4.661470485E-1,2.624632673E0,1.693251034E0,3.158019760E0
1.605254692E1,5.254907325E-1,2.782887565E0,1.260517315E0,3.099920581E0
1.606255292E1,1.540878880E0,3.029193923E0,3.246149012E-1,3.414044285E0
1.607255892E1,2.615701928E0,3.113999600E0,-3.561232075E-1,4.082366204E0
1.608256492E1,3.766603830E0,3.019473512E0,-2.765060574E-2,4.827555205E0
1.609257092E1,4.728595936E0,2.801248991E0,1.172234299E0,5.619675141E0
1.610257692E1,4.067355660E0,2.046728377E0,2.595251584E0,5.240974136E0
1.611258292E1,2.611260676E0,1.250527639E0,3.426833531E0,4.486166486E0
1.612258892E1,1.583733124E0,2.054588789E-1,3.521271326E0,3.866493982E0
1.613259492E1,7.497584961E-1,-9.829438484E-1,3.582981963E0,3.790260698E0
1.614260092E1,9.268713892E-3,-1.574572145E0,4.188312040E0,4.474519091E0
1.615260692E1,-5.365141958E-2,-1.481049439E0,4.858148015E0,5.079171985E0
1.616261292E1,7.029918806E-1,-1.503238453E0,4.924362470E0,5.196466989E0
1.617261892E1,1.725368182E0,-2.337180628E0,3.742858580E0,4.737963592E0
1.618262492E1,1.820176837E0,-3.786605401E0,6.141517711E-1,4.246010666E0
1.619263092E1,1.843878233E0,-5.295190548E0,-4.074111825E0,6.930895832E0
1.620263692E1,1.458422907E0,-6.146763248E0,-7.927977748E0,1.013718536E1
1.621264292E1,4.688981634E-1,-5.809705764E0,-7.197547077E0,9.261599780E0
1.622264892E1,8.330574918E-1,-4.802152154E0,-3.600994311E0,6.059852319E0
1.623265492E1,1.717489497E0,-3.956703828E0,-6.667816821E-1,4.364616039E0
1.624266092E1,1.312454769E0,-3.683641196E0,1.223114723E0,4.097286859E0
1.625266692E1,-2.545687661E-2,-3.562201543E0,1.711700462E0,3.952195132E0
1.626267292E1,-9.995420471E-1,-2.859606543E0,5.285719228E-1,3.075032058E0
1.627267892E1,-2.169760372E0,-2.379339638E0,-2.034153647E0,3.808792229E0
1.628268492E1,-3.804085068E0,-2.469727067E0,-4.373897110E0,6.300919847E0
1.629269092E1,-4.488247598E0,-2.428884265E0,-4.120893059E0,6.559390587E0
1.630269692E1,-4.258083941E0,-2.253367224E0,-2.513590540E0,5.433882598E0
1.631270292E1,-3.559358042E0,-1.883332613E0,-9.831897238E-1,4.145194017E0
1.632270892E1,-2.430341684E0,-1.230126119E0,2.233577907E-1,2.733067813E0
1.633271492E1,-1.362388822E0,-9.939407068E-1,2.410619903E-1,1.703564590E0
1.634272092E1,-7.904239807E-1,-9.621230829E-1,-4.118749470E-1,1.311522729E0
1.635272692E1,-7.572702679E-1,-7.263399589E-1,-8.990558919E-1,1.381784893E0
1.636273292E1,-1.067759612E0,-6.092126280E-1,-1.135074659E0,1.673214002E0
1.637273892E1,-1.430763676E0,-6.928921312E-1,-1.194711873E0,1.988597662E0
1.638274492E1,-1.536478119E0,-7.114541173E-1,-9.193436837E-1,1.926687515E0
1.639275092E1,-1.584179120E0,-7.173995662E-1,-5.635371029E-1,1.828075406E0
1.640275692E1,-1.481947717E0,-5.055590361E-1,-1.473676684E-1,1.572728904E0
1.641276292E1,-1.212019924E0,-8.651540279E-3,1.733985955E-1,1.224391366E0
1.642276892E1,-8.982498533E-1,6.335434771E-1,2.850640422E-1,1.135557856E0
1.643277492E1,-5.555014206E-1,1.215640227E0,6.559494227E-2,1.338157572E0
1.644278092E1,-3.599291602E-1,1.772156578E0,-5.464994860E-1,1.889113450E0
1.645278692E1,-2.211707859E-1,2.186178623E0,-1.182729466E0,2.495424308E0
1.646279292E1,-1.135400641E-1,2.415150325E0,-1.353823382E0,2.771043159E0
1.647279892E1,-3.293447140E-1,2.506145865E0,-1.204043444E0,2.799813503E0
1.648280492E1,-5.774634895E-1,2.694510409E0,-7.740675643E-1,2.862347117E0
1.649281092E1,-6.740907747E-1,2.867978586E0,-2.340514711E-1,2.955415306E0
1.650281692E1,-7.020732100E-1,2.912978173E0,1.768750575E-1,3.001605140E0
1.651282292E1,-6.414868464E-1,2.861596935E0,4.363142619E-1,2.964896714E0
1.652282892E1,-5.768464621E-1,2.669194304E0,5.400883064E-1,2.783710734E0
1.653283492E1,-3.685234708E-1,2.347210357E0,6.553772727E-1,2.464695798E0
