"Time (s)","Linear Acceleration x (m/s^2)","Linear Acceleration y (m/s^2)","Linear Acceleration z (m/s^2)","Absolute acceleration (m/s^2)"
7.113958334E-3,2.196205721E0,-5.830814213E-1,-1.695062209E0,2.834879081E0
1.710495833E-2,2.081727178E0,-4.177338570E-1,-1.104686971E0,2.393412402E0
2.709595834E-2,1.572075384E0,-5.794631642E-1,-9.007606477E-1,1.902253483E0
3.708595833E-2,1.072185515E0,-8.672660422E-1,-9.879098886E-1,1.696377940E0
4.707695833E-2,7.589738542E-1,-8.877640414E-1,-1.094697003E0,1.600789753E0
5.706795834E-2,6.260137251E-1,-6.664922449E-1,-1.234291091E0,1.536092313E0
6.705895834E-2,6.023760635E-1,-4.090410939E-1,-1.287707160E0,1.479311079E0
7.704995833E-2,7.228740218E-1,-3.055962476E-1,-1.098575462E0,1.350112574E0
8.703995834E-2,7.120498024E-1,-1.254616597E-1,-1.188237836E0,1.390922249E0
9.703095834E-2,7.140548126E-1,1.943360129E-1,-7.956809199E-1,1.086622698E0
1.070219583E-1,5.557510968E-1,5.342390442E-1,-4.201686376E-1,8.779591801E-1
1.170129583E-1,8.050766645E-1,3.934527093E-1,-3.856010681E-1,9.755212217E-1
1.270039583E-1,1.106617283E0,-4.963642895E-2,-1.182733852E-1,1.114026113E0
1.369939583E-1,8.740960287E-1,2.481762975E-1,-3.976246977E-1,9.918370543E-1
1.469849583E-1,5.369119526E-1,6.298538840E-1,-1.293171968E0,1.535344944E0
1.569759583E-1,-2.059197856E-1,6.256169915E-1,-2.669026489E0,2.749091118E0
1.669669583E-1,-7.652417039E-1,6.682923102E-1,-2.848104485E0,3.023889653E0
1.769579583E-1,-1.318116628E0,9.775579780E-1,-2.080208949E0,2.649588707E0
1.869479583E-1,-1.809536951E0,5.884398097E-1,-1.601721936E-1,1.909539347E0
1.969389583E-1,-2.470978371E0,-1.857897225E-1,2.089415390E0,3.241281938E0
2.069299583E-1,-7.203415343E0,-2.032468772E-1,9.001270434E0,1.153054081E1
2.169209583E-1,-1.426207935E1,3.813948443E0,1.204271252E1,1.905203493E1
2.269110417E-1,1.450134040E0,4.124500498E0,-2.283148263E0,4.932256997E0
2.369010417E-1,4.858012652E0,1.929785818E-1,-2.816698505E0,5.618836012E0
2.468920417E-1,1.132072022E-1,-1.759943791E0,-3.108078125E0,3.573565117E0
2.568830417E-1,-6.715470459E0,-2.435144295E0,-1.017305011E0,7.215426578E0
2.668740417E-1,-2.025627091E0,-1.961245300E0,-1.370448770E0,3.134928718E0
2.768650417E-1,2.944229494E0,-1.530643475E0,-2.458422060E0,4.129793674E0
2.868550417E-1,8.830399297E-1,-1.806451668E0,-8.137090552E-1,2.169135674E0
2.968460417E-1,-6.246776363E-1,-2.158675659E0,2.464554620E-1,2.260717374E0
3.068370417E-1,-6.616264113E-1,-2.001630849E0,-4.260924518E-1,2.150774358E0
3.168280417E-1,-7.822334933E-1,-1.066625690E0,-2.564167786E-1,1.347341518E0
3.268190417E-1,-3.174552049E-1,-1.095519707E-1,1.025161330E0,1.078765588E0
3.368090417E-1,3.015591837E-1,-1.170951712E-1,2.400068602E0,2.421771772E0
3.468000417E-1,4.182210763E-1,-6.625518063E-1,1.627356715E0,1.806148842E0
3.567910417E-1,-2.675507542E-1,-4.429990911E-1,2.434803987E-1,5.719390749E-1
3.667820417E-1,-1.112021865E0,-2.148465836E-1,-8.679630303E-1,1.426923791E0
3.767730417E-1,-1.269873006E0,-2.273423758E-1,-9.741899818E-1,1.616572958E0
3.867630417E-1,-1.160729390E0,3.567503214E-1,-8.962044972E-1,1.509220332E0
3.967540417E-1,-6.149347863E-1,1.347259590E0,-1.331249036E0,1.991350594E0
4.067450417E-1,5.891265652E-1,2.092514414E0,-1.054747657E0,2.416232460E0
4.167360417E-1,1.225738880E0,2.591500010E0,1.189636490E0,3.103794949E0
4.267270417E-1,1.384118829E0,2.538868345E0,3.154428418E0,4.279258821E0
4.367170417E-1,-6.790503100E-2,1.758568819E0,3.077724643E0,3.545358143E0
4.467080417E-1,-1.183488873E0,1.279535969E0,3.108289794E0,3.563611041E0
4.566990417E-1,6.621148000E-1,7.926573247E-1,2.846918669E0,3.028472809E0
4.666900417E-1,2.019467196E0,-1.388693252E-1,1.138066971E0,2.322224984E0
4.766810417E-1,2.073130602E0,1.671815434E0,-1.054596214E0,2.864438952E0
4.866710417E-1,9.321470395E-1,2.366877613E0,-2.616317348E0,3.649126499E0
4.966620417E-1,1.659904656E0,8.991133408E-1,-2.131429389E0,2.847223122E0
5.066530417E-1,2.116731096E0,5.463935052E-1,-2.251684980E0,3.138340588E0
5.166440417E-1,9.342001431E-2,3.646833850E-1,-2.830870986E0,2.855792676E0
5.266350417E-1,1.727033615E-2,-1.814097925E-1,-1.689347726E0,1.699147879E0
5.366250417E-1,8.421845569E-1,-2.247971559E-1,-5.843298018E-2,8.736263517E-1
5.466160417E-1,9.317913826E-1,-1.823423138E-1,3.483104503E-1,1.011337762E0
5.566070417E-1,6.698407991E-1,-8.995849188E-1,8.098153943E-1,1.383380170E0
5.665980417E-1,7.797757624E-1,-1.294168772E0,8.552336419E-1,1.736187672E0
5.765890417E-1,6.508803253E-1,-4.083880330E-1,-1.075338042E-1,7.758798247E-1
5.865790417E-1,-1.195730750E-1,2.284278931E-1,-1.598993626E0,1.619647381E0
5.965700417E-1,-6.985471196E-1,7.340208979E-2,-2.354530486E0,2.457065273E0
6.065610417E-1,-1.725126400E0,-4.332384071E-1,-3.051257222E0,3.531844737E0
6.165520417E-1,-3.000640215E0,-8.399399570E-1,-3.412761329E0,4.621285613E0
6.265430417E-1,-2.575901978E0,-1.479220576E0,-3.573872586E0,4.647142108E0
6.365330417E-1,-1.171551052E0,-1.538672580E0,-3.190040885E0,3.730469947E0
6.465240417E-1,-9.490016386E-2,-1.012189575E0,-2.772933265E0,2.953420503E0
6.565150417E-1,1.605180857E0,2.071682393E-1,-2.563415249E0,3.031603866E0
6.665060417E-1,3.847503275E0,9.881016773E-1,-1.412201983E-1,3.974867233E0
6.764960417E-1,4.944754050E0,-3.752610712E-1,2.632127050E0,5.614223570E0
6.864870417E-1,4.209552343E0,-1.523513527E0,3.578759104E0,5.731399578E0
6.964780417E-1,2.123868646E0,-1.744348390E0,2.146932696E0,3.487533417E0
7.064690417E-1,-1.036418974E-1,-9.390039231E-1,3.660988498E-1,1.013162563E0
7.164600417E-1,1.237000398E-1,-3.915298524E-1,-1.053615636E-1,4.239084622E-1
7.264510417E-1,-3.286268221E-1,-7.369531669E-1,-1.009667963E-1,8.131973023E-1
7.364410417E-1,-9.984173352E-1,-7.773072141E-1,-3.786364496E-2,1.265889938E0
7.464320417E-1,-9.179755814E-1,-5.263859412E-1,1.234990418E-2,1.058259820E0
7.564230417E-1,-6.699040952E-1,-3.319015552E-1,1.312740844E-1,7.590540326E-1
7.664140417E-1,-1.155273719E0,6.198589459E-2,-3.569959044E-2,1.157486103E0
7.764050417E-1,-1.381577483E0,7.397154647E-1,-4.179794401E-1,1.621925437E0
7.863950417E-1,-9.413906103E-1,1.124876238E0,-7.735129559E-1,1.658277758E0
7.963860417E-1,-2.909651253E-1,1.332666109E0,-1.138193271E0,1.776553851E0
8.063770417E-1,1.562124592E-1,1.574167810E0,-1.259806586E0,2.022255983E0
8.163680417E-1,4.124606187E-1,1.788864120E0,-9.059979987E-1,2.047190996E0
8.263590417E-1,4.549387035E-1,1.936756284E0,-4.271332562E-1,2.034806365E0
8.363490417E-1,2.865520672E-1,2.058845416E0,8.768543065E-2,2.080539658E0
8.463400417E-1,5.161492573E-4,1.834064266E0,8.362272674E-1,2.015705346E0
8.563310417E-1,-4.595012493E-1,1.570899655E0,6.683215463E-1,1.767914255E0
8.663220417E-1,-5.062107814E-1,1.581071763E0,2.402094662E-1,1.677420002E0
8.763130417E-1,2.808322661E-2,1.901155804E0,3.053006709E-1,1.925718192E0
8.863030417E-1,-7.143670540E-1,1.241975209E0,8.298631579E-1,1.655746227E0
8.962940417E-1,-1.798187651E0,1.926716030E-2,3.711847579E-1,1.836199384E0
9.062850417E-1,-2.342517528E0,-3.565035689E-1,-5.393769926E-1,2.430105081E0
9.162760417E-1,-4.099054293E0,-1.222157388E0,-1.191939123E0,4.440341614E0
9.262660417E-1,-5.632187805E0,-1.501570388E0,-9.806464773E-1,5.910830789E0
9.362570417E-1,-5.656813354E0,-1.673432043E0,-1.387408034E0,6.060100096E0
9.462480417E-1,-4.609384657E0,-2.058931808E0,-2.079209075E0,5.459737859E0
9.562390417E-1,-3.627499740E0,-2.002789767E0,-2.629919726E0,4.907789622E0
9.662300417E-1,-1.665509212E0,2.749217543E-1,-3.866131627E0,4.218587046E0
9.762200417E-1,1.663091388E-1,-5.371866256E-1,-5.910642740E0,5.937333222E0
9.862110417E-1,8.429170668E-1,-2.808081755E0,-8.007954794E-1,3.039260720E0
9.962020417E-1,5.564111597E0,1.974669630E0,4.161241186E-1,5.918768224E0
1.006193042E0,2.655855051E0,-2.746635413E0,5.270639259E-1,3.856859930E0
1.016184042E0,-1.682968706E0,-1.130665566E0,-8.803269678E-1,2.210376406E0
1.026174042E0,-2.746685114E0,-2.527490541E0,-1.138894352E0,3.902507898E0
1.036165042E0,2.316813022E-1,-3.328195973E0,-3.682248974E-1,3.356509234E0
1.046156042E0,5.632286623E-1,-3.714834337E0,-8.917863411E-1,3.861671084E0
1.056147042E0,-1.435427123E-1,-3.506336660E0,8.038284302E-1,3.600158529E0
1.066138042E0,2.081036622E0,-2.653935995E0,1.446346214E0,3.669605845E0
1.076128042E0,3.309536338E0,-2.795646774E0,2.251790230E0,4.882543487E0
1.086119042E0,3.054326133E0,-2.391627415E0,2.509627882E0,4.620283749E0
1.096110042E0,1.949083384E0,-2.354814369E0,2.347140775E0,3.853978019E0
1.106101042E0,2.311038896E-1,-2.679753206E0,1.928877745E0,3.309842233E0
1.116092042E0,-1.756902070E0,-3.078378654E0,1.459376734E0,3.833131941E0
1.126082042E0,-3.114028544E0,-3.355038494E0,1.232594229E0,4.740542753E0
1.136073042E0,-3.248284416E0,-4.286894926E0,1.358781821E0,5.547531685E0
1.146064042E0,-3.918305163E0,-4.945215980E0,1.507469498E0,6.486966990E0
1.156055042E0,-3.926955534E0,-4.806078267E0,1.914708772E0,6.495034854E0
1.166046042E0,-2.434868306E0,-4.568212658E0,1.706619816E0,5.450660671E0
1.176036042E0,-1.178579990E0,-4.565272385E0,1.326319833E0,4.897947228E0
1.186027042E0,-5.154045779E-1,-4.434774226E0,8.808690047E-1,4.550691653E0
1.196018042E0,-2.544088447E-1,-4.115032102E0,5.464076847E-1,4.158939098E0
1.206009042E0,-2.900014311E-1,-3.755496167E0,2.692765599E-1,3.776289470E0
1.216000042E0,-7.259458566E-1,-3.480104882E0,5.534506559E-1,3.597837545E0
1.225993542E0,-8.451273143E-1,-2.960592927E0,2.199010338E0,3.783516502E0
1.235984542E0,3.080968094E-1,-2.593864040E0,3.361129246E0,4.256788004E0
1.245975542E0,3.549135355E0,-1.225947114E0,3.164763372E0,4.910706191E0
1.255966542E0,5.575982614E0,1.302538915E0,3.945326900E-1,5.739672968E0
1.265957542E0,5.666057217E-1,7.420856336E-1,-1.561626994E0,1.819453764E0
1.275947542E0,2.944868302E-1,-7.415585071E-1,4.509460419E-1,9.165063259E-1
1.285938542E0,5.101147773E0,9.841325873E-1,8.428568405E-1,5.263139101E0
1.295929542E0,5.389945847E0,1.930954969E0,9.396206582E-1,5.801981584E0
1.305920542E0,2.568129859E0,1.884607306E-1,2.009384549E0,3.266256984E0
1.315911542E0,2.726416326E-1,-4.394770208E-1,3.606899414E0,3.643788810E0
1.325901542E0,1.509489711E0,3.903180170E-1,4.828083386E0,5.073588131E0
1.335892542E0,1.297096619E0,1.267787451E-1,5.537148331E0,5.688457096E0
1.345883542E0,-5.802555789E0,-1.986344181E0,6.088550123E0,8.642086524E0
1.355874542E0,-2.760065882E0,-2.482541825E0,7.311628593E0,8.200054285E0
1.365865542E0,2.277578790E0,-1.107196596E0,6.522900013E0,6.997247603E0
1.375855542E0,3.841011989E0,1.051574957E0,3.594735451E0,5.364821148E0
1.385846542E0,3.635961245E0,2.425280626E0,-4.719270211E-1,4.396011307E0
1.395837542E0,4.982731131E-1,2.669684300E0,-2.077997532E0,3.419585370E0
1.405828542E0,7.675026029E-1,1.492337489E0,-7.460930228E-2,1.679791050E0
1.415819542E0,5.964180431E-1,2.518026237E0,1.373043764E0,2.929406048E0
1.425809542E0,-6.493040621E-2,2.403224929E0,2.347465296E0,3.360104066E0
1.435800542E0,1.958870453E0,3.033478178E0,1.925751239E0,4.092393083E0
1.445791542E0,2.842045307E0,3.794824832E0,-5.835509527E-1,4.776865997E0
1.455782542E0,2.692846583E0,3.573735176E0,-1.727007887E0,4.796411375E0
1.465773542E0,2.690080558E0,3.554807739E0,-1.496061580E0,4.702275165E0
1.475763542E0,3.634953770E0,3.989114944E0,-1.398615392E0,5.575127977E0
1.485754542E0,3.849279074E0,4.020358956E0,-1.352801873E0,5.728028320E0
1.495745542E0,1.787732976E0,2.992404411E0,-9.739677876E-1,3.619266031E0
1.505736542E0,9.055661818E-1,2.557241174E0,-5.764769912E-3,2.712851961E0
1.515727542E0,5.490605664E-1,2.101487551E0,1.257472962E-1,2.175667671E0
1.525717542E0,6.028479338E-4,1.181764383E0,1.062568308E0,1.589219566E0
1.535708542E0,-8.013322538E-1,1.193930685E0,1.597216072E0,2.149116805E0
1.545699542E0,-1.195791269E0,1.274942688E0,-7.262768090E-2,1.749477178E0
1.555690542E0,-1.381866628E0,1.441067348E0,-1.350435505E0,2.410374770E0
1.565680542E0,-1.417056341E0,1.546527729E0,-3.115292419E0,3.755641563E0
1.575671542E0,-1.157980249E0,1.970110556E0,-2.927500318E0,3.713827132E0
1.585662542E0,-1.374091001E0,2.133597536E0,-2.432210746E0,3.515112180E0
1.595653542E0,-2.076291607E0,2.145757990E0,-1.736994932E0,3.454332871E0
1.605644542E0,-2.533024930E0,2.393532000E0,-1.822323350E0,3.932692859E0
1.615634542E0,-1.738146248E0,2.997372791E0,-2.029925233E0,4.015718177E0
1.625625542E0,-8.937743944E-1,2.973481652E0,-9.702425265E-1,3.252967317E0
1.635616542E0,-6.574088877E-1,2.085003666E0,-6.553056443E-1,2.282291002E0
1.645607542E0,-1.488424239E0,1.694732426E0,-1.548885911E0,2.736160134E0
1.655598542E0,-1.532552591E0,1.213124755E0,-8.663339961E-1,2.137971868E0
1.665588542E0,-1.278095215E0,6.322354549E-1,4.025258338E-1,1.481646414E0
1.675579542E0,-1.400151456E0,3.772062206E-1,1.010050371E0,1.767175821E0
1.685570542E0,-1.296330926E0,-1.317506325E-1,2.360930264E-1,1.324225063E0
1.695561542E0,-1.896691162E0,-7.529295874E-1,-6.663217986E-1,2.146700973E0
1.705552542E0,-1.168051201E0,-8.812935126E-1,-3.373855126E-1,1.501616078E0
1.715542542E0,-1.158222324E-1,-4.922022414E-1,1.408387259E0,1.496406532E0
1.725533542E0,2.421375856E-1,2.998990130E-1,2.492007297E0,2.521640418E0
1.735524542E0,1.269481097E0,-1.142247730E-1,1.800025578E0,2.205611397E0
1.745515542E0,1.432720447E0,7.165803713E-1,6.181419110E-1,1.717054085E0
1.755506542E0,9.076094913E-1,1.387141986E0,-9.188782454E-2,1.660229276E0
1.765496542E0,7.234976274E-1,2.033429469E0,7.178568184E-2,2.159499342E0
1.775487542E0,5.687382013E-1,2.400669111E0,-3.918610972E-1,2.498045324E0
1.785478542E0,6.994032982E-1,2.120110933E0,-8.189849979E-1,2.377976402E0
1.795469542E0,9.684018230E-1,1.678686497E0,-1.208069837E0,2.283686313E0
1.805460542E0,1.277622467E0,1.899881988E0,-1.718615963E0,2.862780391E0
1.815450542E0,2.161358362E0,2.014731828E0,-2.236981571E0,3.706035733E0
1.825441542E0,3.004053527E0,1.767889280E0,-2.158616602E0,4.099926309E0
1.835432542E0,3.007445204E0,8.725957793E-1,-9.741420346E-1,3.279497333E0
1.845423542E0,3.177002764E0,-1.272583337E0,2.929238695E-1,3.434911833E0
1.855414542E0,2.938490744E0,-3.120054976E0,1.920346073E0,4.696509337E0
1.865404542E0,2.103706570E0,-4.440118289E0,2.223010234E0,5.392773521E0
1.875395542E0,1.065151315E0,-4.940138258E0,1.783376216E0,5.359099183E0
1.885386542E0,5.232521260E-1,-5.200352218E0,1.903088601E0,5.562301880E0
1.895377542E0,2.975802997E-1,-4.034696329E0,7.206833625E-1,4.109344597E0
1.905368542E0,-1.384383854E-1,-2.974855748E0,-7.750829333E-1,3.077285404E0
1.915358542E0,-5.543748084E-1,-1.926759299E0,-1.219737371E0,2.346804653E0
1.925349542E0,-1.079163875E0,-4.781712627E-1,-1.633304502E0,2.015173944E0
1.935340542E0,-1.552369097E0,1.029442661E0,-1.232436939E0,2.233495649E0
1.945331542E0,-1.704211932E0,2.537165928E0,-1.207964587E-1,3.058780973E0
1.955322542E0,-1.374545329E0,3.718901076E0,6.762363374E-1,4.022051175E0
1.965312542E0,-8.282379243E-1,4.516951287E0,1.904770845E0,4.971617339E0
1.975303542E0,-5.192143312E-1,4.942247348E0,1.706447323E0,5.254270153E0
1.985294542E0,-1.119368453E0,4.950963208E0,6.226775962E-1,5.113975930E0
1.995285542E0,-8.437175506E-1,4.558965286E0,-6.388182503E-1,4.680182960E0
2.005275542E0,-2.380126673E-1,4.060147505E0,-1.366140541E0,4.290429788E0
2.015266542E0,-4.780829698E-2,2.897701153E0,-1.251921031E0,3.156939003E0
2.025257542E0,-7.484459424E-1,1.954259339E0,-7.488950086E-1,2.222643612E0
2.035248542E0,-1.325678979E0,8.418996513E-1,-3.233334839E-1,1.603360321E0
2.045239542E0,-9.804687220E-1,-6.828027606E-2,8.009445834E-1,1.267869606E0
2.055229542E0,-2.573827386E-2,-1.241382594E0,2.609893012E-1,1.268782337E0
2.065220542E0,9.665810001E-1,-1.953934819E0,-4.373635447E-1,2.223381878E0
2.075211542E0,1.321759298E0,-2.432218933E0,-1.463384708E0,3.131170928E0
2.085202542E0,7.999055332E-1,-2.566040064E0,-2.010746951E0,3.356711750E0
2.095193542E0,3.427240205E-1,-1.979555563E0,-8.806026641E-1,2.193527076E0
2.105183542E0,3.218851286E-1,-1.303236780E0,-1.820504281E-1,1.354687602E0
2.115174542E0,5.501542881E-1,-1.165326691E0,-3.302858233E-2,1.289087632E0
2.125165542E0,6.814245719E-1,-4.132876343E-1,3.465030760E-2,7.977134571E-1
2.135156542E0,2.326753289E-2,8.072174764E-1,-1.462435412E-1,8.206878856E-1
2.145147542E0,-1.272963113E0,2.012087717E0,-6.335212576E-1,2.463794077E0
2.155137542E0,-1.998984107E0,2.906103601E0,-1.556313922E0,3.855319523E0
2.165128542E0,-1.461547513E0,2.004252448E0,-6.792277730E-1,2.571866905E0
2.175119542E0,-1.182098844E0,-7.508292675E-2,1.264796600E0,1.732831660E0
2.185110542E0,-1.011674727E0,6.449782920E-1,2.378971556E0,2.664392691E0
2.195101542E0,5.738691330E-2,1.298912179E0,1.136198201E0,1.726676710E0
2.205091542E0,1.071532381E0,8.264255798E-1,5.874472448E-1,1.475213594E0
2.215082542E0,1.227366818E0,5.902957159E-1,-1.661281675E-2,1.362040500E0
2.225073542E0,1.621478509E0,1.144632225E0,-1.346715506E0,2.398545005E0
2.235064792E0,3.347879163E0,6.745991170E-1,6.450718474E-1,3.475557012E0
2.245054792E0,1.401813235E0,1.475170063E0,-9.120855349E-1,2.230046431E0
2.255045792E0,1.138183623E0,1.279778920E0,-4.075295886E-1,1.760504590E0
2.265036792E0,-3.443761513E-1,8.637506962E-1,1.579812419E-1,9.431957758E-1
2.275027792E0,-7.949108416E-1,7.606999522E-1,2.383763641E-2,1.100507109E0
2.285018792E0,-5.611707348E-1,1.001515775E0,-1.890176779E-1,1.163475020E0
2.295008792E0,9.562007305E-1,2.182977857E0,-3.405502304E0,4.156580097E0
2.304999792E0,1.832264493E0,-3.652439868E-1,-4.212860405E-2,1.868788689E0
2.314990792E0,-1.473700658E0,-8.530333346E-1,2.932615754E0,3.391119972E0
2.324981792E0,4.128201494E-1,-4.265340335E0,3.507886173E0,5.537943125E0
2.334972792E0,7.799030855E-1,-3.892835861E0,1.889523937E0,4.396898972E0
2.344962792E0,1.316740340E0,-4.509454572E0,8.478880772E-1,4.773667338E0
2.354953792E0,1.632248788E0,-4.817186515E0,-1.512744856E-1,5.088458116E0
2.364944792E0,1.727903096E0,-4.549365912E0,-2.948259687E-1,4.875377079E0
2.374935792E0,1.929634960E0,-4.201681699E0,-1.374791497E-1,4.625637328E0
2.384926792E0,1.937698562E0,-3.142734572E0,-1.310059019E0,3.917615466E0
2.394916792E0,5.502265012E-1,-1.345788723E0,-3.981243423E-1,1.507448003E0
2.404907792E0,6.026067361E-1,-1.240482123E0,-1.837953542E0,2.297825929E0
2.414898792E0,-2.725501529E0,-4.516882290E0,-1.311557368E0,5.436061712E0
2.424889792E0,3.539818694E0,-4.679434885E0,2.395969119E0,6.337830485E0
2.434880792E0,1.607662123E0,-4.441539162E-1,-9.011608896E-1,1.895769277E0
2.444870792E0,1.359203990E0,1.513844132E0,1.721885434E0,2.665342190E0
2.454861792E0,2.020032621E0,5.011198300E-1,2.314804796E0,3.112872326E0
2.464852792E0,2.465215355E-1,4.057429719E-1,1.016787533E0,1.122166259E0
2.474843792E0,-1.078439113E0,1.010396526E0,8.727548236E-1,1.716284662E0
2.484833792E0,-1.768222572E0,1.385514121E0,8.388436040E-1,2.397898879E0
2.494824792E0,-1.753816202E0,1.978097268E0,5.873012106E-1,2.708073629E0
2.504815792E0,-1.537873265E0,1.253275246E0,4.191458134E-1,2.027667684E0
2.514806792E0,-2.076179340E0,1.519035290E0,-1.574214588E0,3.015980841E0
2.524797792E0,-1.368537023E0,1.737153976E0,-8.478202495E-1,2.368416495E0
2.534787792E0,-6.293595019E-1,9.118680185E-1,6.235684195E-1,1.271390672E0
2.544778792E0,4.112677136E-1,3.579987019E-1,-8.576546815E-1,1.016304952E0
2.554769792E0,8.018903705E-1,9.738268697E-1,9.181154761E-1,1.560225293E0
2.564760792E0,1.434190437E-1,2.681971639E-1,5.850077865E-1,6.593427417E-1
2.574751792E0,5.148827139E-1,-4.159147882E-1,5.932769188E-1,8.888570315E-1
2.584741792E0,6.199250194E-1,-9.479582030E-1,1.560636476E-1,1.143366803E0
2.594732792E0,4.277957457E-1,-8.639945251E-1,4.613254344E-1,1.068792260E0
2.604723792E0,5.747731125E-1,-8.391964835E-1,9.125959969E-1,1.366545397E0
2.614714792E0,3.286921647E-1,-6.532357299E-1,8.738365585E-1,1.139449775E0
2.624704792E0,1.726095137E-1,-2.018412066E-1,-7.354861736E-2,2.755781486E-1
2.634695792E0,3.134408721E-1,1.613515770E-1,-1.207109724E0,1.257534651E0
2.644686792E0,4.540931596E-1,-5.575320125E-3,-1.508722118E0,1.575586910E0
2.654677792E0,-4.112791157E-1,-9.674639297E-1,-1.881286965E0,2.155081810E0
2.664668792E0,-3.603726715E-1,-6.874407721E-1,-3.906665111E-1,8.689439569E-1
2.674658792E0,2.858136553E-1,-6.695710963E-1,1.037193730E-1,7.353724273E-1
2.684649792E0,-1.357717627E-1,3.501979315E-1,5.160986423E-2,3.791254949E-1
2.694640792E0,-4.109975722E-1,1.454017761E0,-1.115473330E-2,1.511029808E0
2.704631792E0,-4.041075057E-1,1.384665690E0,-2.781578958E-1,1.469004345E0
2.714622792E0,-2.938097227E-1,3.786013663E-1,-6.672389343E-2,4.838545501E-1
2.724612792E0,-7.163210472E-1,1.891048014E-1,2.486016825E-1,7.814597016E-1
2.734603792E0,-6.685457870E-1,9.791338027E-2,5.002607279E-1,8.407147526E-1
2.744594792E0,-8.091458881E-1,1.559300387E-1,3.108360837E-1,8.807101204E-1
2.754585792E0,-6.563017175E-1,-1.127541983E-1,-2.631305516E-1,7.160189528E-1
2.764575792E0,-1.147442982E-1,-9.055705673E-1,-1.021451564E0,1.369885982E0
2.774566792E0,-1.510040519E-1,-5.142883444E-1,-1.074240081E0,1.200535912E0
2.784557792E0,-2.400895983E-2,-4.470482880E-1,-7.435028525E-1,8.678854150E-1
2.794548792E0,7.173975196E-1,-1.729039210E-1,-4.076358618E-1,8.430432746E-1
2.804539792E0,8.314234874E-1,3.524485248E-1,-2.189175613E-1,9.291985131E-1
2.814529792E0,7.950038123E-1,2.127567887E-1,1.871787286E-1,8.439978609E-1
2.824520792E0,6.018109301E-1,3.897923523E-1,6.235257348E-1,9.502098797E-1
2.834511792E0,-3.555937421E-1,2.195188013E0,7.521144855E-1,2.347546276E0
2.844502792E0,-7.719789389E-1,4.391496352E0,3.205699436E-1,4.470341909E0
2.854493792E0,-8.467614649E-1,6.354914770E0,-3.120812483E-1,6.418671312E0
2.864483792E0,-8.069625378E-2,7.521866401E0,-8.122659624E-1,7.566026833E0
2.874474792E0,2.548163956E-1,8.011370153E0,-5.240403306E-1,8.032533933E0
2.884465792E0,7.325723599E-1,6.945775326E0,1.955640744E-1,6.987038175E0
2.894456792E0,1.082285703E0,2.690923727E0,3.701088703E-1,2.923934579E0
2.904446792E0,5.574495667E-1,2.087067733E0,7.322001846E-1,2.280946920E0
2.914437792E0,2.376385917E-1,3.813532414E0,1.154212157E0,3.991454281E0
2.924428792E0,-2.011266768E-2,4.470847746E0,1.410957111E0,4.688249573E0
2.934419792E0,9.959270060E-3,1.479509282E0,1.363360483E0,2.011914190E0
2.944410792E0,8.115335986E-1,-4.390160848E0,3.979079953E-1,4.482234914E0
2.954400792E0,1.390900722E0,-1.113527611E1,-6.338909478E-1,1.123969735E1
2.964391792E0,-2.027685750E-1,-1.057892406E1,-2.011655023E0,1.077039950E1
2.974382792E0,-7.637308565E-1,-1.309533647E0,-1.249361705E0,1.964451033E0
2.984373792E0,4.097436368E-2,1.130462083E0,1.716979913E0,2.056123401E0
2.994364792E0,6.108619814E-1,-2.757383180E-1,1.848828924E0,1.966558510E0
3.004354792E0,4.828588293E-1,-1.335292971E0,7.852858861E-1,1.622600964E0
3.014345792E0,4.718936920E-2,-2.407676414E0,3.398600543E-1,2.432002757E0
3.024336792E0,-7.482341270E-1,-3.198725170E0,1.673974518E-1,3.289334116E0
3.034327792E0,-1.072413557E0,-2.930480644E0,6.005850613E-2,3.121120738E0
3.044317792E0,-1.144456224E0,-2.900183880E0,-4.466471690E-1,3.149657169E0
3.054308792E0,-1.257682000E0,-2.494287711E0,-1.051205998E0,2.984672386E0
3.064299792E0,-1.378239454E0,-1.822960696E0,-1.002731119E0,2.495636069E0
3.074290792E0,-1.586617117E0,-9.689666641E-1,-3.894093597E-1,1.899444635E0
3.084281792E0,-1.464848997E0,-1.098510557E0,1.911744234E-1,1.840938806E0
3.094271792E0,-8.854552683E-1,-1.225785731E0,1.856771636E-1,1.523501789E0
3.104262792E0,-2.482011482E-1,-1.918570858E0,1.338281482E-2,1.934605140E0
3.114253792E0,2.064320017E-1,-3.161884203E0,-2.502598067E-1,3.178483263E0
3.124244792E0,1.526153983E-1,-3.521686771E0,-4.367427166E-1,3.551945013E0
3.134235792E0,2.445437148E-1,-3.385343735E0,-6.117269307E-1,3.448849616E0
3.144225792E0,4.972245611E-1,-2.551322038E0,-1.139554649E0,2.838143971E0
3.154216792E0,4.078472386E-1,-4.197581631E-1,-9.713717701E-1,1.134063226E0
3.164207792E0,4.541403759E-1,3.107444286E0,-4.284953651E-1,3.169552295E0
3.174198792E0,3.576072308E-1,4.083991281E0,-2.203084677E-2,4.099677191E0
3.184188792E0,-5.632017651E-1,2.240857106E0,1.429106283E-1,2.314964415E0
3.194179792E0,-1.210297772E0,8.777454221E-1,3.903903763E-1,1.545206255E0
3.204170792E0,-1.146979005E0,-1.756445110E-2,4.757972932E-1,1.241874556E0
3.214161792E0,-9.995975956E-1,-3.358816087E-1,4.467787313E-1,1.145261124E0
3.224152792E0,-7.861552209E-1,1.214053878E0,8.844755673E-1,1.695365411E0
3.234138667E0,-2.922034925E-1,1.429860574E0,1.327804441E0,1.973055695E0
3.244129667E0,-7.396727800E-2,6.454484081E-1,7.374707186E-1,9.828213808E-1
3.254120667E0,7.427776515E-2,1.186074951E0,6.024620175E-2,1.189924611E0
3.264111667E0,-1.517843628E-1,1.747302403E0,-6.788513584E-1,1.880676301E0
3.274102667E0,-4.324659169E-1,1.757677118E0,-1.337636096E0,2.250716763E0
3.284092667E0,-9.863887355E-1,2.407965267E-1,-3.268184245E-1,1.066656452E0
3.294083667E0,-1.887868591E0,-1.750883823E0,1.137572297E0,2.814909005E0
3.304074667E0,-2.237057585E0,-2.730714614E0,1.354262946E0,3.780906911E0
3.314065667E0,-1.351811062E0,-2.333414437E0,1.446403370E0,3.060114179E0
3.324055667E0,-3.336049953E-1,-2.307809479E0,1.349180546E0,2.693986828E0
3.334046667E0,2.214992532E-1,-1.701887664E0,8.974807982E-1,1.936738321E0
3.344037667E0,5.417287427E-1,-1.279663146E0,3.379964004E-1,1.430122150E0
3.354028667E0,6.306336102E-1,-1.172646235E0,-1.620042725E-1,1.341284208E0
3.364019667E0,3.588556114E-1,-9.370420361E-1,-1.556255449E-1,1.015403584E0
3.374009667E0,2.593707919E-1,-8.733296049E-1,1.459886026E-1,9.226540405E-1
3.384000667E0,3.819871965E-1,-1.594053313E0,2.840195833E-1,1.663606716E0
3.393991667E0,6.308177975E-1,-2.643349611E0,1.038646764E-1,2.719561753E0
3.403982667E0,6.795666191E-1,-2.983613707E0,-1.589039326E-2,3.060067654E0
3.413973667E0,5.962660155E-1,-3.437880968E0,-3.125570655E-2,3.489346017E0
3.423963667E0,6.458439723E-1,-3.279095734E0,-1.639619203E-1,3.346112189E0
3.433954667E0,4.460890523E-1,-2.196301907E0,-4.628287536E-1,2.288437888E0
3.443945667E0,9.631270498E-2,-5.832346183E-1,-8.638256867E-1,1.046725166E0
3.453936667E0,-7.764099589E-1,2.928327699E0,-1.327122656E0,3.307441622E0
3.463927667E0,-2.900313689E0,7.841481056E0,-1.399870059E0,8.477044345E0
3.473917667E0,-3.422189672E0,1.017201983E1,-7.152327342E-1,1.075606468E1
3.483908667E0,-2.521747406E0,8.269135884E0,-1.084938000E0,8.712916200E0
3.493899667E0,-3.188888984E0,6.919310244E0,-1.596286511E0,7.784214657E0
3.503890667E0,-4.050565673E0,7.278393019E0,-1.880156113E0,8.539149502E0
3.513880667E0,-4.443302683E0,7.072684464E0,-1.629399732E0,8.510038058E0
3.523871667E0,-5.047217149E0,6.617759392E0,-5.488290167E-1,8.340884462E0
3.533862667E0,-5.865685837E0,5.691620075E0,1.212247965E0,8.262587642E0
3.543853667E0,-6.923724892E0,4.761368995E0,2.046774570E0,8.648577179E0
3.553844667E0,-6.123204231E0,3.514680052E0,2.563208258E0,7.511101284E0
3.563834667E0,-2.411727073E0,2.531547924E0,9.418773910E-1,3.621090358E0
3.573825667E0,2.153864570E0,2.777795810E0,-2.195949028E0,4.144571664E0
3.583816667E0,3.818028338E0,3.200524358E0,-5.026002281E0,7.076821001E0
3.593807667E0,1.953514696E0,4.396054841E0,-4.585293252E0,6.645783027E0
3.603797667E0,2.376781773E0,5.011229875E0,-3.335095395E0,6.471814101E0
3.613788667E0,1.628582583E0,4.638549984E0,-4.475652988E0,6.648300298E0
3.623779667E0,-3.312245938E-1,6.055877636E0,-2.600295392E0,6.598855946E0
3.633770667E0,-7.728247386E-1,5.071353285E0,-1.162342857E0,5.259935659E0
3.643761667E0,3.782286063E-1,1.184493279E0,6.625009355E-1,1.408896269E0
3.653751667E0,2.307891048E0,-3.366989325E0,2.703190016E0,4.895938568E0
3.663742667E0,4.680938497E0,-7.191890481E0,5.814840789E0,1.036565711E1
3.673733667E0,4.582027582E0,-7.276770417E0,7.458548657E0,1.138315916E1
3.683724667E0,3.078848478E0,-1.647644214E0,2.616998256E0,4.363796430E0
3.693714667E0,1.583713682E0,1.747446245E0,4.640502369E-1,2.403551544E0
3.703705667E0,-1.941058957E0,1.507144393E0,3.168045414E0,4.009452063E0
3.713696667E0,-3.839194674E0,-8.179143727E-2,5.265839864E0,6.517298141E0
3.723687667E0,-1.325492160E0,-3.817568747E0,5.258329700E0,6.631801553E0
3.733678667E0,2.996740707E0,-7.953796129E0,4.885986609E0,9.803886620E0
3.743668667E0,7.778828140E0,-1.122169795E1,5.419387162E0,1.469035158E1
3.753659667E0,1.132092871E1,-1.292230449E1,6.186181083E0,1.825974306E1
3.763650667E0,1.091520328E1,-1.234672329E1,6.666634514E0,1.777715541E1
3.773641667E0,7.836645409E0,-1.145077081E1,6.607670606E0,1.536861979E1
3.783632667E0,5.405650883E0,-1.059965478E1,7.278501778E0,1.394813002E1
3.793622667E0,4.464612275E0,-1.009904541E1,8.634344788E0,1.401696796E1
3.803613667E0,5.470672506E0,-1.113559419E1,9.190498027E0,1.544004436E1
3.813604667E0,7.484190452E0,-1.249664006E1,8.509811373E0,1.686997359E1
3.823595667E0,9.139964050E0,-1.404681528E1,7.171391312E0,1.822857141E1
3.833585667E0,9.274915448E0,-1.529596181E1,6.286688873E0,1.896082702E1
3.843576667E0,7.921438222E0,-1.533012826E1,5.820785653E0,1.821108348E1
3.853567667E0,6.142089568E0,-1.548358609E1,5.528573974E0,1.755083567E1
3.863558667E0,3.747883677E0,-1.524316028E1,5.221180000E0,1.654271102E1
3.873549667E0,1.892665646E0,-1.434245401E1,4.312510409E0,1.509589071E1
3.883539667E0,2.004871083E0,-1.309099900E1,3.450909149E0,1.368585171E1
3.893530667E0,1.186553545E0,-1.125487155E1,-2.470866689E-1,1.131994234E1
3.903521667E0,1.189837634E0,-8.009974422E0,-3.956434271E0,9.012700815E0
3.913512667E0,4.850990438E-1,-3.676367260E0,-4.889957453E0,6.136992847E0
3.923503667E0,-2.920245677E-1,-6.441058874E-1,-4.232978336E0,4.291649605E0
3.933493667E0,3.397056878E-2,2.570252398E0,-3.695260198E0,4.501366384E0
3.943484667E0,6.259798113E-1,5.387782377E0,-4.488826765E0,7.040569252E0
3.953475667E0,1.046560970E0,8.062205261E0,-6.991644979E0,1.072275818E1
3.963466667E0,-2.106564689E-1,1.191941462E1,-8.798908240E0,1.481680152E1
3.973456667E0,-1.739196408E0,1.628423130E1,-8.301388541E0,1.836066570E1
3.983447667E0,-8.610447510E-1,2.058493559E1,-3.688773297E0,2.093055231E1
3.993438667E0,4.247921772E-1,2.332487302E1,2.703258428E0,2.348484098E1
4.003429667E0,-4.488235027E-1,2.093374306E1,4.003578032E0,2.131787227E1
4.013420667E0,-1.691967863E0,1.530333748E1,3.146281493E0,1.571476951E1
4.023410667E0,-4.935260510E0,1.310714316E1,4.105630656E0,1.459486901E1
4.033401667E0,-8.005721158E0,1.239632289E1,4.447070628E0,1.541222987E1
4.043392667E0,-8.704869225E0,1.138469961E1,3.771462282E0,1.481924631E1
4.053383667E0,-8.077378786E0,9.813483771E0,2.078390319E0,1.287898358E1
4.063373667E0,-7.075687594E0,7.849219261E0,2.650114547E-1,1.057098997E1
4.073364667E0,-5.151919146E0,5.657102206E0,-1.245542303E0,7.752190135E0
4.083355667E0,-2.267731201E0,3.780658783E0,-2.547795874E0,5.091880738E0
4.093346667E0,-1.503786922E-2,2.835015492E0,-3.696460631E0,4.658471872E0
4.103337667E0,1.132658297E0,2.852046093E0,-3.965686905E0,5.014354830E0
4.113327667E0,1.317022176E0,4.040201483E0,-3.675434629E0,5.618415715E0
4.123318667E0,1.516878253E0,5.490967022E0,-4.201978737E0,7.078719078E0
4.133309667E0,2.004847402E0,7.214620362E0,-4.270249073E0,8.620045662E0
4.143300667E0,1.439700853E0,9.564586512E0,-3.875216446E0,1.041975797E1
4.153290667E0,-4.821286583E-1,1.158807513E1,-3.535039473E0,1.212486855E1
4.163281667E0,-1.283971666E0,1.255726516E1,-2.866416210E0,1.294410419E1
4.173272667E0,-1.796199452E0,1.289903725E1,-2.226967045E0,1.321252726E1
4.183263667E0,-2.409199029E0,1.276320877E1,-1.286751287E0,1.305218246E1
4.193254667E0,-3.204495495E0,1.242349256E1,-4.493401042E-1,1.283798525E1
4.203244667E0,-4.010123698E0,1.186722588E1,-1.886498880E-1,1.252787815E1
4.213235667E0,-4.707730147E0,1.108559582E1,-1.738975091E-1,1.204505700E1
4.223226667E0,-5.250448823E0,1.010241925E1,-5.077325924E-1,1.139666092E1
4.233218417E0,-5.469974349E0,8.897996911E0,-1.338435995E0,1.053026017E1
4.243208417E0,-5.149477349E0,7.968780203E0,-2.106561327E0,9.718856698E0
4.253199417E0,-4.585493226E0,7.579010071E0,-2.172097943E0,9.120644234E0
4.263190417E0,-4.186194471E0,7.645195874E0,-2.141375502E0,8.975451696E0
4.273181417E0,-4.085754216E0,7.821228640E0,-1.724590648E0,8.991063222E0
4.283172417E0,-4.055835183E0,7.906147753E0,-7.405668193E-1,8.916580653E0
4.293162417E0,-3.679489965E0,8.109346683E0,-2.858127782E-1,8.909648645E0
4.303153417E0,-2.469204033E0,8.277518452E0,-6.232430220E-1,8.660410623E0
4.313144417E0,2.068978786E-2,7.447608517E0,7.287143670E-1,7.483202878E0
4.323135417E0,3.561079755E0,3.023346123E0,2.398427289E0,5.251129808E0
4.333125417E0,6.067749238E0,-4.789557252E0,4.411554348E0,8.900519718E0
4.343116417E0,2.119038554E0,-1.305286814E1,8.576944426E0,1.576171522E1
4.353107417E0,7.855181667E0,-2.378693170E1,1.707560516E1,3.031663388E1
4.363098417E0,2.370339136E1,-6.049195789E1,1.788079014E1,6.738583224E1
4.373089417E0,2.173824509E1,-4.836298491E1,3.229882351E0,5.312213991E1
4.383079417E0,7.914885832E0,-1.123682821E0,-4.926528279E0,9.390354716E0
4.393070417E0,-5.290594636E0,1.168213461E0,-2.743662688E0,6.073121046E0
4.403061417E0,-6.207297717E0,-1.730435291E1,3.691605688E0,1.875097670E1
4.413052417E0,7.485552853E-1,-2.343012524E1,1.008467646E1,2.551924378E1
4.423043417E0,8.490745357E0,-1.936552801E1,7.337201976E0,2.238193389E1
4.433033417E0,1.107703784E1,-1.160401815E1,-2.375450362E0,1.621717512E1
4.443024417E0,1.016650825E1,-5.884660052E0,-2.896612986E0,1.209865615E1
4.453015417E0,7.722232940E0,-3.136496177E0,1.319096476E0,8.438631723E0
4.463006417E0,4.121038070E0,-2.116223119E0,1.545924296E0,4.883772824E0
4.472996417E0,5.717328528E-1,-1.613474840E-1,1.360053590E-1,6.094332803E-1
4.482987417E0,-8.164891139E-1,1.656917313E0,-2.044531285E0,2.755383391E0
4.492978417E0,-1.364877250E0,2.884768281E0,-3.878728284E0,5.022878760E0
4.502969417E0,-1.803467249E0,4.505459754E0,-4.476599652E0,6.602393972E0
4.512959417E0,-2.557179778E0,6.537971211E0,-3.345989635E0,7.776881291E0
4.522950417E0,-3.425376697E0,8.355992764E0,-9.355369627E-1,9.079154696E0
4.532941417E0,-4.329897105E0,9.912569518E0,9.493276209E-1,1.085855729E1
4.542932417E0,-5.275487770E0,1.063779617E1,2.317759978E0,1.209816060E1
4.552923417E0,-5.395137590E0,1.039030224E1,9.740864861E-1,1.174796726E1
4.562913417E0,-4.479133543E0,1.012591571E1,-1.617517897E0,1.118986909E1
4.572904417E0,-3.894602597E0,9.905880303E0,-2.158929136E0,1.086072599E1
4.582895417E0,-3.717445411E0,9.387135796E0,-1.766439463E0,1.024978181E1
4.592886417E0,-4.040363158E0,9.104504195E0,-1.205284224E0,1.003340626E1
4.602876417E0,-4.620244691E0,9.336674325E0,-1.703288365E0,1.055563071E1
4.612867417E0,-4.567166591E0,9.726621628E0,-2.978289525E0,1.115062274E1
4.622858417E0,-3.503199922E0,9.890941837E0,-3.719544854E0,1.113275141E1
4.632849417E0,-2.196153680E0,9.402591741E0,-2.460873505E0,9.964322398E0
4.642840417E0,-3.951527873E-1,8.048113471E0,1.745744705E-2,8.057827309E0
4.652830417E0,1.405220992E0,6.153628464E0,1.257321812E0,6.436042840E0
4.662821417E0,2.038637292E0,3.655346519E0,1.848588165E0,4.575464828E0
4.672812417E0,1.734611607E0,1.279341549E-1,1.918491044E0,2.589566075E0
4.682803417E0,1.232685153E0,-4.274505846E0,1.806771803E0,4.801597365E0
4.692793417E0,4.232211766E-1,-6.878577370E0,2.181085406E0,7.228490599E0
4.702784417E0,-6.430709302E-1,-5.397752464E0,2.438626311E0,5.957866243E0
4.712775417E0,-1.549327961E0,-3.983310413E0,3.648449436E0,5.619462809E0
4.722766417E0,-7.019061989E-1,-4.682788848E0,2.031028310E0,5.152306251E0
4.732757417E0,3.552245489E0,-5.728364562E0,-1.085494655E-1,6.741245550E0
4.742747417E0,7.280265298E0,-8.643705010E0,2.612753470E0,1.159924048E1
4.752738417E0,6.834094677E0,-1.222723778E1,9.209438328E0,1.676376891E1
4.762729417E0,6.729025474E0,-1.301509279E1,1.188552884E1,1.886632502E1
4.772720417E0,7.845857697E0,-1.234995330E1,9.025335234E0,1.719114614E1
4.782710417E0,9.763608191E0,-1.154555535E1,9.332786511E0,1.776875902E1
4.792701417E0,1.196237996E1,-1.205629326E1,1.127875625E1,2.038781705E1
4.802692417E0,1.387820614E1,-1.317922764E1,9.833529196E0,2.151731729E1
4.812683417E0,1.460592604E1,-1.408051161E1,7.062560595E0,2.148193764E1
4.822673417E0,1.362735708E1,-1.511710600E1,5.158270392E0,2.099617842E1
4.832664417E0,1.177528426E1,-1.598026028E1,4.027047002E0,2.025445990E1
4.842655417E0,9.220248660E0,-1.589134051E1,4.182765371E0,1.884259044E1
4.852646417E0,6.085803101E0,-1.499966234E1,4.177734427E0,1.671766535E1
4.862637417E0,3.927955700E0,-1.445959362E1,2.414956490E0,1.517697923E1
4.872627417E0,3.057708455E0,-1.275651254E1,8.819109786E-1,1.314746972E1
4.882618417E0,2.206076698E0,-9.680414007E0,1.989000571E-1,9.930596708E0
4.892609417E0,1.314350875E0,-6.409585651E0,-2.185374923E-1,6.546607143E0
4.902600417E0,1.422605349E0,-3.187920685E0,-5.866356513E-1,3.539884978E0
4.912590417E0,1.455289823E0,2.693905807E-1,-1.587469348E0,2.170368329E0
4.922581417E0,-2.714376909E-1,3.175944418E0,-2.556550618E0,4.086104799E0
4.932572417E0,-3.059067932E0,6.129903971E0,-2.250078165E0,7.210857859E0
4.942563417E0,-5.919218266E0,9.300905153E0,-1.843259744E0,1.117772732E1
4.952554417E0,-8.748869523E0,1.296564405E1,-1.404056958E0,1.570420388E1
4.962544417E0,-9.568169686E0,1.704686492E1,-7.193339713E-1,1.956177181E1
4.972535417E0,-7.887249552E0,2.069777750E1,3.044127712E-1,2.215173506E1
4.982526417E0,-4.939291581E0,2.171945681E1,1.758932515E0,2.234334910E1
4.992517417E0,-3.309687781E0,1.819712334E1,4.220284908E-1,1.850047132E1
5.002507417E0,-4.063622797E0,1.420540112E1,-5.216537896E-1,1.478440306E1
5.012498417E0,-4.065962268E0,1.268016077E1,5.617488782E-1,1.332794388E1
5.022489417E0,-2.688225237E0,1.105747656E1,4.121901119E-1,1.138702084E1
5.032480417E0,-7.119195557E-1,9.498207166E0,-2.063627415E0,9.745836389E0
5.042470417E0,3.039236516E-2,7.551442788E0,-3.337504156E0,8.256158057E0
5.052461417E0,-8.935463530E-1,5.671417944E0,-2.391015358E0,6.219353747E0
5.062452417E0,-1.139189929E0,3.372323155E0,-1.771008185E0,3.975775038E0
5.072443417E0,-1.484083267E0,1.330241561E0,-2.301383389E0,3.044406552E0
5.082433417E0,-2.374229464E0,7.423578215E-1,-3.570872964E0,4.351918474E0
5.092424417E0,-3.063862064E0,1.747250948E0,-4.299492753E0,5.561094726E0
5.102415417E0,-3.482558666E0,3.876292334E0,-3.996225743E0,6.566862059E0
5.112406417E0,-4.065284284E0,6.697822977E0,-2.653538969E0,8.272160419E0
5.122397417E0,-4.592377153E0,9.548007317E0,-1.013521863E0,1.064338284E1
5.132387417E0,-4.847606070E0,1.179842988E1,1.364110096E-1,1.275620791E1
5.142378417E0,-4.703508165E0,1.306483037E1,1.770501816E-1,1.388683292E1
5.152369417E0,-4.555039173E0,1.360685908E1,-1.973354883E-1,1.435039850E1
5.162360417E0,-4.201232632E0,1.379928627E1,-8.707289095E-1,1.445091090E1
5.172350417E0,-3.793579668E0,1.331370074E1,-1.570825395E0,1.393245730E1
5.182341417E0,-3.468118382E0,1.226126975E1,-1.889781361E0,1.288168679E1
5.192332417E0,-3.277762861E0,1.103097698E1,-2.014420902E0,1.168263986E1
5.202323417E0,-3.028776139E0,9.713333831E0,-2.018352278E0,1.037285327E1
5.212313417E0,-2.740739665E0,8.517263065E0,-2.095575724E0,9.189497355E0
5.222304417E0,-2.638917421E0,7.454615235E0,-2.334761635E0,8.245379637E0
5.232294917E0,-3.081764485E0,6.833444467E0,-2.207220852E0,7.814413574E0
5.242285917E0,-3.007449590E0,6.513670183E0,-2.293871910E0,7.532230787E0
5.252276917E0,-3.540632919E0,6.796659633E0,-2.408498533E0,8.033151861E0
5.262266917E0,-3.783251731E0,7.938003969E0,-1.462564782E0,8.914258040E0
5.272257917E0,-2.979175378E0,9.446299678E0,-9.232782751E-2,9.905381768E0
5.282248917E0,-1.601470799E0,1.002291817E1,1.392685585E0,1.024515351E1
5.292239917E0,1.215254019E0,8.003161247E0,2.553338742E0,8.488048716E0
5.302229917E0,2.536696689E0,1.999885747E0,1.149333971E0,3.428606375E0
5.312220917E0,-3.107157773E-1,-6.439422238E0,2.546693382E0,6.931691730E0
5.322211917E0,-1.354891083E0,-1.543526704E1,1.279280621E1,2.009325979E1
5.332202917E0,1.177019017E1,-3.885223839E1,2.398816011E1,4.715363856E1
5.342192917E0,3.120708812E1,-6.717200416E1,1.358184586E1,7.530223787E1
5.352183917E0,2.115234940E1,-7.969800543E0,-4.160423745E0,2.298366228E1
5.362174917E0,6.391970329E0,2.360393723E1,-5.438934404E0,2.505164955E1
5.372165917E0,-9.846366173E-1,9.605255066E0,2.945544240E0,1.009488311E1
5.382155917E0,2.426155370E0,-1.222090291E1,8.628223922E0,1.515529432E1
5.392146917E0,8.219708785E0,-3.088821372E1,9.993228350E0,3.348895299E1
5.402137917E0,1.043180695E1,-3.895252749E1,4.394679576E0,4.056396433E1
5.412128917E0,3.462338409E0,-1.715894552E1,-1.612470288E0,1.757888674E1
5.422119917E0,5.568420410E-1,-7.942423879E0,-2.285698818E0,8.283513096E0
5.432109917E0,2.830539449E0,-5.453058354E0,-1.177916915E0,6.255820269E0
5.442100917E0,3.829065835E0,-1.844911729E0,1.528189399E0,4.516725284E0
5.452091917E0,3.595437994E0,-4.580650270E-2,2.245508858E0,4.239290346E0
5.462082917E0,3.260624964E0,2.646800637E-2,4.835354984E-2,3.261090888E0
5.472072917E0,1.742435181E0,1.267302716E0,-1.010177255E0,2.379620689E0
5.482063917E0,-1.397412620E0,3.217951984E0,-2.960188007E-1,3.520739146E0
5.492054917E0,-2.867203245E0,4.783425277E0,1.578730685E-1,5.579151883E0
5.502045917E0,-3.051843697E0,5.174829707E0,-7.704889221E-1,6.056918823E0
5.512035917E0,-2.712638824E0,5.878003582E0,-1.991457717E0,6.773126260E0
5.522026917E0,-2.278810798E0,6.572977322E0,-2.429786052E0,7.368912388E0
5.532017917E0,-2.470528428E0,6.704916819E0,-2.944923266E0,7.728647573E0
5.542008917E0,-3.334149900E0,6.450032011E0,-3.869960384E0,8.227761657E0
5.551998917E0,-3.948445805E0,6.583578324E0,-4.181337481E0,8.741699546E0
5.561989917E0,-4.078028583E0,6.828435157E0,-3.890899263E0,8.854204701E0
5.571980917E0,-3.452836976E0,7.013787800E0,-3.910780966E0,8.741253357E0
5.581971917E0,-3.071524256E0,7.132655262E0,-4.245639896E0,8.850677402E0
5.591962917E0,-2.961477903E0,7.602602416E0,-4.265450555E0,9.206735758E0
5.601952917E0,-2.544169139E0,8.480395786E0,-3.711931195E0,9.600434494E0
5.611943917E0,-1.464195132E0,9.140064622E0,-3.293422289E0,9.825033285E0
5.621934917E0,-2.006118002E0,9.904012703E0,-2.545269292E0,1.042076642E1
5.631925917E0,-2.295686155E0,1.042809513E1,-9.354369754E-1,1.071869327E1
5.641915917E0,-2.438293020E0,1.021769711E1,-2.645335910E-1,1.050792963E1
5.651906917E0,-2.258421265E0,9.427844696E0,-1.187341458E-1,9.695298862E0
5.661897917E0,-2.156679420E0,8.640781987E0,2.907639080E-1,8.910607337E0
5.671888917E0,-3.091911158E0,7.421113029E0,1.028147503E0,8.104931861E0
5.681878917E0,-4.036735838E0,4.892477603E0,2.766005192E0,6.919707945E0
5.691869917E0,-3.023285311E0,7.986787874E-1,5.124782803E0,6.003460723E0
5.701860917E0,-2.738046438E-1,-4.354428513E0,7.402806566E0,8.592878546E0
5.711851917E0,2.149810111E0,-8.240373430E0,7.951135646E0,1.165100836E1
5.721841917E0,3.807651869E0,-8.703996820E0,6.139187011E0,1.131138323E1
5.731832917E0,4.763236595E0,-7.987028194E0,3.453311770E0,9.920000223E0
5.741823917E0,6.478027310E0,-8.853156368E0,6.670211256E-1,1.099036545E1
5.751814917E0,7.149413967E0,-1.000928714E1,-1.450781912E-1,1.230125997E1
5.761804917E0,6.531980739E0,-9.812357597E0,9.420981234E-1,1.182525614E1
5.771795917E0,7.169298593E0,-9.222337285E0,4.438670811E0,1.249608522E1
5.781786917E0,8.781487046E0,-9.866420953E0,8.480544890E0,1.569650976E1
5.791777917E0,1.001865906E1,-1.172386736E1,1.128602434E1,1.911012665E1
5.801768917E0,1.005209578E1,-1.270513189E1,1.225480974E1,2.031367440E1
5.811758917E0,1.018174492E1,-1.322287243E1,1.034442616E1,1.963464890E1
5.821749917E0,1.096511979E1,-1.468672053E1,7.553968785E0,1.982412813E1
5.831740917E0,1.043720510E1,-1.501782379E1,5.875736032E0,1.920923100E1
5.841731917E0,9.147311661E0,-1.426088301E1,5.305033751E0,1.775357649E1
5.851721917E0,7.473092437E0,-1.326612896E1,5.779518344E0,1.628619417E1
5.861712917E0,5.446877847E0,-1.253717880E1,6.626823746E0,1.519092241E1
5.871703917E0,3.569014719E0,-1.297855237E1,5.795502293E0,1.465498326E1
5.881694917E0,1.974854987E0,-1.297762032E1,4.144588608E0,1.376576537E1
5.891684917E0,5.876714855E-2,-1.148293284E1,2.962493857E0,1.185907121E1
5.901675917E0,-1.010138956E0,-9.933037112E0,1.960535448E0,1.017493519E1
5.911666917E0,-1.703733923E0,-7.893040634E0,8.590460265E-1,8.120391605E0
5.921657917E0,-2.187022084E0,-5.739525728E0,-3.912724288E-1,6.154536155E0
5.931647917E0,-1.070788031E0,-3.109026543E0,-1.773572774E0,3.736066573E0
5.941638917E0,4.018478492E-1,-1.261443222E-1,-3.029868107E0,3.059002260E0
5.951629917E0,1.245946054E0,3.064272539E0,-4.259716483E0,5.393267310E0
5.961620917E0,1.604163149E-1,5.331549119E0,-5.209993107E0,7.456217378E0
5.971610917E0,-2.427684417E0,7.155045421E0,-6.184475450E0,9.764018803E0
5.981601917E0,-4.185207168E0,9.820813841E0,-6.359345205E0,1.242600559E1
5.991592917E0,-4.938201660E0,1.238381452E1,-3.916999480E0,1.389559580E1
6.001583917E0,-4.176158310E0,1.455888168E1,-1.199616079E0,1.519343321E1
6.011573917E0,-2.555794865E0,1.765742417E1,1.544193959E0,1.790813364E1
6.021564917E0,-3.131815774E0,2.024795354E1,5.306200855E0,2.116467954E1
6.031555917E0,-4.224203127E0,2.087132052E1,8.290505703E0,2.285144191E1
6.041546917E0,-3.834274534E0,1.896113223E1,6.214529554E0,2.031862629E1
6.051536917E0,-2.128512505E0,1.624243891E1,4.188486287E0,1.690830579E1
6.061527917E0,-5.833530244E-1,1.378078100E1,1.681330462E0,1.389521852E1
6.071518917E0,7.136544245E-1,1.111870744E1,-1.371779011E0,1.122571759E1
6.081509917E0,6.122955725E-1,7.521667596E0,-5.412341852E0,9.286755818E0
6.091500917E0,-5.054821452E-1,4.224758320E0,-8.513209190E0,9.517290884E0
6.101490917E0,-1.858350384E0,2.267484741E0,-7.756863660E0,8.292399353E0
6.111481917E0,-3.064664010E0,8.192130393E-1,-5.967251973E0,6.758059752E0
6.121472917E0,-3.559674084E0,1.096051219E0,-4.599405799E0,5.918373219E0
6.131463917E0,-3.697223985E0,2.959713213E0,-3.231131024E0,5.733199386E0
6.141453917E0,-3.767642881E0,5.131804724E0,-1.326331966E0,6.503053828E0
6.151444917E0,-4.256833806E0,7.313123726E0,-1.401472342E-1,8.462981386E0
6.161435917E0,-4.818116807E0,9.235347340E0,3.517725867E-1,1.042255410E1
6.171426917E0,-5.301146522E0,1.065592955E1,2.936600339E-1,1.190534440E1
6.181416917E0,-5.579159406E0,1.140959355E1,5.005093807E-1,1.271048206E1
6.191407917E0,-6.180786442E0,1.170288521E1,5.650914390E-1,1.324684761E1
6.201398917E0,-6.695542563E0,1.164492410E1,3.307793283E-1,1.343666486E1
6.211389917E0,-6.293458194E0,1.097700367E1,-6.521652509E-1,1.266994653E1
6.221379917E0,-5.373440911E0,1.037594849E1,-1.925149122E0,1.184231285E1
6.231371792E0,-4.828011466E0,9.788500957E0,-2.869664923E0,1.128536320E1
6.241362792E0,-4.608583881E0,9.047298546E0,-3.503389664E0,1.074087499E1
6.251353792E0,-4.440978414E0,8.370248861E0,-3.807458911E0,1.021176276E1
6.261343792E0,-4.208261570E0,7.902209069E0,-3.945340934E0,9.783664380E0
6.271334792E0,-4.007690087E0,7.621607037E0,-4.108217465E0,9.540855538E0
6.281325792E0,-3.475231227E0,7.805577398E0,-3.947292734E0,9.411981222E0
6.291316792E0,-3.062088019E0,8.875178152E0,-2.521491297E0,9.721269908E0
6.301306792E0,-1.309365832E0,1.054279178E1,-1.273465828E0,1.069984171E1
6.311297792E0,-3.493418992E-2,1.295026822E1,5.536713883E-2,1.295043369E1
6.321288792E0,2.086201760E0,1.386621233E1,2.288057439E0,1.420771934E1
6.331279792E0,5.687400139E0,1.079361628E1,7.214686435E0,1.417393287E1
6.341269792E0,8.645439295E0,2.117799529E0,9.812747022E0,1.324834705E1
6.351260792E0,6.924407262E0,-7.185280203E0,1.122517003E1,1.501932454E1
6.361251792E0,1.006597941E1,-2.097621957E1,1.156252514E1,2.598110306E1
6.371242792E0,2.998032357E1,-6.005352898E1,7.376101162E0,6.752520280E1
6.381232792E0,3.258911730E1,-4.975858430E1,4.769527907E0,5.967173263E1
6.391223792E0,1.521082868E1,7.785515601E0,1.233446753E0,1.713198626E1
6.401214792E0,-3.433650507E0,1.184890539E1,-1.438542812E0,1.241998068E1
6.411205792E0,-1.362728106E0,-1.162235151E1,5.308818069E0,1.284988839E1
6.421195792E0,5.575285041E-1,-2.574401349E1,8.378212768E0,2.707876507E1
6.431186792E0,-4.220627262E0,-2.953214852E1,5.905697165E0,3.041116160E1
6.441177792E0,-4.420438900E0,-1.895661350E1,4.981454684E0,2.009249527E1
6.451168792E0,2.960364009E0,-9.424448048E0,3.059606753E0,1.034142976E1
6.461158792E0,9.891697297E0,-6.319825628E0,1.982513377E0,1.190446264E1
6.471149792E0,1.351318318E1,-4.433306867E0,3.259215493E0,1.459050427E1
6.481140792E0,1.252324840E1,-2.732449483E0,2.021912209E0,1.297636927E1
6.491131792E0,8.223609463E0,-1.835018824E0,-6.041951323E-1,8.447490660E0
6.501121792E0,3.580787503E0,-1.142702644E0,-1.491729086E0,4.043892202E0
6.511112792E0,7.867639160E-1,2.966526389E-1,-1.532128376E0,1.747689219E0
6.521103792E0,-5.376994264E-1,1.573692724E0,-1.161616048E0,2.028541669E0
6.531094792E0,-1.848056069E0,2.657134421E0,-3.818942258E-1,3.259067009E0
6.541084792E0,-2.974726524E0,3.740257446E0,3.517392576E-3,4.778968093E0
6.551075792E0,-3.158120350E0,4.917897204E0,-1.772258905E-1,5.847293910E0
6.561066792E0,-2.714665176E0,5.850060908E0,-3.508186135E-1,6.458768717E0
6.571057792E0,-2.310431371E0,6.226887644E0,-1.348477565E-1,6.643072088E0
6.581047792E0,-2.622535862E0,5.955506086E0,3.473626167E-1,6.516625498E0
6.591038792E0,-3.084193710E0,5.534400140E0,3.375544971E-1,6.344744186E0
6.601029792E0,-3.111014889E0,5.298760858E0,-4.227475521E-1,6.159058025E0
6.611020792E0,-2.592309850E0,5.436211356E0,-1.425220224E0,6.188999673E0
6.621010792E0,-2.159001057E0,5.745783418E0,-2.454185460E0,6.610471914E0
6.631001792E0,-1.654028204E0,5.943586537E0,-3.173108518E0,6.937625523E0
6.640992792E0,-1.066287721E0,6.086163874E0,-3.501491657E0,7.102028164E0
6.650983792E0,-6.876123878E-1,6.320927829E0,-3.054708541E0,7.053948092E0
6.660973792E0,-9.200313163E-1,6.665945127E0,-1.798796200E0,6.965410959E0
6.670964792E0,-1.625975895E0,7.178169404E0,-4.867301247E-1,7.376097872E0
6.680955792E0,-2.651390994E0,7.774360868E0,1.528570345E-1,8.215468725E0
6.690946792E0,-3.722812863E0,8.257948991E0,-2.512104177E-1,9.061796942E0
6.700936792E0,-4.573766928E0,8.993227004E0,-1.054930382E0,1.014447406E1
6.710927792E0,-5.086060202E0,9.969643021E0,-1.023104280E0,1.123870690E1
6.720918792E0,-4.675623085E0,9.842922163E0,-8.300280493E-1,1.092856416E1
6.730909792E0,-2.878718167E0,8.499474666E0,-4.952448401E-1,8.987399809E0
6.740899792E0,-9.885846573E-1,6.467062612E0,-6.343041998E-1,6.572863932E0
6.750890792E0,-2.360901028E-1,4.301319423E0,-1.454078572E0,4.546584631E0
6.760881792E0,-1.019784815E0,1.801966853E0,-2.064893922E0,2.924180657E0
6.770872792E0,-2.284493122E0,-6.487029684E-1,-1.339469637E0,2.726518526E0
6.780862792E0,-3.082616424E0,-3.119040484E0,1.390385436E0,4.600446633E0
6.790853792E0,-3.154528990E0,-5.236209683E0,3.256187220E0,6.926160568E0
6.800844792E0,-2.469652807E0,-4.307160206E0,4.140239156E0,6.464703729E0
6.810835792E0,-1.866159925E0,-3.390850643E0,4.864371791E0,6.216311919E0
6.820825792E0,-1.938925016E-1,-4.507398691E0,5.066545705E0,6.784108095E0
6.830816792E0,3.069401132E0,-6.018033872E0,5.084082089E0,8.454930259E0
6.840807792E0,6.915605448E0,-7.141474618E0,4.884286823E0,1.107621398E1
6.850798792E0,9.974537140E0,-8.370700850E0,5.465428138E0,1.412200158E1
6.860788792E0,1.188124517E1,-1.071858364E1,6.244628681E0,1.717694412E1
6.870779792E0,1.210342299E1,-1.310071357E1,5.721075423E0,1.873105037E1
6.880770792E0,1.165896209E1,-1.305085202E1,6.649850081E0,1.872102138E1
6.890761792E0,1.129185752E1,-1.221574332E1,8.831276672E0,1.883406167E1
6.900751792E0,1.086760578E1,-1.211133193E1,9.965402620E0,1.908136436E1
6.910742792E0,1.121874628E1,-1.230085306E1,9.038483868E0,1.894374421E1
6.920733792E0,1.174071786E1,-1.242287743E1,7.682136828E0,1.873999909E1
6.930724792E0,1.124158082E1,-1.242539875E1,6.461757433E0,1.795878567E1
6.940714792E0,9.653120958E0,-1.247212853E1,5.338092738E0,1.665028433E1
6.950705792E0,7.548575313E0,-1.223823756E1,5.279334068E0,1.531753296E1
6.960696792E0,5.550514482E0,-1.233859566E1,5.797579808E0,1.471941186E1
6.970687792E0,4.302231588E0,-1.298944690E1,5.794384890E0,1.485967105E1
6.980677792E0,3.541888316E0,-1.161946064E1,5.051206119E0,1.315566501E1
6.990668792E0,2.896874356E0,-7.782369214E0,4.212524191E0,9.311418350E0
7.000659792E0,2.793090371E0,-4.683881108E0,3.026512975E0,6.236976579E0
7.010650792E0,2.969828897E0,-2.450568665E0,5.500358820E-1,3.889435682E0
7.020640792E0,2.707566364E0,-1.100529016E0,-2.947532879E0,4.150907106E0
7.030631792E0,1.770762310E0,1.427375507E-1,-4.758939769E0,5.079712678E0
7.040622792E0,-8.282513729E-1,2.517305861E0,-3.798514718E0,4.631581068E0
7.050613792E0,-3.156919332E0,4.674084098E0,-2.450516624E0,6.149653125E0
7.060603792E0,-4.839959958E0,7.144698772E0,-2.022768387E0,8.863606766E0
7.070594792E0,-6.414933515E0,9.505769954E0,-2.310956597E0,1.169835693E1
7.080585792E0,-6.839751858E0,1.162929800E1,-3.537089506E0,1.394753669E1
7.090576792E0,-6.452642208E0,1.380772965E1,-5.158998370E0,1.609053304E1
7.100566792E0,-5.124872850E0,1.602114869E1,-6.137421151E0,1.790557080E1
7.110557792E0,-4.061427168E0,1.737987555E1,-5.571734612E0,1.869757983E1
7.120548792E0,-2.413888204E0,1.698737301E1,-3.680184907E0,1.754826086E1
7.130539792E0,-9.367891440E-1,1.515764475E1,-1.184346660E0,1.523267689E1
7.140529792E0,-6.539040667E-1,1.315668662E1,1.025286899E0,1.321276681E1
7.150520792E0,-1.213147267E0,1.103155352E1,5.151629417E-1,1.111000865E1
7.160511792E0,-2.792228200E0,9.475690123E0,-5.095941997E-1,9.891659510E0
7.170502792E0,-4.689262301E0,8.014801884E0,-2.463981593E-1,9.289076499E0
7.180492792E0,-6.304702390E0,6.243836968E0,-7.537343104E-1,8.905216882E0
7.190483792E0,-7.927501785E0,4.451931419E0,-1.317659084E0,9.187012755E0
7.200474792E0,-8.805293984E0,3.284873952E0,1.064753120E-1,9.398666715E0
7.210465792E0,-8.854663196E0,3.436084703E0,2.927923071E-1,9.502497868E0
7.220455792E0,-7.694023633E0,4.572796875E0,-4.046855029E-1,8.959477735E0
7.230446792E0,-5.960259288E0,5.944819715E0,-1.189668649E0,8.501816495E0
7.240437333E0,-4.566813127E0,7.422034550E0,-1.663058059E0,8.871760879E0
7.250428333E0,-3.530933265E0,8.857899045E0,-2.025330199E0,9.748426931E0
7.260418333E0,-2.743864709E0,9.973916166E0,-2.530582841E0,1.064949045E1
7.270409333E0,-2.367879387E0,1.073678368E1,-2.851078671E0,1.135843414E1
7.280400333E0,-2.393313021E0,1.122141963E1,-2.897736236E0,1.183406443E1
7.290391333E0,-2.590172108E0,1.130790228E1,-2.621658779E0,1.189330654E1
7.300381333E0,-2.866279385E0,1.117758656E1,-2.595745089E0,1.182759026E1
7.310372333E0,-3.763973460E0,1.071792056E1,-2.499684399E0,1.163141176E1
7.320363333E0,-4.580760782E0,9.683190265E0,-2.366705851E0,1.097036187E1
7.330354333E0,-4.783586952E0,8.392488161E0,-2.322899973E0,9.935412721E0
7.340344333E0,-4.823715809E0,7.348642638E0,-2.690770530E0,9.192988027E0
7.350335333E0,-4.496534272E0,6.813906580E0,-2.674259162E0,8.590681312E0
7.360326333E0,-3.867030052E0,6.465823587E0,-2.709846486E0,8.006501361E0
7.370317333E0,-3.368400843E0,6.369451532E0,-3.022967515E0,7.813729562E0
7.380307333E0,-3.201916288E0,6.880129221E0,-3.451893820E0,8.336906918E0
7.390298333E0,-2.965230061E0,8.439858794E0,-3.042452192E0,9.448826441E0
7.400289333E0,-2.482287471E0,1.059657213E1,-2.680858622E0,1.120875082E1
7.410279333E0,-9.109041050E-1,1.221279282E1,6.661697710E-1,1.226482111E1
7.420270333E0,2.195749345E0,1.000461522E1,4.291455170E0,1.110541437E1
7.430261333E0,4.306071455E0,3.166427490E0,5.140194894E0,7.415532211E0
7.440252333E0,2.414643956E0,-4.901204572E0,6.106170707E0,8.193755696E0
7.450242333E0,1.480028515E0,-1.553131457E1,7.982390183E0,1.752514679E1
7.460233333E0,1.161755796E1,-3.900402041E1,1.811423204E1,4.454667960E1
7.470224333E0,2.717994932E1,-7.061363787E1,2.207039266E1,7.881711572E1
7.480215333E0,2.238720650E1,-3.678809875E1,1.029331564E0,4.307680058E1
7.490205333E0,9.355430439E0,4.746777268E0,-1.259269227E0,1.056606512E1
7.500196333E0,-2.034147508E0,1.152697640E1,1.567148520E0,1.180952563E1
7.510187333E0,4.489889789E-1,-2.266509426E0,5.949101046E0,6.382041941E0
7.520178333E0,9.455454664E0,-1.857136268E1,6.452885453E0,2.181606897E1
7.530168333E0,1.412088547E1,-2.631764171E1,2.417829520E0,2.996437170E1
7.540159333E0,1.354787237E1,-1.829590035E1,-6.123555064E-1,2.277410360E1
7.550150333E0,9.110954844E0,-1.007759782E1,-2.799307131E0,1.387096235E1
7.560141333E0,6.118029445E0,-7.277253982E0,-3.648645610E0,1.018338473E1
7.570131333E0,3.098726673E0,-6.129598746E0,-3.713757280E0,7.808077927E0
7.580122333E0,3.918283528E-1,-5.132257299E0,-2.366198313E0,5.665023292E0
7.590113333E0,-1.694297978E0,-3.961864581E0,4.106514171E-1,4.328469843E0
7.600104333E0,-2.695224938E0,-2.214702510E0,2.510880648E0,4.298100313E0
7.610094333E0,-2.213649427E0,-1.121276107E0,2.527020717E0,3.541657465E0
7.620085333E0,2.119147897E-1,-3.802286464E-1,1.474385659E0,1.537301133E0
7.630076333E0,2.363964969E0,1.596645384E0,2.152576429E0,3.573680475E0
7.640067333E0,2.966739812E0,4.147390886E0,2.839769279E0,5.836667357E0
7.650057333E0,1.401849487E0,6.846840438E0,3.280738217E0,7.720599019E0
7.660048333E0,-1.225404493E0,8.925004030E0,3.338305809E0,9.607372106E0
7.670039333E0,-3.540693145E0,1.000592032E1,1.643847471E0,1.074044617E1
7.680030333E0,-4.159977018E0,9.703466070E0,-5.525554472E-1,1.057203765E1
7.690020333E0,-4.298952470E0,9.405769118E0,-2.100462242E0,1.055279236E1
7.700011333E0,-4.690945422E0,9.474101434E0,-2.775956275E0,1.093021044E1
7.710002333E0,-5.060697320E0,9.326136473E0,-3.173508468E0,1.107513588E1
7.719992333E0,-4.860040759E0,9.099123588E0,-3.407612856E0,1.086397126E1
7.729983333E0,-4.400171866E0,9.120018613E0,-3.181431445E0,1.061403590E1
7.739974333E0,-4.413837978E0,8.883147322E0,-2.600993550E0,1.025463015E1
7.749965333E0,-3.925742821E0,8.417218375E0,-2.400793364E0,9.592957346E0
7.759955333E0,-3.061761745E0,7.947604512E0,-1.621373844E0,8.669928235E0
7.769946333E0,-2.316143808E0,7.204954330E0,-6.854226056E-1,7.599058704E0
7.779937333E0,-1.679332322E0,6.524529632E0,-8.386658487E-1,6.789182894E0
7.789928333E0,-1.761360279E0,5.717557738E0,-8.207388702E-1,6.038747289E0
7.799918333E0,-1.947913941E0,4.992321149E0,-2.476763606E-1,5.364604622E0
7.809909333E0,-1.883040252E0,4.796392647E0,-1.029337996E0,5.254594154E0
7.819900333E0,-1.116854442E0,5.031125611E0,-3.092085113E0,6.010039859E0
7.829891333E0,-6.021661484E-1,5.495944757E0,-3.942952931E0,6.790794553E0
7.839881333E0,-1.907883902E0,5.460904148E0,-2.331127298E0,6.236637682E0
7.849872333E0,-2.596769521E0,4.697751288E0,5.264961612E-1,5.393447629E0
7.859863333E0,-2.045089987E0,4.255421703E0,2.001461280E0,5.128045844E0
7.869854333E0,-1.941782550E0,3.394848384E0,1.995795912E0,4.390753506E0
7.879844333E0,-2.117689016E0,2.140434101E0,2.165864811E0,3.709047760E0
7.889835333E0,-1.532562239E0,-2.196313602E-1,3.918629099E0,4.213388062E0
7.899826333E0,-7.414427322E-1,-3.356598238E0,4.712544452E0,5.833057883E0
7.909817333E0,1.586408079E-1,-4.556663822E0,2.593899708E0,5.245633211E0
7.919807333E0,1.265060309E0,-4.745490296E0,5.398459393E-1,4.940798455E0
7.929798333E0,1.604249688E0,-5.750510307E0,1.222733485E0,6.094018627E0
7.939789333E0,2.097279895E0,-5.684252583E0,3.180421046E0,6.842834823E0
7.949780333E0,5.188074235E0,-4.796048246E0,5.717846006E0,9.089111947E0
7.959770333E0,9.526766136E0,-7.234335419E0,8.172471469E0,1.448737975E1
7.969761333E0,1.302594288E1,-1.123360288E1,7.596316659E0,1.880353819E1
7.979752333E0,1.407865220E1,-1.252656026E1,6.756609714E0,2.001936399E1
7.989742333E0,1.145591402E1,-1.146564613E1,8.214600658E0,1.817081922E1
7.999733333E0,8.585172043E0,-1.047656972E1,9.492844099E0,1.654018686E1
8.009724333E0,8.068154218E0,-1.031646009E1,1.097363334E1,1.708640073E1
8.019715333E0,9.492480403E0,-1.089043214E1,1.106735953E1,1.819876763E1
8.029705333E0,1.139897150E1,-1.236308848E1,9.622251168E0,1.937447356E1
8.039696333E0,1.187057985E1,-1.355632744E1,8.819875771E0,2.006177679E1
8.049687333E0,1.109642253E1,-1.457858797E1,8.192126300E0,2.006929878E1
8.059678333E0,9.500319765E0,-1.532477338E1,6.809196063E0,1.927355457E1
8.069668333E0,7.754421862E0,-1.548835508E1,5.467278197E0,1.816346147E1
8.079659333E0,7.116400003E0,-1.488285251E1,4.499119034E0,1.709925495E1
8.089650333E0,6.274700326E0,-1.318017840E1,2.745689625E0,1.485354430E1
8.099641333E0,4.159187059E0,-1.087347755E1,1.118861207E0,1.169543507E1
8.109631333E0,2.584987382E0,-8.498657225E0,-4.046799481E-1,8.892305677E0
8.119622333E0,8.274079120E-1,-5.466868308E0,-1.359242289E0,5.693750306E0
8.129613333E0,-1.757178935E0,-2.875427939E0,-1.829334161E0,3.834348330E0
8.139604333E0,-2.747430926E0,1.357799488E-1,-2.722234397E0,3.870061111E0
8.149594333E0,-3.480681709E0,3.291234553E0,-3.543168272E0,5.958306089E0
8.159585333E0,-4.183524047E0,5.797344750E0,-4.061390915E0,8.222285313E0
8.169576333E0,-5.070001994E0,8.614937879E0,-3.868482792E0,1.071854626E1
8.179567333E0,-5.741534246E0,1.195926807E1,-3.326475137E0,1.367679587E1
8.189557333E0,-6.332930408E0,1.539388045E1,-2.761717136E0,1.687319307E1
8.199548333E0,-6.785815387E0,1.840450420E1,-2.279300941E0,1.974761449E1
8.209539333E0,-6.187571551E0,1.938585410E1,-1.372993040E0,2.039564882E1
8.219529333E0,-4.180310710E0,1.747648559E1,-6.542217167E-1,1.798139461E1
8.229520333E0,-2.267445273E0,1.389185471E1,-5.179510403E-1,1.408521241E1
8.239511458E0,-1.005575497E0,1.093155093E1,-1.021669373E0,1.102514381E1
8.249502458E0,-9.106877580E-1,8.868812873E0,-1.786339731E0,9.092645578E0
8.259492458E0,-2.250579856E0,7.733005850E0,-2.341140947E0,8.387218258E0
8.269483458E0,-3.738630166E0,7.711761746E0,-2.260929866E0,8.863432101E0
8.279474458E0,-5.313625064E0,8.191526960E0,-1.635599388E0,9.900045991E0
8.289465458E0,-6.586618291E0,8.654084988E0,-8.971628559E-1,1.091245292E1
8.299455458E0,-6.696076414E0,9.221115217E0,-6.801623042E-1,1.141617388E1
8.309446458E0,-6.032875274E0,9.647274912E0,-1.011853213E0,1.142319326E1
8.319437458E0,-5.227044173E0,9.086021147E0,-1.217075280E0,1.055267944E1
8.329428458E0,-4.510012104E0,8.138639479E0,-1.321259799E0,9.398052416E0
8.339418458E0,-4.192005434E0,7.369456387E0,-1.327597450E0,8.581626418E0
8.349409458E0,-4.148388129E0,6.723933134E0,-1.655482407E0,8.072237785E0
8.359400458E0,-3.921478739E0,6.402095368E0,-2.117236003E0,7.800481325E0
8.369391458E0,-3.740539282E0,6.588039165E0,-2.087536680E0,7.858225216E0
8.379381458E0,-3.492867599E0,7.467855670E0,-1.963824214E0,8.474998403E0
8.389372458E0,-2.607699137E0,9.182242928E0,-2.549719316E0,9.880017640E0
8.399363458E0,-2.112190880E0,1.038510874E1,-3.071469000E0,1.103384592E1
8.409353458E0,-2.958587917E0,1.060552772E1,-3.391846131E0,1.152107117E1
8.419344458E0,-3.879201616E0,1.040021093E1,-3.233682164E0,1.156154371E1
8.429335458E0,-4.628100133E0,9.773574770E0,-2.820764658E0,1.117581263E1
8.439326458E0,-5.259427807E0,8.949840664E0,-2.209757228E0,1.061339982E1
8.449316458E0,-5.562741594E0,8.101129006E0,-1.583787649E0,9.953932315E0
8.459307458E0,-5.580206058E0,7.184490829E0,-1.154038348E0,9.169918900E0
8.469298458E0,-5.688377209E0,6.351300021E0,-1.035747422E0,8.588912617E0
8.479289458E0,-6.067656852E0,5.978342387E0,-9.976881874E-1,8.576270698E0
8.489279458E0,-6.144479910E0,5.928877866E0,-6.695097005E-1,8.564722375E0
8.499270458E0,-5.798184410E0,6.057363998E0,1.498112199E-1,8.386479861E0
8.509261458E0,-4.640888578E0,6.930330491E0,8.398917174E-1,8.382884086E0
8.519251458E0,-8.662021413E-1,8.231616640E0,8.439625490E-1,8.319981457E0
8.529242458E0,4.726346512E0,7.662695421E0,-1.661723725E0,9.155139442E0
8.539233458E0,7.587184478E0,2.633105289E0,-7.713068014E0,1.113508105E1
8.549224458E0,7.957586879E0,-6.370834399E0,-8.885866277E0,1.352291904E1
8.559214458E0,6.975095605E0,-1.604438085E1,5.690354737E0,1.839712621E1
8.569205458E0,1.342643739E1,-2.716141598E1,2.175690004E1,3.730113187E1
8.579196458E0,3.590583577E1,-5.962867497E1,2.902617258E1,7.541436611E1
8.589187458E0,3.518239253E1,-3.738396511E1,1.285242208E1,5.292018844E1
8.599177458E0,1.606391757E1,1.048100308E1,2.084685577E0,1.929369812E1
8.609168458E0,-4.481984353E0,1.028787422E1,5.338897315E0,1.242708189E1
8.619159458E0,-1.061105685E1,-1.026060164E1,7.336520775E0,1.648329489E1
8.629150458E0,-2.014447069E0,-3.131591416E1,4.217197285E0,3.166274198E1
8.639140458E0,1.031863175E1,-4.025118473E1,-3.345090333E0,4.168718823E1
8.649131458E0,1.461191125E1,-2.790791831E1,-1.222058248E1,3.378908834E1
8.659122458E0,1.249926078E1,-9.120641926E0,-8.447010523E0,1.762865894E1
8.669113458E0,1.091854438E1,-2.348716015E0,7.128556949E-1,1.119103398E1
8.679103458E0,7.801843366E0,-8.655235720E-1,6.284989672E0,1.005579366E1
8.689094458E0,4.444310158E0,1.420475793E-1,9.170878279E0,1.019201053E1
8.699085458E0,-2.839366406E0,8.641155624E-1,7.599336746E0,8.158346418E0
8.709076458E0,-8.459746928E0,1.025949535E0,3.099063472E0,9.067749718E0
8.719066458E0,-8.863798301E0,2.769372311E0,7.759804809E-1,9.318717134E0
8.729057458E0,-8.824085181E0,6.554960881E0,-2.673455170E-1,1.099561117E1
8.739048458E0,-9.443157384E0,8.881425902E0,-9.555733243E-1,1.299869485E1
8.749038458E0,-8.481163525E0,1.044824698E1,-1.406651806E0,1.353050882E1
8.759029458E0,-6.901158732E0,1.163167431E1,-1.869423987E0,1.365344591E1
8.769020458E0,-5.629935458E0,1.185466139E1,-2.214019117E0,1.330905896E1
8.779011458E0,-5.135123019E0,1.053252640E1,-2.725257407E0,1.203040435E1
8.789001458E0,-5.611669925E0,8.757270218E0,-2.740893739E0,1.075607361E1
8.798992458E0,-5.447438010E0,7.480763984E0,-2.391814672E0,9.558095421E0
8.808983458E0,-4.479377372E0,6.499286032E0,-2.430498828E0,8.259108010E0
8.818974458E0,-2.939150895E0,5.821891946E0,-2.506675622E0,6.986877449E0
8.828964458E0,-1.595640832E0,5.539573172E0,-2.869780698E0,6.439610380E0
8.838955458E0,-1.072605638E0,5.734691250E0,-3.410278602E0,6.757748643E0
8.848946458E0,-1.006530347E0,6.600280311E0,-3.645201015E0,7.606858350E0
8.858936458E0,-1.143010207E0,7.733328617E0,-3.199055245E0,8.446585007E0
8.868927458E0,-1.451516614E0,8.724412959E0,-2.128881903E0,9.096945647E0
8.878918458E0,-1.899594889E0,9.135043033E0,-9.154485610E-1,9.375260958E0
8.888909458E0,-2.416008112E0,8.969369195E0,-3.384149149E-1,9.295224774E0
8.898899458E0,-2.932724220E0,8.572295305E0,-5.604287231E-1,9.077400426E0
8.908890458E0,-3.488098318E0,7.701896909E0,-8.536335513E-1,8.497925400E0
8.918881458E0,-3.644670088E0,6.074203979E0,-5.751297927E-1,7.107063269E0
8.928872458E0,-2.461130783E0,4.251501145E0,-2.178780726E-1,4.917305926E0
8.938862458E0,-2.176620179E-1,1.415320888E0,1.051612380E0,1.776625612E0
8.948853458E0,8.262232661E-1,-2.601221591E0,3.992749866E0,4.836429483E0
8.958844458E0,4.284155506E-1,-5.728791409E0,4.201137615E0,7.117032258E0
8.968835458E0,2.127094263E-1,-4.414564202E0,2.024353129E0,4.861237290E0
8.978825458E0,2.136378472E0,-1.919353800E0,1.783240560E0,3.380529379E0
8.988816458E0,2.532421498E0,-4.307392341E-1,3.423508804E0,4.280082647E0
8.998807458E0,1.710152119E0,-1.005438087E0,4.261235298E0,4.700388524E0
9.008797458E0,2.709503839E0,-4.477950359E0,5.644155886E0,7.697398660E0
9.018788458E0,5.843168210E0,-9.287006906E0,7.517336563E0,1.330043086E1
9.028779458E0,1.029074521E1,-1.222558068E1,8.471629640E0,1.808681201E1
9.038770458E0,1.344393694E1,-1.296119198E1,8.198561161E0,2.039481167E1
9.048760458E0,1.340980323E1,-1.446389717E1,6.799207850E0,2.086279875E1
9.058751458E0,1.148927122E1,-1.574945548E1,7.770926213E0,2.098656702E1
9.068742458E0,9.654407346E0,-1.480773333E1,1.002873381E1,2.032368199E1
9.078733458E0,9.767733402E0,-1.400496208E1,1.046708320E1,2.002766610E1
9.088723458E0,1.114332655E1,-1.395258155E1,1.019887142E1,2.056368733E1
9.098714458E0,1.295927293E1,-1.385124696E1,8.613202425E0,2.083235592E1
9.108705458E0,1.419363185E1,-1.352140085E1,6.685815135E0,2.071201560E1
9.118696458E0,1.430919856E1,-1.290428805E1,6.098454137E0,2.021051598E1
9.128686458E0,1.315625744E1,-1.312361360E1,5.822727513E0,1.947358466E1
9.138677458E0,1.117762632E1,-1.238979973E1,5.040916189E0,1.743150319E1
9.148668458E0,9.362145381E0,-9.933430045E0,4.039446023E0,1.423516501E1
9.158658458E0,6.211125305E0,-6.457291330E0,2.007128986E0,9.181680436E0
9.168649458E0,8.569813746E-1,-4.460565417E0,3.923072398E-1,4.559053179E0
9.178640458E0,-3.320324744E0,-3.151062176E0,-8.893708563E-1,4.663124463E0
9.188631458E0,-6.256676869E0,-1.698936574E0,-2.707675415E0,7.025944568E0
9.198621458E0,-6.867014501E0,2.459941167E-1,-4.720981691E0,8.336910063E0
9.208612458E0,-6.553285069E0,2.217263006E0,-4.996500154E0,8.533862796E0
9.218603458E0,-6.795629938E0,4.619873393E0,-4.426876684E0,9.333865951E0
9.228594458E0,-7.437956518E0,7.794241986E0,-4.426764710E0,1.164773159E1
9.238584167E0,-8.033655646E0,1.095416211E1,-4.492848480E0,1.430800398E1
9.248575167E0,-8.111855139E0,1.365418410E1,-4.084822462E0,1.639892411E1
9.258566167E0,-7.922879561E0,1.571996329E1,-2.663771596E0,1.780407104E1
9.268556167E0,-7.272785540E0,1.634482599E1,-1.610831314E0,1.796222491E1
9.278547167E0,-7.699501305E0,1.543191659E1,-6.956221962E-1,1.726007706E1
9.288538167E0,-7.721265811E0,1.364683181E1,-2.642122865E-2,1.567975326E1
9.298529167E0,-6.879131101E0,1.212922909E1,-1.149678080E-1,1.394467141E1
9.308519167E0,-5.392998093E0,1.095222317E1,-8.166408491E-1,1.223529824E1
9.318510167E0,-3.852678353E0,1.012078887E1,-1.880752237E0,1.099139330E1
9.328501167E0,-2.232861331E0,9.131073943E0,-2.853830663E0,9.823773742E0
9.338492167E0,-1.335663976E0,8.088711274E0,-2.417002577E0,8.547113536E0
9.348482167E0,-8.342868689E-1,6.867923743E0,-1.705864356E0,7.125614663E0
9.358473167E0,-4.720629689E-1,5.772800478E0,-1.290482249E0,5.934089082E0
9.368464167E0,-7.265010497E-1,5.588424904E0,-1.505237031E0,5.833012533E0
9.378455167E0,-1.135175231E0,6.224666871E0,-1.710644601E0,6.554495054E0
9.388445167E0,-1.658758017E0,7.130162010E0,-1.479299513E0,7.468535030E0
9.398436167E0,-2.552329513E0,8.150140368E0,-1.095503334E0,8.610418196E0
9.408427167E0,-3.604960770E0,9.192514147E0,-7.077288562E-1,9.899441329E0
9.418417167E0,-5.016195331E0,1.014714461E1,2.108792478E-1,1.132127331E1
9.428408167E0,-5.404124175E0,1.073423663E1,3.767102306E-1,1.202373922E1
9.438399167E0,-5.050330206E0,1.097928526E1,-2.238922262E-1,1.208721091E1
9.448390167E0,-4.552004468E0,1.073971664E1,-6.835490115E-1,1.168458376E1
9.458380167E0,-4.295816608E0,1.012853292E1,-1.508800324E0,1.110485020E1
9.468371167E0,-4.394581635E0,9.602067164E0,-2.141673126E0,1.077491556E1
9.478362167E0,-4.610943817E0,9.108646948E0,-2.530629326E0,1.051819076E1
9.488352167E0,-4.645349419E0,8.454641140E0,-3.033677568E0,1.011253814E1
9.498343167E0,-4.711522651E0,8.009556931E0,-2.892279614E0,9.732252015E0
9.508334167E0,-4.849821872E0,7.752146126E0,-2.249804515E0,9.416908310E0
9.518325167E0,-4.928667190E0,7.594745513E0,-1.735132009E0,9.218600911E0
9.528315167E0,-4.806146972E0,7.595941268E0,-1.287543146E0,9.080481255E0
9.538306167E0,-4.408805572E0,7.795545915E0,-1.014392513E0,9.013162311E0
9.548297167E0,-3.856562366E0,8.363118181E0,-7.027955604E-1,9.236273090E0
9.558288167E0,-3.211915904E0,9.109325225E0,-1.062879526E0,9.717300176E0
9.568278167E0,-2.086605803E0,9.534911308E0,-5.877622636E-1,9.778237157E0
9.578269167E0,5.414205945E-1,9.109785401E0,2.141344512E0,9.373722986E0
9.588260167E0,3.359239133E0,5.143897936E0,3.303767768E0,6.975604274E0
9.598251167E0,5.089693662E0,-2.955973919E0,3.930511225E0,7.077547730E0
9.608241167E0,7.256003446E0,-1.398504529E1,9.256307854E0,1.827321299E1
9.618232167E0,1.567185357E1,-3.489223030E1,1.461314033E1,4.094653343E1
9.628223167E0,2.782158534E1,-6.614141603E1,1.496717755E1,7.329900360E1
9.638213167E0,1.699575558E1,-2.522284180E1,8.098805907E-1,3.042537367E1
9.648204167E0,3.405706079E0,1.209213085E1,-3.059546819E0,1.292978302E1
9.658195167E0,-6.709545475E-1,3.815810489E0,2.712959251E0,4.729771410E0
9.668186167E0,5.127173145E0,-1.674548072E1,5.666719122E0,1.840681218E1
9.678176167E0,8.484110522E0,-2.595681471E1,7.414829611E0,2.829692668E1
9.688167167E0,1.054237779E1,-2.469354950E1,3.893221777E0,2.713061540E1
9.698158167E0,6.455782748E0,-1.491032624E1,1.394139349E0,1.630762349E1
9.708149167E0,4.955611745E0,-1.084411049E1,7.698718947E-1,1.194761578E1
9.718139167E0,5.392930266E0,-9.059128633E0,6.268197638E-1,1.056145877E1
9.728130167E0,5.263755916E0,-7.379490793E0,-8.081050837E-1,9.100387055E0
9.738121167E0,5.161782814E0,-6.078246160E0,-2.380057676E0,8.321883966E0
9.748111167E0,3.862279481E0,-4.730555338E0,-2.355641165E0,6.545563528E0
9.758102167E0,2.302339409E0,-2.907237961E0,-1.205566059E0,3.899511359E0
9.768093167E0,1.519938101E0,-4.653377938E-1,-1.079103649E-1,1.593234364E0
9.778084167E0,7.619980341E-1,2.105112240E0,4.895107681E-1,2.291671735E0
9.788074167E0,2.018751204E-1,4.264010679E0,8.839162812E-1,4.359340389E0
9.798065167E0,-4.020674121E-1,5.563113477E0,5.176490316E-1,5.601593549E0
9.808056167E0,-1.107746235E0,6.336810036E0,6.655420724E-1,6.467241251E0
9.818047167E0,-1.926722462E0,7.004008917E0,1.181335782E0,7.359616470E0
9.828037167E0,-2.955474859E0,7.391311525E0,7.544105409E-1,7.995964792E0
9.838028167E0,-3.761404779E0,7.404036820E0,-5.839836466E-1,8.325200540E0
9.848019167E0,-4.405270346E0,7.150344844E0,-2.163760106E0,8.672698311E0
9.858009167E0,-5.060271642E0,6.804472098E0,-3.476192510E0,9.164666060E0
9.868000167E0,-5.607541791E0,6.795073868E0,-4.247532640E0,9.780546372E0
9.877991167E0,-5.879447844E0,7.232913961E0,-4.164902127E0,1.020927818E1
9.887982167E0,-6.004368929E0,7.328904777E0,-3.344311776E0,1.004737342E1
9.897972167E0,-5.820114977E0,7.303458863E0,-2.268410063E0,9.610407584E0
9.907963167E0,-5.033466251E0,7.327464607E0,-1.131671872E0,8.961484325E0
9.917954167E0,-4.120991877E0,7.455675920E0,-5.063514800E-1,8.533819151E0
9.927944167E0,-3.149822567E0,7.828449951E0,-4.499023139E-1,8.450350462E0
9.937935167E0,-2.110446070E0,8.433346165E0,-7.271217316E-1,8.723761583E0
9.947926167E0,-1.379310810E0,8.951615878E0,-1.219406419E0,9.138975717E0
9.957917167E0,-1.606021394E0,8.911882879E0,-1.706793478E0,9.214884977E0
9.967907167E0,-2.286125957E0,8.475806891E0,-1.573088414E0,8.918535838E0
9.977898167E0,-2.671353973E0,7.886633840E0,-1.154516066E0,8.406428060E0
9.987889167E0,-2.661856048E0,6.857788180E0,-5.172134140E-1,7.374431914E0
9.997880167E0,-1.874752994E0,4.812454948E0,5.658119622E-1,5.195629374E0
1.000787017E1,-1.416209080E0,2.433308269E0,1.352634350E0,3.123500756E0
1.001786117E1,-4.031571577E0,2.190793830E0,1.778868890E0,4.921130105E0
1.002785217E1,-6.882708428E0,3.660582701E0,2.858764251E0,8.303256834E0
1.003784217E1,-4.396207454E0,3.168615518E0,6.084217336E0,8.147666222E0
1.004783317E1,-5.648597431E-1,2.386608896E0,5.242988945E0,5.788255491E0
1.005782417E1,4.950001341E0,2.273040181E0,1.665460095E0,5.695874144E0
1.006781517E1,7.848802940E0,1.037954453E0,1.981200385E0,8.161262892E0
1.007780517E1,6.328301167E0,-1.631884214E0,2.676663537E0,7.062221283E0
1.008779617E1,3.425256829E0,-4.993223959E0,2.892574899E0,6.710563270E0
1.009778717E1,2.820195140E0,-7.411171008E0,3.612692543E0,8.713811092E0
1.010777717E1,6.037140234E0,-9.484957960E0,2.958740237E0,1.162607558E1
1.011776817E1,9.753355098E0,-1.192324338E1,3.317897272E0,1.575754139E1
1.012775917E1,1.101004629E1,-1.335202105E1,4.480813740E0,1.787666851E1
1.013775017E1,1.063304472E1,-1.367259582E1,6.876626154E0,1.863570507E1
1.014774017E1,9.630312724E0,-1.296364898E1,1.072227323E1,1.938469142E1
1.015773117E1,9.076769097E0,-1.289416652E1,1.091466534E1,1.917751775E1
1.016772217E1,9.125166501E0,-1.284831616E1,9.795277880E0,1.855519767E1
1.017771317E1,1.047468107E1,-1.290269995E1,8.371763874E0,1.860873558E1
1.018770317E1,1.172938362E1,-1.308095115E1,6.982829132E0,1.890633824E1
1.019769417E1,1.163647136E1,-1.286890070E1,6.344609052E0,1.847349818E1
1.020768517E1,1.084825383E1,-1.284429562E1,5.609644450E0,1.772367490E1
1.021767617E1,9.907746735E0,-1.318900652E1,5.031914400E0,1.724626049E1
1.022766617E1,9.156118737E0,-1.318963685E1,4.597531474E0,1.670144683E1
1.023765679E1,8.318449547E0,-1.267853173E1,3.987902232E0,1.567944942E1
1.024764779E1,7.155762289E0,-1.189354537E1,3.114412413E0,1.422536186E1
1.025763779E1,5.795110529E0,-1.090466660E1,1.640422318E0,1.245736911E1
1.026762879E1,4.360347065E0,-9.249112270E0,2.381147012E-1,1.022816713E1
1.027761979E1,2.262856085E0,-6.721657398E0,-9.369204140E-1,7.153951055E0
1.028761079E1,1.136029217E-1,-3.351011809E0,-2.307103866E0,4.070001722E0
1.029760079E1,-2.631385038E0,-3.207548618E-1,-2.334853144E0,3.532507623E0
1.030759179E1,-4.079913725E0,1.989681187E0,-1.862515356E0,4.906474363E0
1.031758279E1,-4.721954668E0,4.984936700E0,-1.444688528E0,7.016664075E0
1.032757279E1,-5.031083511E0,7.635563171E0,-2.173806499E0,9.398886154E0
1.033756379E1,-5.346432037E0,1.016689767E1,-2.483770909E0,1.175241514E1
1.034755479E1,-5.769254141E0,1.246556795E1,-1.970659609E0,1.387653332E1
1.035754579E1,-6.114715244E0,1.465723419E1,-1.789326342E0,1.598205072E1
1.036753579E1,-6.086263862E0,1.651027881E1,-1.544556048E0,1.766401901E1
1.037752679E1,-5.601756556E0,1.764703717E1,-8.309745674E-1,1.853343239E1
1.038751779E1,-3.952258190E0,1.659277250E1,-8.582801874E-1,1.707855640E1
1.039750879E1,-2.473694695E0,1.363180798E1,-1.510324840E0,1.393651446E1
1.040749879E1,-2.694476787E0,1.121339257E1,-1.653203308E0,1.165047034E1
1.041748979E1,-3.646414020E0,9.451002594E0,-1.373648513E0,1.022275381E1
1.042748079E1,-4.140264884E0,8.293310028E0,-1.212608738E0,9.348326293E0
1.043747079E1,-4.522510235E0,7.692210996E0,-1.001783723E0,8.979241586E0
1.044746179E1,-4.818770818E0,7.328789002E0,-1.199475600E0,8.852708181E0
1.045745279E1,-4.893101793E0,7.089346690E0,-1.085832624E0,8.682183720E0
1.046744379E1,-4.758283419E0,6.961503167E0,-7.370080577E-1,8.464453220E0
1.047743379E1,-4.424330807E0,7.177495220E0,-7.680772381E-1,8.466468176E0
1.048742479E1,-3.927869746E0,7.690390758E0,-1.070249649E0,8.701477177E0
1.049741579E1,-3.467378709E0,8.094218182E0,-1.408210381E0,8.917518689E0
1.050740579E1,-3.297142288E0,8.449142418E0,-1.689806732E0,9.225757511E0
1.051739679E1,-3.420686061E0,8.893821414E0,-1.939210506E0,9.724283514E0
1.052738779E1,-3.754495124E0,9.447572032E0,-2.087617371E0,1.037839088E1
1.053737879E1,-4.217527361E0,9.968997488E0,-2.127530757E0,1.103153820E1
1.054736879E1,-4.752220733E0,1.027586287E1,-2.107946970E0,1.151609309E1
1.055735979E1,-5.145847397E0,1.031952637E1,-1.979937533E0,1.170010780E1
1.056735079E1,-5.430634282E0,1.024940656E1,-1.696081087E0,1.172257713E1
1.057734079E1,-5.627070322E0,1.006500877E1,-1.310181080E0,1.160538222E1
1.058733179E1,-5.583920209E0,9.600165650E0,-9.819091836E-1,1.114932693E1
1.059732279E1,-5.341852498E0,8.869918581E0,-1.163569310E0,1.041944035E1
1.060731379E1,-5.038530525E0,8.171946389E0,-1.674205337E0,9.745278916E0
1.061730379E1,-4.782594388E0,7.624570405E0,-2.084972675E0,9.238744179E0
1.062729479E1,-4.792083834E0,7.221570947E0,-2.507797118E0,9.022427656E0
1.063728579E1,-4.978500670E0,7.202297940E0,-2.537760298E0,9.115853875E0
1.064727679E1,-5.147818494E0,7.600690377E0,-1.991314314E0,9.393394602E0
1.065726679E1,-5.191096660E0,8.113209354E0,-1.444720688E0,9.739551757E0
1.066725779E1,-4.918524025E0,9.044038138E0,-9.137286025E-1,1.033544408E1
1.067724879E1,-4.375141397E0,1.033935545E1,-1.669994026E-2,1.122695026E1
1.068723879E1,-2.808308043E0,1.001495543E1,1.669433278E0,1.053436917E1
1.069722979E1,-5.044965971E-1,5.474317660E0,1.894370402E0,5.814749340E0
1.070722079E1,2.489599999E0,-1.751370896E0,-1.033480456E0,3.214574625E0
1.071721179E1,1.043810323E1,-1.183949956E1,2.121633841E0,1.592573637E1
1.072720179E1,2.810978524E1,-4.278154625E1,1.518080557E1,5.339360996E1
1.073719279E1,3.595724216E1,-6.727943388E1,1.469497212E1,7.768775768E1
1.074718379E1,6.469479851E0,-6.509631511E0,1.531283745E0,9.304531254E0
1.075717379E1,-7.786558744E0,2.207319933E1,1.025767979E0,2.342880333E1
1.076716479E1,-9.160268506E0,9.373153934E0,7.886080109E0,1.529564622E1
1.077715579E1,1.087704903E0,-6.930883053E0,1.013527827E1,1.232656105E1
1.078714679E1,1.208818748E1,-1.861581205E1,1.429965590E1,2.640365304E1
1.079713679E1,2.053896946E1,-3.367463651E1,1.044567771E1,4.080370809E1
1.080712779E1,1.657201137E1,-2.671342571E1,-3.941184733E0,3.168235488E1
1.081711879E1,7.034332577E0,-1.229494971E1,-4.863595281E0,1.497672134E1
1.082710879E1,7.587638807E0,-6.967794771E0,-4.224915025E0,1.113428640E1
1.083709979E1,8.414767222E0,-4.280579349E0,-2.725184902E0,9.826408281E0
1.084709079E1,5.508029782E0,-3.469431374E0,1.721868185E0,6.733511431E0
1.085708179E1,3.134806332E0,-3.836798485E0,5.662726058E0,7.524260745E0
1.086707179E1,2.676755923E-1,-4.432296469E0,5.164070245E0,6.810618452E0
1.087706279E1,-9.840893179E-1,-3.773618735E0,2.967789680E0,4.900653602E0
1.088705379E1,-1.341158313E0,-2.148990916E0,8.673695379E-1,2.677535713E0
1.089704479E1,-1.522514384E0,-7.543270719E-1,-7.567881650E-1,1.860050458E0
1.090703479E1,-1.203204369E0,4.149523365E-1,-1.478372583E0,1.950761823E0
1.091702579E1,-4.892441350E-1,1.220844834E0,-1.622463180E0,2.088590123E0
1.092701679E1,3.640184104E-1,2.192661431E0,-1.928205900E0,2.942490705E0
1.093700679E1,7.879663959E-1,3.189335126E0,-2.496548830E0,4.126197480E0
1.094699779E1,2.258188838E-1,3.916987785E0,-2.915746245E0,4.888288416E0
1.095698879E1,-9.232718432E-1,4.134354519E0,-3.211247567E0,5.315771733E0
1.096697979E1,-2.187294272E0,4.316641467E0,-3.088565381E0,5.740808819E0
1.097696979E1,-2.974268103E0,4.995573370E0,-2.733167521E0,6.424346562E0
1.098696079E1,-3.815496201E0,5.898752427E0,-2.497011344E0,7.455759995E0
1.099695179E1,-4.592638232E0,6.701208515E0,-2.187659723E0,8.413345146E0
1.100694179E1,-5.192386556E0,7.090559403E0,-2.006422935E0,9.014579512E0
1.101693279E1,-5.579552339E0,7.151596148E0,-1.798685396E0,9.247269917E0
1.102692379E1,-5.652891042E0,7.148731012E0,-1.764738801E0,9.282986333E0
1.103691479E1,-5.243875383E0,7.325190625E0,-2.187324385E0,9.270438754E0
1.104690479E1,-4.458697817E0,7.876504124E0,-2.705268408E0,9.446575072E0
1.105689579E1,-3.372292165E0,8.453547710E0,-3.103111500E0,9.615826762E0
1.106688679E1,-2.682748734E0,8.790037429E0,-3.330768456E0,9.775270701E0
1.107687679E1,-2.935427973E0,8.450414187E0,-3.170414998E0,9.490930860E0
1.108686779E1,-4.158173152E0,7.814921249E0,-2.361543929E0,9.161893244E0
1.109685879E1,-5.543493730E0,7.142324803E0,-1.578836811E0,9.178009152E0
1.110684979E1,-6.241222093E0,6.359997754E0,-1.365772752E0,9.014863274E0
1.111683979E1,-6.120491708E0,5.910977785E0,-1.532014063E0,8.645643077E0
1.112683079E1,-5.474345727E0,5.922824829E0,-1.774112764E0,8.258074303E0
1.113682179E1,-4.501198304E0,6.356588243E0,-1.729336541E0,7.978571622E0
1.114681179E1,-2.253284193E0,6.759521627E0,-1.125800682E0,7.213587836E0
1.115680279E1,1.454552781E0,5.831032898E0,3.361733848E-1,6.019109652E0
1.116679379E1,4.651336091E0,2.599887841E0,1.498402513E0,5.535300742E0
1.117678479E1,4.804864093E0,8.711181879E-2,1.640898281E0,5.078075875E0
1.118677479E1,3.212271999E0,-8.024455637E-1,2.720223832E0,4.285117032E0
1.119676579E1,1.310499607E0,-1.861888534E0,4.903641692E0,5.406453549E0
1.120675679E1,1.133324879E-1,-3.621309292E0,5.891711209E0,6.916573300E0
1.121674679E1,4.505279660E-3,-4.711833723E0,5.370744760E0,7.144669104E0
1.122673779E1,1.389830536E0,-4.657021338E0,4.684764622E0,6.750296011E0
1.123672921E1,3.486152657E0,-4.867160913E0,4.092187031E0,7.251793599E0
1.124672021E1,4.685327125E0,-7.086848760E0,3.440489411E0,9.165843278E0
1.125671021E1,6.131742336E0,-1.023795304E1,4.809399486E0,1.286640081E1
1.126670121E1,8.389213135E0,-1.234142104E1,7.336213796E0,1.662857791E1
1.127669221E1,1.011413474E1,-1.284936399E1,9.104459172E0,1.871611747E1
1.128668221E1,1.022024884E1,-1.323498786E1,9.865881840E0,1.941530361E1
1.129667321E1,9.803893168E0,-1.243167866E1,9.364379602E0,1.839441657E1
1.130666421E1,1.035144398E1,-1.085922789E1,8.055380976E0,1.702834065E1
1.131665521E1,1.074423537E1,-1.062962761E1,7.987060938E0,1.709446458E1
1.132664521E1,1.132108191E1,-1.125497095E1,8.269069226E0,1.797828614E1
1.133663621E1,1.231273694E1,-1.199899873E1,7.594587053E0,1.879513804E1
1.134662721E1,1.316079371E1,-1.291029548E1,5.940137265E0,1.936923982E1
1.135661721E1,1.239267071E1,-1.327567863E1,4.447810886E0,1.869772586E1
1.136660821E1,9.774947112E0,-1.251987338E1,3.952288011E0,1.636818258E1
1.137659921E1,6.643275472E0,-1.144171932E1,3.730800744E0,1.374645133E1
1.138659021E1,3.929626542E0,-1.056071232E1,3.322358113E0,1.174770926E1
1.139658021E1,2.548524145E0,-9.468795086E0,2.383330362E0,1.009124964E1
1.140657121E1,1.735446589E0,-7.735099738E0,1.175314320E0,8.014044333E0
1.141656221E1,8.107655668E-1,-5.796348385E0,1.300479233E-1,5.854221371E0
1.142655321E1,-3.084634298E-1,-3.784537826E0,-9.983819595E-1,3.926148593E0
1.143654321E1,-8.393286306E-1,-1.509032459E0,-1.946291046E0,2.601864783E0
1.144653421E1,-1.849432796E0,4.703126049E-1,-1.582245153E0,2.478930281E0
1.145652521E1,-2.737088079E0,2.240237886E0,-8.278020144E-1,3.632571143E0
1.146651521E1,-2.678156916E0,4.885582566E0,-9.103456959E-1,5.645367195E0
1.147650621E1,-2.889267421E0,7.758310261E0,-1.183212446E0,8.362968135E0
1.148649721E1,-3.394456913E0,1.052511330E1,-9.345553614E-1,1.109836662E1
1.149648721E1,-4.111030560E0,1.327459924E1,-5.811499397E-1,1.390874877E1
1.150647821E1,-4.969495958E0,1.592652437E1,-2.744115847E-1,1.668608313E1
1.151646921E1,-5.240059490E0,1.794501128E1,-3.717567618E-1,1.869812441E1
1.152646021E1,-4.576858058E0,1.848385325E1,-1.088944074E0,1.907318170E1
1.153645021E1,-3.270975413E0,1.707865507E1,-1.913028867E0,1.749398235E1
1.154644121E1,-2.286335287E0,1.427947131E1,-2.281051597E0,1.464014434E1
1.155643221E1,-2.233422956E0,1.112288001E1,-2.664769716E0,1.165365331E1
1.156642221E1,-2.744460833E0,8.575158101E0,-2.608766254E0,9.373956640E0
1.157641321E1,-3.934533525E0,6.875807544E0,-2.386452483E0,8.273598908E0
1.158640421E1,-5.648719053E0,5.734856726E0,-2.054479153E0,8.307676763E0
1.159639521E1,-6.879913459E0,5.192765456E0,-1.262635615E0,8.711617013E0
1.160638521E1,-7.337918844E0,5.353155166E0,-9.608992606E-1,9.133709574E0
1.161637621E1,-7.147970290E0,5.803203660E0,-8.918722951E-1,9.250193953E0
1.162636721E1,-6.399225554E0,6.361054346E0,-8.231935313E-1,9.060394455E0
1.163635721E1,-5.478538765E0,7.018170873E0,-9.421571803E-1,8.953031305E0
1.164634821E1,-4.594019051E0,7.642336586E0,-1.408699793E0,9.027444524E0
1.165633921E1,-3.845829509E0,8.014815917E0,-1.975248504E0,9.106551787E0
1.166633021E1,-3.489770037E0,8.300070578E0,-2.342138044E0,9.303508861E0
1.167632021E1,-3.576915477E0,8.532864606E0,-2.588100439E0,9.607412065E0
1.168631121E1,-3.721561559E0,8.659058629E0,-2.688620801E0,9.800918252E0
1.169630221E1,-3.727755807E0,8.849631667E0,-2.926019803E0,1.003861225E1
1.170629221E1,-3.917463748E0,8.974582572E0,-3.166984144E0,1.029171721E1
1.171628321E1,-3.929933521E0,9.065697395E0,-3.393018790E0,1.044719212E1
1.172627421E1,-4.034333510E0,9.305150231E0,-3.437734787E0,1.070886026E1
1.173626521E1,-4.049335711E0,9.414748102E0,-3.398377471E0,1.079738723E1
1.174625521E1,-4.049353252E0,9.417842449E0,-3.301163126E0,1.076989768E1
1.175624621E1,-4.094265716E0,9.185784001E0,-2.948460832E0,1.048022236E1
1.176623721E1,-4.464524275E0,8.859297114E0,-2.209292228E0,1.016366541E1
1.177622721E1,-4.751595081E0,8.726101050E0,-1.718074657E0,1.008336630E1
1.178621821E1,-4.192486660E0,8.954330156E0,-1.537917412E0,1.000610628E1
1.179620921E1,-3.089977484E0,9.246996163E0,1.625689673E-1,9.750965468E0
1.180620021E1,-2.421809427E0,9.812946997E0,2.960392660E0,1.053199954E1
1.181619021E1,-8.126360911E-1,1.132227591E1,2.383364715E0,1.159891101E1
1.182618121E1,4.376628344E0,1.148889115E1,6.762790221E-1,1.231287330E1
1.183617221E1,8.242364407E0,7.971699718E0,-1.044656532E0,1.151415975E1
1.184616221E1,7.194998860E0,1.959022481E0,-5.571062182E0,9.308195933E0
1.185615321E1,7.787853903E0,-8.764597363E0,4.116059750E-1,1.173193312E1
1.186614421E1,1.799684802E1,-3.503515964E1,1.764264708E1,4.315798820E1
1.187613521E1,3.142514482E1,-5.999087490E1,2.203964800E1,7.121931537E1
1.188612521E1,1.017115678E1,-1.496105902E1,7.202745252E0,1.947216620E1
1.189611621E1,-3.356425745E0,8.685248893E0,1.417095225E0,9.418455340E0
1.190610721E1,-6.882674514E0,-9.838981140E-1,1.048000204E1,1.257655385E1
1.191609721E1,-4.003286841E0,-1.858552230E1,1.383003794E1,2.350995309E1
1.192608821E1,9.613401407E-1,-3.004098258E1,1.051633430E1,3.184302272E1
1.193607921E1,7.201135513E0,-3.298399848E1,6.793143117E-1,3.376776535E1
1.194607021E1,9.520829458E0,-2.139555147E1,-1.101642443E1,2.588005842E1
1.195606021E1,1.080203393E1,-1.149270938E1,-7.269453796E0,1.736695899E1
1.196605121E1,8.653789703E0,-6.859181571E0,3.721915900E0,1.165285828E1
1.197604221E1,5.543134126E0,-3.800155739E0,6.741211656E0,9.519004894E0
1.198603221E1,4.328169837E0,-2.872430071E0,7.047278897E0,8.754887121E0
1.199602321E1,3.116850117E0,-3.074101709E0,5.564699242E0,7.080306040E0
1.200601421E1,1.785602835E0,-2.671685218E0,3.020401172E0,4.410113675E0
1.201600521E1,1.230409709E0,-1.673889441E0,3.656813586E-1,2.109392512E0
1.202599521E1,5.453560629E-1,-7.348885882E-1,-1.364469992E0,1.642940301E0
1.203598621E1,1.706960124E-1,6.356139761E-1,-1.753382046E0,1.872829638E0
1.204597721E1,4.358482388E-1,2.004430203E0,-1.728731354E0,2.682576415E0
1.205596721E1,3.939602476E-1,3.272766123E0,-1.658423556E0,3.690063883E0
1.206595821E1,1.740189850E-1,4.037494222E0,-1.753503960E0,4.405271653E0
1.207594921E1,-1.997616443E-1,4.753381698E0,-1.956823343E0,5.144288083E0
1.208594021E1,-7.803293476E-1,5.435362925E0,-2.074804952E0,5.869999966E0
1.209593021E1,-1.727225404E0,6.016697783E0,-2.193587337E0,6.632931872E0
1.210592121E1,-2.505177858E0,6.290720528E0,-2.241932994E0,7.132695452E0
1.211591221E1,-3.148743463E0,6.535196707E0,-2.415069634E0,7.645648614E0
1.212590221E1,-3.942921648E0,6.772577291E0,-2.521207123E0,8.232309496E0
1.213589321E1,-4.308702410E0,7.134300669E0,-2.757818213E0,8.778879415E0
1.214588421E1,-4.466858776E0,7.591664030E0,-3.162458107E0,9.358810359E0
1.215587521E1,-4.485365213E0,7.805312519E0,-3.291140413E0,9.585040941E0
1.216586521E1,-4.420050645E0,7.746843871E0,-2.849636455E0,9.363272163E0
1.217585621E1,-4.654448563E0,7.659281816E0,-1.939465299E0,9.170060797E0
1.218584721E1,-4.936295468E0,7.470274079E0,-1.325005672E0,9.051389274E0
1.219583721E1,-4.496312078E0,7.368823718E0,-9.951095653E-1,8.689455008E0
1.220582821E1,-3.455996519E0,7.372710947E0,-8.717169428E-1,8.189057887E0
1.221581921E1,-2.341302038E0,7.407344005E0,-1.018664196E0,7.835056936E0
1.222580921E1,-1.277027805E0,7.549395093E0,-1.902247186E0,7.889404961E0
1.223580021E1,-8.554257229E-1,7.918556714E0,-2.401861066E0,8.318907992E0
1.224579167E1,-1.241637825E0,8.706359680E0,-2.435734863E0,9.125522872E0
1.225578267E1,-2.542374043E0,9.523191149E0,-1.964922614E0,1.005065950E1
1.226577267E1,-4.308419697E0,9.298217772E0,-6.148750716E-1,1.026632385E1
1.227576367E1,-5.785549747E0,8.088183855E0,8.751843417E-1,9.982847869E0
1.228575467E1,-5.947348636E0,6.019537776E0,2.326470283E0,8.776004490E0
1.229574467E1,-4.623699811E0,2.370541917E0,4.573231323E0,6.921886567E0
1.230573567E1,-2.198022743E0,-2.061645209E0,5.974190864E0,6.691236166E0
1.231572667E1,1.856808473E0,-6.057537076E0,4.918266163E0,8.020650546E0
1.232571767E1,5.785741535E0,-9.105254393E0,1.345830823E0,1.087160169E1
1.233570767E1,7.481728190E0,-8.440338850E0,-6.376067072E-1,1.129699601E1
1.234569867E1,6.718203447E0,-6.516602561E0,1.425011478E0,9.467366277E0
1.235568967E1,6.730003713E0,-7.415029585E0,3.755064935E0,1.069467748E1
1.236567967E1,8.278242922E0,-9.847352014E0,5.014201430E0,1.380731196E1
1.237567067E1,8.928821678E0,-1.155403030E1,5.789267991E0,1.570780369E1
1.238566167E1,1.006405684E1,-1.210501226E1,7.530912044E0,1.745082228E1
1.239565267E1,1.135916248E1,-1.222551753E1,9.195642992E0,1.905396812E1
1.240564267E1,1.107852303E1,-1.180092898E1,9.773627395E0,1.890818314E1
1.241563367E1,1.013937366E1,-1.232197320E1,9.212094133E0,1.842554206E1
1.242562467E1,9.553177425E0,-1.374403476E1,8.603535808E0,1.881973748E1
1.243561467E1,9.343289865E0,-1.451570935E1,7.761023369E0,1.892713309E1
1.244560567E1,9.410386080E0,-1.417606798E1,6.284732979E0,1.813874687E1
1.245559667E1,9.290366716E0,-1.402813927E1,5.019092041E0,1.755821432E1
1.246558767E1,8.884051301E0,-1.398934066E1,4.052772412E0,1.706027502E1
1.247557767E1,8.304733148E0,-1.355301675E1,3.033712359E0,1.618197350E1
1.248556867E1,8.024149827E0,-1.249116706E1,2.733089168E0,1.509589386E1
1.249555967E1,7.149205222E0,-1.105905180E1,2.842331529E0,1.347191934E1
1.250554967E1,5.365940103E0,-9.270207270E0,2.708526769E0,1.104835613E1
1.251554067E1,3.606236340E0,-6.868150030E0,1.970729191E0,8.003761548E0
1.252553167E1,2.518657444E0,-3.973865406E0,9.328294095E-1,4.796395761E0
1.253552267E1,2.108751547E-1,-1.551248771E0,3.702725923E-1,1.608708449E0
1.254551267E1,-1.370128343E0,1.718496680E-3,1.304326701E-1,1.376323839E0
1.255550367E1,-2.074916049E0,2.355302904E0,-5.462647203E-1,3.186084356E0
1.256549467E1,-2.886038589E0,4.676260432E0,-7.617363712E-1,5.547690750E0
1.257548467E1,-3.758104025E0,6.767690772E0,-7.167715752E-1,7.774236023E0
1.258547567E1,-4.635953820E0,8.819820807E0,-8.038342774E-1,9.996372164E0
1.259546667E1,-5.581430465E0,1.094170052E1,-1.076999820E0,1.233017052E1
1.260545667E1,-6.143774736E0,1.300727389E1,-1.313185964E0,1.444505450E1
1.261544767E1,-6.628888983E0,1.507751334E1,-1.703522692E0,1.655824771E1
1.262543867E1,-6.326346443E0,1.636276642E1,-2.145669259E0,1.767389829E1
1.263542967E1,-5.040862979E0,1.616174499E1,-1.923269242E0,1.703852298E1
1.264541967E1,-2.892774581E0,1.450878391E1,-9.559532471E-1,1.482520832E1
1.265541067E1,-1.765317090E0,1.269474723E1,-4.720154603E-1,1.282558967E1
1.266540167E1,-2.011088136E0,1.121907255E1,-6.182391210E-1,1.141465216E1
1.267539167E1,-2.008073019E0,9.893533323E0,-6.812569030E-1,1.011822464E1
1.268538267E1,-2.115452164E0,8.711280112E0,-7.491557944E-1,8.995708613E0
1.269537367E1,-2.504571210E0,7.530887486E0,-8.047512670E-1,7.977140331E0
1.270536467E1,-2.960788224E0,7.025038428E0,-1.723797327E0,7.815939422E0
1.271535467E1,-3.718175729E0,6.689185470E0,-3.253189645E0,8.315844868E0
1.272534567E1,-4.663597117E0,6.854603786E0,-3.219510852E0,8.893817024E0
1.273533667E1,-5.515381486E0,7.924467080E0,-1.151291619E0,9.723275365E0
1.274532667E1,-5.581769603E0,8.863485475E0,1.603639823E-1,1.047584093E1
1.275531767E1,-5.545965348E0,9.389498656E0,7.911195070E-1,1.093372245E1
1.276530867E1,-5.420689337E0,9.656716411E0,1.047680712E0,1.112356416E1
1.277529967E1,-5.487611305E0,9.622093878E0,3.314576054E-1,1.108189661E1
1.278528967E1,-5.596660123E0,9.685700474E0,-7.029600133E-1,1.120845890E1
1.279528067E1,-5.463466398E0,9.778530285E0,-1.363571860E0,1.128399078E1
1.280527167E1,-5.049957154E0,9.760624942E0,-1.741655309E0,1.112677985E1
1.281526167E1,-4.908369166E0,9.801454294E0,-1.764424805E0,1.110287301E1
1.282525267E1,-4.922990713E0,9.666063770E0,-1.783463924E0,1.099315105E1
1.283524367E1,-3.576916354E0,9.563186688E0,-2.548561859E0,1.052349931E1
1.284523367E1,-3.806025174E0,9.167071157E0,-2.203096664E0,1.016733279E1
1.285522467E1,-3.653960729E0,8.609128085E0,-2.442520557E0,9.666148254E0
1.286521567E1,-3.546480135E0,8.356799680E0,-3.261062336E0,9.646146889E0
1.287520667E1,-3.332072969E0,8.770825818E0,-3.146447554E0,9.895970291E0
1.288519667E1,-2.743522940E0,9.807678655E0,-2.603807230E0,1.051176916E1
1.289518767E1,-2.348624799E0,1.065452505E1,-1.496865572E0,1.101251783E1
1.290517867E1,-1.527929198E0,1.090322351E1,-8.252263159E-2,1.101007086E1
1.291516867E1,-2.010863310E-1,1.033319716E1,3.807148424E-1,1.034216337E1
1.292515967E1,1.067132352E0,7.085928408E0,-1.404172586E0,7.302112948E0
1.293515067E1,2.461243634E0,3.055992882E0,-2.411033593E0,4.605420253E0
1.294514167E1,2.846652329E0,-1.749130828E0,-9.731067851E-1,3.479917377E0
1.295513167E1,3.007475610E0,-8.700466272E0,1.428457476E1,1.699388416E1
1.296512267E1,1.012105667E1,-2.350350078E1,2.518111607E1,3.590179583E1
1.297511367E1,2.667070829E1,-6.568634361E1,1.541711378E1,7.255142875E1
1.298510367E1,1.112117730E1,-3.791560565E1,-8.849130560E0,4.049173803E1
1.299509467E1,5.310186902E0,1.215910369E1,8.210654372E-1,1.329345838E1
1.300508567E1,-6.151397166E0,2.160271832E1,7.320961919E0,2.362442823E1
1.301507667E1,-5.763826756E0,-5.416369414E-1,5.362384411E0,7.891149221E0
1.302506667E1,8.630302023E0,-2.512061610E1,9.839346006E0,2.832561025E1
1.303505767E1,1.381859845E1,-4.309776835E1,-1.668519359E0,4.528968157E1
1.304504867E1,2.943566712E0,-3.054612120E1,-7.380277244E0,3.156261392E1
1.305503867E1,-1.293356155E0,-1.526984580E1,-2.809283066E0,1.557989192E1
1.306502967E1,4.053919051E0,-5.607624822E0,4.097576702E-1,6.931638851E0
1.307502067E1,7.584392433E0,-1.650189507E0,4.703064069E0,9.075513518E0
1.308501067E1,9.308242239E0,-2.372900099E0,5.946630013E0,1.129762971E1
1.309500167E1,7.756442075E0,-2.308255622E0,4.073184749E0,9.059871505E0
1.310499267E1,5.863001965E0,-2.617914807E0,2.447646226E0,6.871625865E0
1.311498367E1,4.574739904E0,-2.861374156E0,-4.983114123E-2,5.396127352E0
1.312497367E1,4.064634658E0,-2.038204306E0,-4.909528084E0,6.691711119E0
1.313496467E1,2.350998183E0,-1.726257105E0,-4.783902117E0,5.602934545E0
1.314495567E1,6.689717567E-1,-1.264553940E0,8.911039710E-1,1.685433525E0
1.315494567E1,2.889594573E-1,6.142915195E-1,4.998756010E0,5.044642037E0
1.316493667E1,-1.789031643E-1,2.484774876E0,5.286023868E0,5.843642773E0
1.317492767E1,-7.015881103E-1,2.811268196E0,2.704636909E0,3.963649272E0
1.318491867E1,-1.042877809E0,3.644476545E0,2.161013961E-2,3.790813951E0
1.319490867E1,-1.730814425E0,4.942712202E0,-2.239365189E0,5.695689505E0
1.320489967E1,-2.791941394E0,6.103599102E0,-3.740251599E0,7.683641114E0
1.321489067E1,-3.993547134E0,6.792134473E0,-4.192205993E0,8.925026638E0
1.322488067E1,-5.167382108E0,7.052866496E0,-4.454957645E0,9.812818723E0
1.323487167E1,-5.837225100E0,7.137023717E0,-4.905432109E0,1.044382921E1
1.324486267E1,-6.616273030E0,7.518366258E0,-4.467768602E0,1.096639669E1
1.325485267E1,-6.789789155E0,8.116211314E0,-3.058158398E0,1.101482890E1
1.326484367E1,-6.502558719E0,8.438558958E0,-1.416179259E0,1.074700474E1
1.327483467E1,-6.266703674E0,9.118886007E0,-4.504607230E-2,1.106470452E1
1.328482567E1,-5.293212435E0,9.719719575E0,5.136986527E-1,1.107948252E1
1.329481567E1,-3.291961362E0,9.512036415E0,1.939006877E-1,1.006744475E1
1.330480667E1,-1.202562345E0,9.081355653E0,-6.162819117E-1,9.181338687E0
1.331479767E1,8.278780282E-1,8.588745861E0,-1.428177745E0,8.745949301E0
1.332478767E1,1.245099669E0,7.666334143E0,-1.143463074E0,7.850507002E0
1.333477867E1,-4.649992400E-1,6.373281459E0,-3.437841207E-1,6.399463131E0
1.334476967E1,-2.881813683E0,5.062687127E0,-5.751321316E-3,5.825434244E0
1.335475967E1,-4.248774589E0,4.205849594E0,2.198208100E-1,5.982439093E0
1.336475067E1,-4.474927933E0,3.439357390E0,6.860967895E-1,5.685498049E0
1.337474167E1,-4.249710143E0,2.906843859E0,1.131546449E0,5.271638729E0
1.338473267E1,-3.155285620E0,2.621175799E0,2.253471012E0,4.680226652E0
1.339472267E1,-1.523953968E-1,1.670094599E0,3.786760937E0,4.141497159E0
1.340471367E1,4.528216533E0,-9.418887931E-1,4.494062362E0,6.448914326E0
1.341470467E1,8.512025714E0,-4.188631883E0,4.179573669E0,1.036668003E1
1.342469467E1,1.013804751E1,-6.945884669E0,4.060904135E0,1.294280741E1
1.343468567E1,1.074230345E1,-7.670044786E0,4.648840791E0,1.399422707E1
1.344467667E1,1.092457052E1,-6.584712684E0,4.589954652E0,1.355626666E1
1.345466767E1,1.040720420E1,-7.453642259E0,4.247289981E0,1.348725896E1
1.346465767E1,8.749715030E0,-9.176999729E0,5.180274049E0,1.369708277E1
1.347464867E1,8.201267252E0,-1.089263537E1,6.355066212E0,1.504317640E1
1.348463967E1,8.244496887E0,-1.309323966E1,7.891153153E0,1.736879246E1
1.349462967E1,7.790942402E0,-1.476975567E1,9.284452257E0,1.910616444E1
1.350462067E1,8.503774708E0,-1.530150146E1,1.030930310E1,2.031580325E1
1.351461167E1,1.052799481E1,-1.422521383E1,9.977716856E0,2.031625499E1
1.352460267E1,1.269917006E1,-1.239805483E1,7.577069964E0,1.929747841E1
1.353459267E1,1.406342137E1,-1.074149186E1,6.167967006E0,1.874041849E1
1.354458367E1,1.476040831E1,-9.040452041E0,6.327312988E0,1.842917025E1
1.355457467E1,1.434390763E1,-8.353587220E0,6.738512582E0,1.791473297E1
1.356456467E1,1.207414481E1,-8.829937075E0,6.170283673E0,1.618101240E1
1.357455567E1,8.784282600E0,-9.398508046E0,4.945234106E0,1.378226812E1
1.358454667E1,4.825344551E0,-8.155473028E0,3.806639716E0,1.021206131E1
1.359453667E1,1.636781842E0,-5.715879003E0,3.392532302E0,6.845407438E0
1.360452767E1,-1.273339967E0,-3.320794567E0,1.531159784E0,3.872146887E0
1.361451867E1,-3.160161906E0,-6.567475677E-1,3.089882174E-1,3.242439569E0
1.362450967E1,-3.277917520E0,3.357413340E0,-1.091276821E0,4.817452927E0
1.363449967E1,-6.303388520E0,4.827770560E0,-1.317359706E0,8.048323553E0
1.364449067E1,-5.822522861E0,6.201228307E0,-1.048311042E0,8.570645310E0
1.365448167E1,-5.870055462E0,8.738051004E0,-1.052830647E0,1.057920313E1
1.366447167E1,-6.591803602E0,1.053279772E1,-1.176512414E0,1.248102095E1
1.367446267E1,-6.937131972E0,1.218501738E1,-1.536048642E0,1.410524349E1
1.368445367E1,-6.224409594E0,1.347793733E1,-1.668326985E0,1.493925649E1
1.369444367E1,-5.132219292E0,1.453639797E1,-1.857176263E0,1.552725489E1
1.370443467E1,-4.812643229E0,1.473855960E1,-2.330274482E0,1.567854755E1
1.371442567E1,-4.821195074E0,1.378609846E1,-3.160514200E0,1.494286728E1
1.372441667E1,-5.120621340E0,1.177050826E1,-3.115517537E0,1.320878787E1
1.373440667E1,-5.812273861E0,9.476598780E0,-1.805376511E0,1.126267447E1
1.374439767E1,-6.227437867E0,7.826942539E0,-1.098752047E0,1.006226952E1
1.375438867E1,-5.636984861E0,6.828102450E0,-1.109289461E0,8.923514134E0
1.376437867E1,-5.057773712E0,6.218375267E0,-1.628664152E0,8.179352835E0
1.377436967E1,-4.552643569E0,5.863418872E0,-2.108122387E0,7.716892142E0
1.378436067E1,-3.781174215E0,5.610354302E0,-1.995483671E0,7.053744319E0
1.379435167E1,-3.230309490E0,5.554451412E0,-2.287151851E0,6.820402736E0
1.380434167E1,-3.083911290E0,5.765790251E0,-2.595050440E0,7.034851302E0
1.381433267E1,-3.434232013E0,6.474689135E0,-2.676346618E0,7.802459877E0
1.382432367E1,-4.067516458E0,7.221613632E0,-2.656507015E0,8.703644243E0
1.383431367E1,-4.812777715E0,7.744943526E0,-2.544492490E0,9.466859119E0
1.384430467E1,-5.440978006E0,8.255672670E0,-2.082466851E0,1.010430805E1
1.385429567E1,-5.720322302E0,8.717134929E0,-1.024804942E0,1.047667666E1
1.386428567E1,-5.742342331E0,8.921666440E0,1.722852856E-1,1.061132931E1
1.387427667E1,-5.056331204E0,9.158207948E0,7.743868223E-1,1.048994438E1
1.388426767E1,-3.533729404E0,9.534380381E0,4.595005184E-1,1.017854574E1
1.389425867E1,-2.500107153E0,9.735578393E0,-5.178243019E-1,1.006479828E1
1.390424867E1,-2.388948952E0,9.661011191E0,-1.609591412E0,1.008131930E1
1.391423967E1,-2.686626023E0,9.160150977E0,-2.563751464E0,9.884287879E0
1.392423067E1,-3.215119008E0,8.254932997E0,-3.065515072E0,9.374342200E0
1.393422067E1,-3.795693728E0,7.491369663E0,-2.745991634E0,8.835631294E0
1.394421167E1,-4.021374618E0,7.163810982E0,-1.996573884E0,8.454463252E0
1.395420267E1,-3.997608025E0,7.055020611E0,-1.461382914E0,8.239528249E0
1.396419267E1,-4.491581973E0,7.133599588E0,-1.639175399E0,8.587749862E0
1.397418367E1,-5.919660316E0,7.408680679E0,-1.615390388E0,9.619792812E0
1.398417467E1,-8.412393837E0,8.015845027E0,1.052918355E0,1.166750953E1
1.399416567E1,-1.085505414E1,9.721153897E0,5.705497856E0,1.564882549E1
1.400415567E1,-9.754618097E0,1.175540841E1,5.972868224E0,1.640174856E1
1.401414667E1,-3.633959743E0,8.676036605E0,3.361983816E0,9.989104553E0
1.402413767E1,3.837658026E0,4.030035514E-1,-1.258119226E0,4.058681432E0
1.403412767E1,9.525631192E0,-1.493062309E1,-3.687634259E-1,1.771432025E1
1.404411867E1,1.303456285E1,-3.639440339E1,7.192294523E0,3.932151481E1
1.405410967E1,3.332056656E1,-6.897320854E1,7.906115009E0,7.700694973E1
1.406409967E1,2.308815902E1,-3.784455497E1,-5.371833512E0,4.465568299E1
1.407409067E1,5.831526988E0,1.599557531E1,4.236235819E0,1.754453848E1
1.408408167E1,-2.965686729E0,2.680526675E1,1.412445578E1,3.044368366E1
1.409407267E1,6.410203117E-1,1.195747415E1,1.282144353E1,1.754370284E1
1.410406267E1,1.262869474E1,-1.495810969E1,9.661426928E0,2.183053244E1
1.411405367E1,1.647934821E1,-3.383688272E1,9.597769461E0,3.884096713E1
1.412404467E1,2.901485471E0,-3.662245181E1,4.241757345E0,3.698128040E1
1.413403467E1,-6.172055379E0,-2.740023966E1,-6.516952225E0,2.883293373E1
1.414402567E1,4.413811666E0,-1.414059643E1,-1.421817846E1,2.053277379E1
1.415401667E1,1.222274127E1,-8.025361955E0,-1.006009594E1,1.774844695E1
1.416400767E1,7.524209381E0,-4.385673110E0,-2.958592595E0,9.197887017E0
1.417399767E1,1.266610991E0,-1.717179303E0,-1.902567029E-1,2.142243164E0
1.418398867E1,-1.377853684E0,-4.844377238E-1,-7.629400206E-1,1.647797972E0
1.419397967E1,-5.867353463E-1,4.000676644E-1,7.290466350E-1,1.017753162E0
1.420396967E1,-7.867943215E-1,2.585156951E0,2.401595895E0,3.615210175E0
1.421396067E1,-2.217667926E0,5.402281133E0,3.603542235E0,6.862084895E0
1.422395167E1,-2.921436755E0,7.277353384E0,3.533533815E0,8.601193302E0
1.423394167E1,-2.369101456E0,8.174491682E0,1.574822406E0,8.655346416E0
1.424393158E1,-1.637222137E0,9.369011182E0,2.494375420E-1,9.514256983E0
1.425392258E1,-2.384865549E0,9.881176987E0,-5.302268310E-1,1.017872206E1
1.426391358E1,-3.542725053E0,9.357331953E0,-1.478567588E0,1.011418431E1
1.427390358E1,-4.532258129E0,8.388278165E0,-2.597041417E0,9.881760898E0
1.428389458E1,-5.397305152E0,7.526449449E0,-3.652329941E0,9.955795208E0
1.429388558E1,-5.491453511E0,7.149718022E0,-4.207960439E0,9.948942683E0
1.430387558E1,-5.075390203E0,6.926670134E0,-3.815178113E0,9.396484922E0
1.431386658E1,-4.805661653E0,6.648469554E0,-3.229640568E0,8.816297949E0
1.432385758E1,-4.548626239E0,6.329699821E0,-2.568957240E0,8.206987376E0
1.433384758E1,-4.706796931E0,6.270862799E0,-1.776351956E0,8.039470372E0
1.434383858E1,-4.908297830E0,6.483701448E0,-9.250787790E-1,8.184469610E0
1.435382958E1,-4.870515461E0,7.576491090E0,-3.449377763E-1,9.013552028E0
1.436382058E1,-5.477545323E0,8.375568073E0,-7.234724844E-1,1.003379568E1
1.437381058E1,-5.180996765E0,8.966249705E0,-1.095474391E0,1.041328120E1
1.438380158E1,-5.457552524E0,9.133430956E0,-1.284389450E0,1.071700037E1
1.439379258E1,-6.480126461E0,8.606729558E0,-1.076008717E0,1.082707843E1
1.440378258E1,-5.451932180E0,7.760607632E0,-4.362022877E-4,9.484228777E0
1.441377358E1,-3.089878666E0,6.027705751E0,6.796245065E-1,6.807530849E0
1.442376458E1,-3.141749901E-1,2.808129410E0,1.024663732E0,3.005699997E0
1.443375458E1,3.052078171E0,-2.064178222E-1,-2.732640687E-1,3.071231468E0
1.444374558E1,6.760972906E0,-1.583003830E0,-3.464606836E-1,6.952459333E0
1.445373658E1,9.135679795E0,-3.254509361E0,3.065984019E0,1.017117174E1
1.446372758E1,7.847209573E0,-4.072271706E0,3.458999941E0,9.493512287E0
1.447371758E1,4.435184701E0,-2.840708926E0,2.128241194E0,5.680660271E0
1.448370858E1,1.586195825E0,-3.243041217E0,2.888357302E0,4.623412315E0
1.449369958E1,5.266850263E-1,-4.152090878E0,5.575378597E0,6.971520801E0
1.450368958E1,3.235366162E0,-6.234329980E0,6.723648959E0,9.723266932E0
1.451368058E1,7.663416383E0,-1.040226681E1,6.865068548E0,1.463093543E1
1.452367158E1,1.189432890E1,-1.456351852E1,7.445971881E0,2.022408537E1
1.453366158E1,1.561110919E1,-1.664428647E1,7.429697326E0,2.399873756E1
1.454365258E1,1.441360761E1,-1.537385257E1,6.388494744E0,2.202090580E1
1.455364358E1,1.053112541E1,-1.327008518E1,5.990301697E0,1.796895873E1
1.456363458E1,8.708367614E0,-1.298757579E1,7.759320075E0,1.745622638E1
1.457362458E1,9.251284511E0,-1.283072774E1,9.036220411E0,1.821722039E1
1.458361558E1,1.086273388E1,-1.243626989E1,9.400575036E0,1.900080543E1
1.459360658E1,1.151840556E1,-1.195343489E1,8.715181375E0,1.874867085E1
1.460359658E1,1.119459494E1,-1.157159534E1,8.025190047E0,1.798956502E1
1.461358758E1,9.973019203E0,-1.132861078E1,7.938286389E0,1.705329660E1
1.462357858E1,7.512613767E0,-1.202012122E1,8.327068927E0,1.643967021E1
1.463356858E1,5.420108709E0,-1.249727623E1,8.385729364E0,1.599624796E1
1.464355958E1,4.242804874E0,-1.131695845E1,7.061516283E0,1.399785534E1
1.465355058E1,3.511612311E0,-8.747147518E0,3.550273224E0,1.007216217E1
1.466354158E1,2.196833127E0,-6.099907755E0,-2.936540990E0,7.117459054E0
1.467353158E1,5.388998598E-1,-2.726797564E0,-6.721170909E0,7.273236997E0
1.468352258E1,-5.514441839E-1,5.893443739E-1,-4.594197392E0,4.664554336E0
1.469351358E1,-1.495355237E0,3.692681576E0,-3.201526279E0,5.110944631E0
1.470350358E1,-2.886690553E0,7.107751971E0,-1.760817804E0,7.871060905E0
1.471349458E1,-4.566221388E0,1.040563013E1,7.404240011E-1,1.138752580E1
1.472348558E1,-6.181429635E0,1.359497988E1,1.913485973E0,1.505639328E1
1.473347558E1,-7.535226704E0,1.595683400E1,4.425506097E-1,1.765208327E1
1.474346658E1,-7.371557291E0,1.674958546E1,-3.400705540E-1,1.830311772E1
1.475345758E1,-6.063747404E0,1.610553454E1,-1.207600159E0,1.725153830E1
1.476344858E1,-4.770454398E0,1.523481747E1,-2.285597223E0,1.612702245E1
1.477343858E1,-4.411220180E0,1.409872569E1,-3.248986666E0,1.512576755E1
1.478342958E1,-4.828397967E0,1.239980198E1,-2.353451675E0,1.351322503E1
1.479342058E1,-5.504147231E0,1.005648119E1,-4.886221375E-1,1.147463299E1
1.480341058E1,-5.947887164E0,7.980636018E0,2.404258132E-2,9.953315579E0
1.481340158E1,-5.374741917E0,6.294389071E0,-9.243728739E-1,8.328364164E0
1.482339258E1,-4.200986757E0,5.476433768E0,-1.904999471E0,7.160212254E0
1.483338258E1,-2.996268544E0,5.314850641E0,-2.871816698E0,6.743336983E0
1.484337358E1,-1.671159084E0,5.358381407E0,-3.870093993E0,6.817818676E0
1.485336458E1,-6.829986423E-1,5.891003112E0,-3.769722735E0,7.027176838E0
1.486335558E1,-2.806710291E-1,7.023893543E0,-2.781815770E0,7.559917705E0
1.487334558E1,-7.932458469E-1,7.823010287E0,-2.004352582E0,8.114564572E0
1.488333658E1,-2.221700166E0,8.291242452E0,-1.747099651E0,8.759738022E0
1.489332758E1,-4.117998979E0,8.557978397E0,-1.281820330E0,9.583317442E0
1.490331758E1,-5.624896327E0,8.884686309E0,-1.136066346E0,1.057675547E1
1.491330858E1,-6.525048864E0,9.077726287E0,-1.031766053E0,1.122701734E1
1.492329958E1,-7.018604736E0,9.202210000E0,-7.685700122E-1,1.159880085E1
1.493328958E1,-7.097209441E0,9.132826939E0,-4.618166006E-1,1.157549931E1
1.494328058E1,-6.027654880E0,8.789663208E0,-8.596786952E-1,1.069251374E1
1.495327158E1,-4.706868267E0,8.554416273E0,-1.597801086E0,9.893715933E0
1.496326258E1,-3.838929210E0,8.517907428E0,-2.286234423E0,9.618679341E0
1.497325258E1,-3.468477693E0,8.615001029E0,-2.875227964E0,9.721909076E0
1.498324358E1,-3.123683174E0,8.821116550E0,-3.078680078E0,9.851282393E0
1.499323458E1,-3.085413440E0,8.987462819E0,-2.679566095E0,9.872909321E0
1.500322458E1,-3.151367109E0,9.090838083E0,-2.168080613E0,9.862810211E0
1.501321558E1,-3.466036188E0,9.128105312E0,-9.814785361E-1,9.813206080E0
1.502320658E1,-3.637363115E0,8.788016047E0,1.836540270E-1,9.512800075E0
1.503319658E1,-3.801507030E0,8.269178569E0,4.091178386E-1,9.110331899E0
1.504318758E1,-3.702918589E0,8.328310876E0,1.208612459E0,9.194189045E0
1.505317858E1,-4.004277652E0,8.597295660E0,1.819266425E0,9.656990344E0
1.506316858E1,-4.350384871E0,8.098313572E0,1.211783842E0,9.272375710E0
1.507315958E1,-2.746674004E0,4.664718613E0,-3.227342905E-1,5.422912063E0
1.508315058E1,-3.996402329E-1,-3.517918825E-1,-1.877421078E0,1.951455802E0
1.509314158E1,4.781829572E-1,-6.220415946E0,1.164921917E0,6.346595666E0
1.510313158E1,7.437056047E-1,-1.787566330E1,5.907589324E0,1.884123266E1
1.511312258E1,1.458617181E1,-4.960310450E1,1.191264004E1,5.305784934E1
1.512311358E1,2.178880479E1,-6.751402885E1,2.625048995E1,7.564379901E1
1.513310358E1,-7.482214093E-2,-1.006779438E1,1.467468111E1,1.779641390E1
1.514309458E1,3.095304297E0,2.023378457E1,1.055196723E0,2.049635057E1
1.515308558E1,7.465389315E0,1.177632975E1,1.991429504E0,1.408473540E1
1.516307558E1,1.169110775E1,-7.561027544E0,-1.332325509E0,1.398664467E1
1.517306658E1,1.186189556E1,-2.148168096E1,4.884885578E0,2.502057734E1
1.518305758E1,1.487867058E1,-3.130115111E1,8.352736450E0,3.564975603E1
1.519304858E1,1.238840225E1,-2.645541147E1,2.227071710E0,2.929711854E1
1.520303858E1,4.701665415E0,-1.702527934E1,-4.300496135E0,1.817856049E1
1.521302958E1,3.106329807E0,-1.565371434E1,-8.366248196E0,1.801893910E1
1.522302058E1,1.448780702E0,-1.194595747E1,-8.954867515E0,1.499981725E1
1.523301058E1,-6.402151501E-1,-5.923480886E0,-6.421131563E-1,5.992479500E0
1.524300296E1,1.025199337E0,-1.929701033E0,2.595498337E0,3.392844142E0
1.525299396E1,4.874292470E0,3.698100775E-1,3.879659160E0,6.240772530E0
1.526298396E1,4.338396325E0,3.505283577E0,3.672968858E0,6.678277911E0
1.527297496E1,1.445082631E0,6.703321699E0,3.559913528E0,7.726303769E0
1.528296596E1,3.113694960E-1,8.505124830E0,1.827372567E0,8.704791200E0
1.529295696E1,-7.276918352E-1,9.438514695E0,1.558458388E-1,9.467807718E0
1.530294696E1,-2.405121181E0,1.035589371E1,-6.469534814E-2,1.063171331E1
1.531293796E1,-4.393335301E0,1.090689673E1,-5.201238656E-1,1.176997537E1
1.532292896E1,-6.481492370E0,1.105405243E1,-2.487831216E0,1.305339506E1
1.533291896E1,-8.405633286E0,1.082335873E1,-5.233976047E0,1.466950137E1
1.534290996E1,-9.686859977E0,1.094480306E1,-7.198754527E0,1.629251475E1
1.535290096E1,-1.044490939E1,1.172032511E1,-7.253531243E0,1.729381012E1
1.536289096E1,-1.033926774E1,1.224774864E1,-5.322602295E0,1.688898752E1
1.537288196E1,-7.953462253E0,1.197541925E1,-3.128942159E0,1.471252892E1
1.538287296E1,-4.483236534E0,1.127404340E1,-2.152208639E0,1.232215348E1
1.539286396E1,-1.487684274E0,1.071348370E1,-3.211937538E0,1.128310596E1
1.540285396E1,2.714133957E0,1.009147794E1,-5.000870948E0,1.158504037E1
1.541284496E1,6.217857789E0,9.947871498E0,-5.731308635E0,1.305640845E1
1.542283596E1,3.377856960E0,1.044144433E1,-3.967792780E0,1.166949257E1
1.543282596E1,-2.757223843E0,1.059651132E1,-1.428725776E0,1.104217337E1
1.544281696E1,-7.654800510E0,9.674748639E0,2.083279614E-1,1.233856283E1
1.545280796E1,-1.012346689E1,8.083137708E0,9.092616221E-1,1.298647195E1
1.546279796E1,-9.402706347E0,6.591846287E0,1.497496195E0,1.158040668E1
1.547278896E1,-6.001672193E0,4.465173608E0,1.266007266E0,7.586871480E0
1.548277996E1,-2.201918743E0,1.027486768E0,1.576888227E0,2.896679424E0
1.549276996E1,4.971867004E-1,-4.078922330E0,4.109676930E0,5.811561447E0
1.550276096E1,5.642946097E-1,-7.175171537E0,7.780918520E0,1.059925507E1
1.551275196E1,-5.215143335E-1,-4.226417760E0,9.589865779E0,1.049285995E1
1.552274296E1,2.731075972E0,-2.794003122E0,9.945861225E0,1.068575617E1
1.553273296E1,7.622398750E0,-6.009258370E0,9.122177989E0,1.332014565E1
1.554272396E1,1.028237550E1,-9.888794739E0,7.454529866E0,1.609613379E1
1.555271496E1,1.327883730E1,-1.138878448E1,5.552520077E0,1.835381189E1
1.556270496E1,1.794392721E1,-1.105135570E1,3.315658081E0,2.133332077E1
1.557269596E1,1.994982506E1,-1.260681563E1,2.510570745E0,2.373247324E1
1.558268696E1,1.666097091E1,-1.646925123E1,6.361260753E0,2.427529251E1
1.559267696E1,1.133936732E1,-1.808722843E1,1.018409784E1,2.365258828E1
1.560266796E1,6.797858312E0,-1.849395607E1,1.168467815E1,2.290783692E1
1.561265896E1,4.666538851E0,-1.761871092E1,1.136339587E1,2.147841533E1
1.562264996E1,5.429185342E0,-1.641705431E1,1.042965283E1,2.019339951E1
1.563263996E1,7.900504020E0,-1.605203369E1,9.197828681E0,2.011680396E1
1.564263096E1,1.122661312E1,-1.594916713E1,8.313551919E0,2.120207348E1
1.565262196E1,1.327865019E1,-1.478539463E1,7.305332311E0,2.117305659E1
1.566261196E1,1.216673196E1,-1.365182183E1,5.315648201E0,1.904357429E1
1.567260296E1,1.022139606E1,-1.182593869E1,4.007716399E0,1.613665251E1
1.568259396E1,7.481027108E0,-9.070396802E0,2.332467772E0,1.198658711E1
1.569258396E1,4.599379194E0,-6.194656037E0,2.388748831E0,8.076767507E0
1.570257496E1,1.555755805E0,-3.906459289E0,2.262652602E0,4.774976136E0
1.571256596E1,-6.376450065E-1,-2.490694597E0,6.319308150E-1,2.647543633E0
1.572255696E1,-1.259163392E0,-4.138331795E-1,-6.286771318E-1,1.466964650E0
1.573254696E1,-1.439557596E0,2.565046037E0,-2.765149744E-1,2.954360807E0
1.574253796E1,-1.926330990E0,5.601733752E0,6.155140261E-1,5.955588101E0
1.575252896E1,-2.471757512E0,8.391328658E0,6.970173419E-1,8.775523632E0
1.576251896E1,-3.402861993E0,1.160877193E1,2.117788419E-2,1.209725192E1
1.577250996E1,-4.662157533E0,1.558258881E1,-5.106385124E-1,1.627309247E1
1.578250096E1,-5.263768780E0,1.915246365E1,-1.151983491E0,1.989600944E1
1.579249096E1,-4.988214065E0,2.088543570E1,-2.640549379E0,2.163460665E1
1.580248196E1,-4.862710013E0,2.019112328E1,-3.425008907E0,2.104894520E1
1.581247296E1,-4.965150307E0,1.692180701E1,-3.357731429E0,1.795200910E1
1.582246296E1,-5.483486094E0,1.310934757E1,-2.926464776E0,1.450819801E1
1.583245396E1,-6.205280428E0,1.005498196E1,-1.852077491E0,1.195986449E1
1.584244496E1,-6.405530022E0,8.001936255E0,-9.135457309E-1,1.029059593E1
1.585243596E1,-5.948435048E0,6.835902636E0,-4.505979864E-1,9.072843155E0
1.586242596E1,-5.117289011E0,6.259808637E0,-6.415950930E-1,8.110702514E0
1.587241696E1,-4.168638498E0,5.899212018E0,-1.341752390E0,7.347009516E0
1.588240796E1,-3.469923125E0,5.310255314E0,-1.926149727E0,6.629421601E0
1.589239796E1,-2.935033870E0,4.838377410E0,-1.986020976E0,5.997382687E0
1.590238896E1,-2.543144706E0,4.607735158E0,-1.645732321E0,5.514276304E0
1.591237996E1,-2.418774722E0,4.641789926E0,-1.410031058E0,5.420781536E0
1.592236996E1,-2.644966658E0,5.173367318E0,-1.573584842E0,6.019613549E0
1.593236096E1,-2.873319725E0,6.023060138E0,-1.613369005E0,6.865579307E0
1.594235196E1,-3.403855435E0,6.899197576E0,-1.505565060E0,7.839125281E0
1.595234296E1,-4.240917685E0,7.595291643E0,-1.396819274E0,8.810501804E0
1.596233296E1,-5.258996868E0,8.219102429E0,-1.372297952E0,9.853623418E0
1.597232396E1,-6.205275165E0,9.025044043E0,-9.867704125E-1,1.099684390E1
1.598231496E1,-6.433649282E0,9.640431331E0,-6.746710378E-1,1.160969166E1
1.599230496E1,-5.960906575E0,9.842204125E0,-9.841135839E-1,1.154858731E1
1.600229596E1,-5.333403271E0,9.902394193E0,-1.642977551E0,1.136670473E1
1.601228696E1,-4.570682521E0,9.925714059E0,-2.282171193E0,1.116329896E1
1.602227696E1,-3.889649421E0,9.905204365E0,-2.587146174E0,1.095151914E1
1.603226796E1,-3.501275311E0,9.802597425E0,-2.382684830E0,1.067834407E1
1.604225896E1,-3.424704852E0,9.782800507E0,-1.810693238E0,1.052190093E1
1.605224896E1,-3.708921925E0,9.790255122E0,-1.348008326E0,1.055567732E1
1.606223996E1,-4.037278460E0,9.819230415E0,-1.256767203E0,1.069094790E1
1.607223096E1,-4.675369316E0,1.013492276E1,-1.502382566E0,1.126201096E1
1.608222196E1,-5.359011737E0,9.887751596E0,-1.562368567E0,1.135463051E1
1.609221196E1,-6.091774278E0,9.769908566E0,-1.131296773E0,1.156895240E1
1.610220296E1,-6.252262221E0,9.997312045E0,5.930111629E-1,1.180629888E1
1.611219396E1,-4.067492777E0,8.049455407E0,3.794720167E0,9.784586399E0
1.612218396E1,3.593201727E-1,2.484135776E0,3.256455899E0,4.111513902E0
1.613217496E1,5.562533433E0,-3.978844895E0,-2.619817491E0,7.323689547E0
1.614216596E1,1.229835396E1,-1.555086299E1,-2.534951588E0,1.998761690E1
1.615215596E1,2.437423539E1,-4.552730049E1,8.929877685E0,5.240783488E1
1.616214696E1,2.441165289E1,-6.920984769E1,1.774786071E1,7.550442619E1
1.617213796E1,-6.884541530E0,-2.220818347E1,2.357072973E1,3.310860349E1
1.618212796E1,-4.407575026E0,1.704644159E1,9.668559362E0,2.008703384E1
1.619211896E1,-4.064943391E-1,1.419676829E1,1.839514164E0,1.432121782E1
1.620210996E1,2.451486093E-1,-4.849736795E0,9.146703551E0,1.035578248E1
1.621210096E1,-1.668436328E0,-1.354206608E1,6.910060533E0,1.529444900E1
1.622209096E1,8.351209742E-1,-2.512209895E1,4.643786166E0,2.556133863E1
1.623208196E1,4.357477836E0,-3.098159610E1,-2.101481412E0,3.135702687E1
1.624207546E1,5.933749182E0,-2.319715580E1,-4.483699634E0,2.436023355E1
1.625206546E1,9.567662732E0,-1.408268561E1,-6.745266116E-1,1.703869685E1
1.626205646E1,1.221586846E1,-6.304492475E0,3.184079064E0,1.411072029E1
1.627204746E1,1.289372564E1,-3.142984248E0,3.492042849E0,1.372300529E1
1.628203746E1,1.058205466E1,-2.203574089E0,2.845408626E0,1.117729707E1
1.629202846E1,6.206239371E0,-3.314874262E0,1.460727733E0,7.186064571E0
1.630201946E1,1.961257579E0,-2.679604686E0,1.512930505E0,3.649078141E0
1.631200946E1,-1.453729493E0,8.334843385E-1,1.948541639E0,2.569988346E0
1.632200046E1,-3.141956307E0,3.372690945E0,7.325426853E-1,4.667285339E0
1.633199146E1,-3.023722683E0,5.028150548E0,-8.508625558E-1,5.928673029E0
1.634198246E1,-3.004722156E0,6.611118709E0,-2.006036141E0,7.533885241E0
1.635197246E1,-2.585299038E0,7.268535783E0,-2.475453245E0,8.102052352E0
1.636196346E1,-2.518498400E0,7.436389464E0,-2.856235915E0,8.354687670E0
1.637195446E1,-2.821030707E0,7.552389452E0,-3.163156265E0,8.660390190E0
1.638194446E1,-2.914355192E0,7.771615015E0,-3.467779243E0,8.995385429E0
1.639193546E1,-3.380817698E0,7.855483968E0,-3.751562745E0,9.338778277E0
1.640192646E1,-4.957194586E0,7.455976467E0,-3.904666825E0,9.767895692E0
1.641191646E1,-6.206341113E0,7.273124678E0,-3.903873650E0,1.032749931E1
1.642190746E1,-6.916673734E0,7.705404069E0,-4.157676723E0,1.115795246E1
1.643189846E1,-7.091214291E0,8.383226756E0,-4.326554544E0,1.180181703E1
1.644188946E1,-7.066755388E0,8.733263889E0,-4.087358985E0,1.195472431E1
1.645187946E1,-7.324502993E0,8.395033454E0,-3.580666466E0,1.170239732E1
1.646187046E1,-7.764869083E0,7.649724542E0,-3.325698627E0,1.139612868E1
1.647186146E1,-7.711644802E0,6.737279404E0,-3.151741330E0,1.071419025E1
1.648185146E1,-6.777605896E0,5.749459562E0,-3.088727349E0,9.409169123E0
1.649184246E1,-5.050424346E0,5.243015842E0,-3.458526609E0,8.059615841E0
1.650183346E1,-2.783186358E0,5.626435899E0,-3.440337676E0,7.158130381E0
1.651182346E1,-9.666190070E-1,6.261024858E0,-2.854342587E0,6.948529066E0
1.652181446E1,1.683033317E-1,6.934281455E0,-2.631969175E0,7.418884488E0
1.653180546E1,-2.362421304E-1,7.630332837E0,-1.374567256E0,7.756753489E0
1.654179546E1,-4.640449744E-1,7.763066386E0,-1.426507196E-1,7.778231591E0
1.655178646E1,7.097993553E-1,5.928691340E0,4.372197032E-2,5.971189810E0
1.656177746E1,1.512080027E0,4.686940956E-1,3.990841627E-1,1.632583331E0
1.657176846E1,2.236110921E0,-6.190668236E0,2.297004117E0,6.971426911E0
1.658175846E1,3.273004104E0,-1.043329448E1,4.621818761E0,1.187128461E1
