"Time (s)","Linear Acceleration x (m/s^2)","Linear Acceleration y (m/s^2)","Linear Acceleration z (m/s^2)","Absolute acceleration (m/s^2)"
2.886833332E-3,5.212124710E-1,2.565307993E-1,-6.508500659E-1,8.723968702E-1
1.289683336E-2,1.637578342E-1,3.205122024E-2,-5.995974666E-1,6.223833472E-1
2.290783334E-2,-5.663132513E-2,3.485379070E-2,-4.938874090E-1,4.983439239E-1
3.291783336E-2,-1.505687267E-2,-6.075140119E-2,-2.478599632E-1,2.556403793E-1
4.292783333E-2,-5.354470789E-2,-1.245500788E-1,1.235399723E-2,1.361336811E-1
5.293883337E-2,8.766087234E-2,-2.214106679E-2,6.908251405E-2,1.137851006E-1
6.294883334E-2,4.856523366E-1,-8.045593321E-2,3.234130061E-1,5.890053665E-1
7.295883336E-2,7.007681845E-1,-1.984246784E-1,7.958347017E-1,1.078796215E0
8.296983334E-2,7.032267925E-1,-1.731269923E-1,7.841531342E-1,1.067425414E0
9.297983337E-2,7.448789947E-1,-2.897032231E-2,4.582229018E-1,8.750155565E-1
1.029898333E-1,8.290075640E-1,5.630430132E-2,1.586033857E-1,8.459188788E-1
1.130008334E-1,5.778525487E-1,-3.252045929E-2,-1.777518475E-1,6.054476588E-1
1.230108333E-1,3.059401735E-1,-3.389338553E-3,-5.712934345E-1,6.480640907E-1
1.330208334E-1,7.853738867E-2,1.165233135E-1,-9.781251580E-1,9.881673080E-1
1.430308333E-1,5.095029831E-2,2.893868887E-1,-1.258609661E0,1.292454635E0
1.530418334E-1,1.511465777E-1,4.028977168E-1,-9.191448784E-1,1.014888745E0
1.630518333E-1,3.600178917E-1,2.759821469E-1,3.699439788E-1,5.853525221E-1
1.730618334E-1,1.069042052E-1,6.392000735E-2,2.061166906E0,2.064926946E0
1.830728333E-1,-6.950351357E-1,-1.410822040E-1,2.363017135E0,2.467149774E0
1.930828334E-1,-1.067401616E0,-3.122556415E-1,1.857342324E0,2.164848795E0
2.030928333E-1,-7.594523026E-1,-3.244573188E-1,1.238898697E0,1.488929257E0
2.131038333E-1,-1.478168808E-1,-2.315640655E-1,6.514552528E-1,7.070118054E-1
2.231138333E-1,5.518413560E-1,-8.528310210E-2,6.576796138E-1,8.627540577E-1
2.331238334E-1,7.201632527E-1,-3.393285424E-2,5.153542918E-1,8.862147568E-1
2.431338333E-1,1.044868347E0,-4.230232483E-1,1.272762262E0,1.700183021E0
2.531448333E-1,1.167806202E0,-6.933929452E-1,1.625440582E0,2.118164816E0
2.631548333E-1,9.885451886E-1,-8.234098783E-1,1.662492049E0,2.102166794E0
2.731648334E-1,-9.933352277E-2,-1.016740462E0,-7.849518639E-1,1.288323618E0
2.831758333E-1,-2.509937199E0,-5.037779742E-1,-1.142443027E0,2.803346761E0
2.931858333E-1,-3.246372668E0,-2.554706991E0,-1.889761627E-1,4.135356732E0
3.031958333E-1,-6.351169628E-1,-1.239756776E0,1.886045721E0,2.344683109E0
3.132068333E-1,-3.282188326E-2,9.074349520E-1,2.225015829E0,2.403166850E0
3.232168333E-1,-6.653616858E-1,1.591112164E-1,-5.458486909E-1,8.751990319E-1
3.332268333E-1,-1.104135287E0,8.265837470E-1,-1.027396136E0,1.719854134E0
3.432378334E-1,-5.224987122E-1,1.017031654E0,-3.690522784E-1,1.201481533E0
3.532478333E-1,-9.188022316E-3,-1.674043223E-1,-5.543832868E-1,5.791799855E-1
3.632578333E-1,4.660999784E-1,-1.136361338E0,-6.465880305E-1,1.388035433E0
3.732678333E-1,-2.540922180E-1,-2.552076913E0,-1.949817794E0,3.221715204E0
3.832788334E-1,-9.807175210E-1,-2.962517538E0,-3.812889805E0,4.927113322E0
3.932888333E-1,-1.353250062E0,-2.954067434E0,-4.371350940E0,5.446697089E0
4.032988333E-1,-1.705231394E0,-3.875016471E0,-2.591164380E0,4.963637739E0
4.133098333E-1,-4.179875677E0,-5.211086537E0,-1.286037195E0,6.802990169E0
4.233198334E-1,-2.790506779E0,-6.718258411E0,-1.100592166E0,7.357528612E0
4.333298333E-1,-1.278431137E0,-4.912787322E0,8.673876643E-1,5.149973476E0
4.433408334E-1,1.434277853E0,-1.537086815E-1,2.914390860E0,3.251838465E0
4.533508333E-1,3.565003529E-1,1.126994684E0,3.500121070E0,3.694327682E0
4.633608334E-1,-3.608282281E0,1.508584562E0,3.855199088E0,5.491638044E0
4.733708333E-1,-1.146462404E0,2.382009476E0,3.552700403E0,4.428320826E0
4.833818334E-1,1.388488015E0,5.332465378E0,-2.869018221E-1,5.517734919E0
4.933918333E-1,-9.448097697E-1,3.112220292E0,-2.275079105E0,3.969202134E0
5.034018334E-1,4.630332307E0,1.919660779E0,-5.025260854E-1,5.037619204E0
5.134128333E-1,3.212132251E0,2.733400825E0,-1.183097548E0,4.380524338E0
5.234228334E-1,2.266595380E0,8.344274944E-1,-3.849541322E0,4.544523325E0
5.334328333E-1,-2.380234846E-1,-9.676066017E-1,-2.778568227E0,2.951839953E0
5.434438334E-1,8.703989804E-2,-3.217909884E-1,-2.262464322E0,2.286890944E0
5.534538333E-1,3.515960008E-2,9.972250879E-1,-1.300708444E0,1.639370773E0
5.634638334E-1,1.326397017E-1,1.434607928E0,-1.220810920E0,1.888404750E0
5.734738333E-1,1.169764727E-1,1.559758224E0,-1.565510130E-1,1.571953381E0
5.834848334E-1,-3.374907625E-1,5.422117227E-1,1.295414375E0,1.444296358E0
5.934948333E-1,-1.192803634E0,3.848953092E-1,1.589970202E0,2.024581476E0
6.035056250E-1,1.169831970E-1,2.044383059E0,-4.377979928E-1,2.094004356E0
6.135166250E-1,3.608529618E0,5.716004133E0,-3.552709758E-1,6.769077243E0
6.235266250E-1,6.476490662E0,7.501659594E0,1.996279185E0,1.010964681E1
6.335366250E-1,5.597716130E0,5.464037086E0,2.506997804E0,8.214326822E0
6.435476250E-1,2.964796783E0,9.561524910E-1,3.974217993E-1,3.140412654E0
6.535576250E-1,2.297077207E0,-2.162579845E0,-1.185635825E0,3.370318619E0
6.635676250E-1,2.167537699E0,-1.710719883E0,-3.055964815E0,4.118701634E0
6.735776250E-1,1.553384759E0,2.466162604E-1,-3.883034758E0,4.189484780E0
6.835886250E-1,1.735599786E-2,-1.511041562E0,-3.048266371E0,3.402275077E0
6.935986250E-1,-1.090466250E0,-2.537966412E0,-1.493926177E0,3.140414873E0
7.036086250E-1,-1.037418848E0,-4.418383604E0,5.810074139E-1,4.575578778E0
7.136196250E-1,7.962787977E-1,-4.394301846E0,1.121938012E0,4.604638264E0
7.236296250E-1,1.808524505E0,-4.567347854E0,1.554644834E0,5.152508891E0
7.336396250E-1,2.986440836E0,-6.154499114E0,2.589055290E0,7.314362276E0
7.436506250E-1,2.213770172E0,-6.753310715E0,2.647661932E0,7.584068677E0
7.536606250E-1,1.514316880E0,-5.274621212E0,1.257995118E0,5.630038745E0
7.636706250E-1,1.210439421E0,-1.799086515E0,-1.684339001E0,2.745700958E0
7.736806250E-1,8.858093172E-1,7.432816815E-1,-2.951026005E0,3.169492118E0
7.836916250E-1,4.965876532E-1,1.474426882E0,-2.224848599E0,2.714863756E0
7.937016250E-1,7.446440828E-1,1.307664877E0,-6.864420676E-1,1.653990614E0
8.037116250E-1,1.720016810E0,1.033324043E0,1.279253840E0,2.379644258E0
8.137226250E-1,1.870457629E0,-4.799938399E-1,4.680720688E0,5.063413077E0
8.237326250E-1,5.298268814E-1,-2.141236923E0,8.447168983E0,8.730422436E0
8.337426250E-1,6.299089940E-1,3.063303655E-1,5.294810479E0,5.340940146E0
8.437536250E-1,-2.900315443E-1,7.589564295E0,-7.112461903E0,1.040541776E1
8.537636250E-1,1.373209094E0,1.208261041E0,-2.490826160E0,3.090277159E0
8.637736250E-1,-4.579593386E-1,9.161347318E-1,5.885350024E0,5.973807371E0
8.737846250E-1,-3.177334301E0,1.114081693E0,-2.308791227E0,4.082541881E0
8.837946250E-1,-1.640532830E0,1.228814589E0,-4.198221316E0,4.671872802E0
8.938046250E-1,-4.702374682E-2,5.202678825E0,-3.457824066E0,6.247129378E0
9.038146250E-1,-5.909980396E-1,6.322793675E0,-2.015960913E0,6.662664403E0
9.138256250E-1,-1.438921419E0,5.258541369E0,2.523389304E-1,5.457694304E0
9.238356250E-1,-2.438811083E0,4.643622444E0,-6.610826933E-1,5.286592402E0
9.338456250E-1,-2.599195823E0,2.287857610E0,8.563966531E-1,3.567005270E0
9.438566250E-1,-2.148123920E0,1.309021431E0,5.999640870E-1,2.586103321E0
9.538666250E-1,-1.453618834E0,9.334495068E-2,4.531375784E-1,1.525468669E0
9.638766250E-1,-6.817708732E-1,2.930951929E-1,-1.659422261E0,1.817800472E0
9.738876250E-1,2.368343072E-1,3.847578996E-1,-2.221982878E0,2.267451663E0
9.838976250E-1,1.164778514E0,3.340426594E-1,-2.425909787E0,2.711702745E0
9.939076250E-1,1.715269894E0,1.095554790E0,-2.476023349E0,3.205165008E0
1.003917625E0,1.785301265E0,2.028482140E0,-1.767595750E0,3.228999092E0
1.013928625E0,2.319407285E0,3.104767431E0,-1.088046380E0,4.025304446E0
1.023938625E0,1.750594532E0,2.914980844E0,-8.895410103E-1,3.514680319E0
1.033948625E0,1.271637111E-1,2.348692626E0,-7.745601922E-1,2.476382675E0
1.043959625E0,-9.982099783E-1,1.656720262E0,-1.540591051E0,2.472764844E0
1.053969625E0,-1.659060903E0,-2.209054685E-1,-1.934007508E0,2.557668341E0
1.063979625E0,-1.719114000E0,-2.673190291E0,-3.801356757E-1,3.200906498E0
1.073990625E0,-5.939027171E-1,-3.639253812E0,9.081567907E-1,3.797583114E0
1.084000625E0,4.076839551E-2,-2.813191929E0,1.839929316E0,3.361703554E0
1.094010625E0,2.318293829E-1,-2.418213682E0,1.753004608E0,2.995751563E0
1.104020625E0,2.920019098E-1,-2.513978795E0,6.781700116E-1,2.620165846E0
1.114031625E0,3.412209937E-1,-2.267934977E0,5.565496802E-2,2.294135633E0
1.124041625E0,1.016566215E0,-1.699830029E0,-1.271032655E-1,1.984687441E0
1.134051625E0,1.540873764E0,-1.739388197E0,-3.304694259E-1,2.347120214E0
1.144062625E0,1.185056366E0,-2.071039930E0,9.425477743E-1,2.565533334E0
1.154072625E0,1.229274472E0,-3.141405500E0,2.010149365E0,3.926861942E0
1.164082625E0,1.345260719E0,-2.196933991E0,2.554035730E0,3.627580995E0
1.174093625E0,6.637510702E-1,-2.005337107E0,2.230454324E0,3.071948712E0
1.184103625E0,1.802828148E-1,-2.002214109E0,9.077182496E-1,2.205746053E0
1.194113625E0,-4.449105459E-1,-1.033861402E0,-1.424802732E-1,1.134511093E0
1.204123625E0,-1.516492921E0,-2.403243640E0,1.582928985E0,3.252844132E0
1.214134625E0,-1.409556118E0,-3.582415953E0,2.482446515E0,4.580730641E0
1.224144625E0,-9.671470106E-1,-4.417801221E0,1.965794726E0,4.931195583E0
1.234154625E0,-4.973442829E-1,-4.128165826E0,-1.226484473E0,4.335131899E0
1.244165625E0,-3.882153583E-1,-9.470992470E-1,-4.800464648E0,4.908377429E0
1.254175625E0,-2.881972727E-1,1.561636350E0,-6.211020640E0,6.410814546E0
1.264185625E0,5.052178511E-1,2.356412120E0,-5.276622714E0,5.800919792E0
1.274196625E0,-1.168041261E-1,2.621104463E0,-3.772063376E0,4.594811631E0
1.284206625E0,-1.654787757E0,2.785482559E0,-1.787075164E0,3.700118005E0
1.294216625E0,-2.632444261E0,3.908137439E0,2.187075001E-1,4.717110769E0
1.304226625E0,-4.797098406E0,5.080919915E0,1.729681819E0,7.198590105E0
1.314237625E0,-5.062599419E0,5.374028556E0,2.346090031E0,7.746885454E0
1.324247625E0,-1.996361923E0,5.154884269E0,2.473611957E0,6.056157930E0
1.334257625E0,9.031477734E-1,6.231062556E0,2.840216006E0,6.907144376E0
1.344268625E0,5.117493664E0,4.613750773E0,2.835853983E0,7.451007007E0
1.354278625E0,7.251284158E0,3.051066602E0,2.146875393E0,8.154704367E0
1.364288625E0,5.365138450E0,-1.035010380E0,8.722046006E-1,5.533235756E0
1.374299625E0,3.109289375E0,-4.256055542E0,-6.855603075E-1,5.315231145E0
1.384309625E0,7.403903796E-1,-6.836624182E0,-2.681535437E0,7.380937639E0
1.394319625E0,-1.075092824E0,-9.309583590E0,-3.094302669E0,9.869087101E0
1.404329625E0,-3.248905244E-1,-7.741069745E0,-3.049879618E0,8.326552728E0
1.414340625E0,-5.249980680E-1,-5.672487985E0,-2.937572731E0,6.409530128E0
1.424350625E0,-2.229380922E0,-4.141206871E0,-2.041966989E0,5.127315362E0
1.434360625E0,1.849978633E-1,2.202166665E-1,-1.572830844E0,1.598911021E0
1.444371625E0,3.416241592E0,1.040938872E-1,1.905089518E0,3.912915566E0
1.454381625E0,5.759426726E0,7.192192197E-2,3.406502470E0,6.691817993E0
1.464391625E0,5.311203148E0,1.262130269E0,3.302129670E0,6.380118498E0
1.474402625E0,3.849963783E0,3.528131572E0,2.818187791E0,5.933979773E0
1.484412625E0,1.802487255E0,4.482916984E0,1.748901617E0,5.138498016E0
1.494422625E0,1.352081642E-1,3.667597021E0,-1.630203724E-1,3.673707228E0
1.504432625E0,-8.382677995E-1,3.741446185E0,-2.435833681E0,4.542510119E0
1.514443625E0,-7.365804069E-1,4.206213875E0,-3.781208421E0,5.703711334E0
1.524453625E0,-2.762880659E-1,4.047467818E0,-4.905150273E0,6.365440286E0
1.534463625E0,-3.967343129E-2,3.490278452E0,-5.166224944E0,6.234861492E0
1.544474625E0,2.362475391E-1,3.144843078E0,-4.470942471E0,5.471304914E0
1.554484625E0,6.729322220E-1,2.846546202E0,-5.098479103E0,5.877937752E0
1.564494625E0,1.419833476E0,2.909835294E0,-5.714964498E0,6.568400700E0
1.574505625E0,2.107562662E0,2.513763033E0,-5.987502050E0,6.827225334E0
1.584515625E0,2.194168258E0,1.821197176E0,-5.345629799E0,6.058621250E0
1.594525625E0,4.780621391E-1,1.052440345E-2,-2.028030151E0,2.083641155E0
1.604535833E0,9.980719840E-1,2.352801465E0,4.690759188E-1,2.598433112E0
1.614545833E0,1.000828508E0,1.633659428E0,3.307788606E0,3.822560175E0
1.624555833E0,-2.209492349E0,-3.905827789E0,7.780133239E0,8.981526617E0
1.634565833E0,-4.569171016E0,-6.734063435E0,8.756477920E0,1.195411392E1
1.644576833E0,-4.981007956E0,-6.279397395E0,5.047938695E0,9.472220277E0
1.654586833E0,-2.884778221E0,-3.637121918E0,7.049397343E-1,4.695480940E0
1.664596833E0,-1.437230697E0,-2.441777376E0,-2.236456784E0,3.609660341E0
1.674607833E0,-1.008291236E0,-2.122039345E0,-3.922159647E0,4.571984088E0
1.684617833E0,1.147714073E0,-1.489381721E0,-3.735284097E0,4.181848011E0
1.694627833E0,1.896129829E0,-1.290711460E0,-1.977314618E0,3.028368785E0
1.704637833E0,6.430458603E-1,-1.329687830E0,-4.187597510E-1,1.535232045E0
1.714648833E0,1.679391379E0,-1.596848867E0,5.017858279E-1,2.371090619E0
1.724658833E0,2.172372908E0,-2.106851787E0,1.525298828E-1,3.030064994E0
1.734668833E0,1.704092942E0,-1.772319716E0,-5.092135459E-1,2.510846145E0
1.744679833E0,1.341673452E0,-9.491972280E-1,-1.002601018E0,1.925168001E0
1.754689833E0,1.939663227E0,-3.139194667E-1,-1.529663190E0,2.490122153E0
1.764699833E0,2.846880078E0,7.747537351E-1,-1.238832623E0,3.199949343E0
1.774710833E0,2.647185969E0,1.881153941E0,-5.053187156E-1,3.286591046E0
1.784720833E0,2.093213449E0,1.999472349E0,-9.748477936E-2,2.896365913E0
1.794730833E0,1.060460167E0,1.086854133E0,6.133086026E-2,1.519733249E0
1.804740833E0,1.682033443E0,8.901473665E-1,6.882345316E-1,2.023676261E0
1.814751833E0,5.431406114E0,-9.970701367E-1,3.585382830E0,6.584017867E0
1.824761833E0,2.658116461E0,-4.802421711E0,8.514582117E0,1.013049584E1
1.834771833E0,1.161936767E0,-3.446792125E0,4.888404433E0,6.093190535E0
1.844782833E0,5.386719646E-1,-2.418016630E-1,-2.070273945E-1,6.256963095E-1
1.854792833E0,-1.858632805E0,-3.637266344E-1,-9.401650339E-1,2.114408489E0
1.864802833E0,-5.211886436E0,-1.640788938E0,-9.530563903E-1,5.546554340E0
1.874813833E0,-5.319082856E0,-1.324203726E0,-1.024657008E0,5.576385919E0
1.884823833E0,-4.966547207E0,-9.172831249E-1,-8.233591537E-1,5.117217974E0
1.894833833E0,-5.136963723E0,-4.072135466E-1,7.041807657E-1,5.200970074E0
1.904843833E0,-4.487436882E0,1.120239395E0,1.389352818E0,4.829319551E0
1.914854833E0,-2.762987151E0,2.454422565E0,1.880418361E0,4.146596355E0
1.924864833E0,-3.217040696E0,4.010571887E0,1.951234574E0,5.499213950E0
1.934874833E0,-2.541130341E0,2.661334476E0,2.463817871E-1,3.687919276E0
1.944885833E0,-6.422081736E-1,-1.244635985E0,-2.346397156E0,2.732604927E0
1.954895833E0,3.095761842E0,-6.217494677E0,-5.422670374E0,8.811715805E0
1.964905833E0,4.623480540E0,-5.451832193E0,-3.248472988E0,7.851854769E0
1.974916833E0,3.341739294E0,-5.156057221E-1,7.317574042E-1,3.459557727E0
1.984926833E0,8.240369337E0,1.486111958E0,7.604447213E0,1.131104915E1
1.994936833E0,8.983355734E0,9.911030531E-1,1.631280196E1,1.864914136E1
2.004946833E0,-1.773265503E0,8.420996261E-1,2.338106242E0,3.052923701E0
2.014957833E0,-5.114208698E0,-1.696873677E-1,-4.195689764E0,6.617230313E0
2.024967833E0,-6.396988410E0,-4.227022362E-1,-4.717262570E0,7.959441189E0
2.034977833E0,-5.932261650E0,1.836464256E-1,-3.917730381E0,7.111544532E0
2.044988833E0,-2.529580336E0,6.282881750E0,-3.627826891E0,7.683391681E0
2.054998833E0,-8.315018401E-2,7.777607242E0,-3.008427244E0,8.339587690E0
2.065008833E0,1.562207330E0,4.589890040E0,4.910053164E-1,4.873260566E0
2.075019833E0,3.172855918E0,1.140483626E0,3.258256842E0,4.688705069E0
2.085029833E0,2.768771802E0,-2.990324557E-2,4.114354702E0,4.959325167E0
2.095039833E0,2.095122126E0,5.898975205E-1,2.899452978E0,3.625512844E0
2.105050833E0,2.802828032E0,4.531065881E-1,1.937142054E0,3.437101962E0
2.115060833E0,3.241469486E0,-6.832687837E-1,1.255926374E0,3.542785869E0
2.125070833E0,2.391860427E0,1.167636926E0,-1.310739927E0,2.966885817E0
2.135080833E0,5.002933992E-1,3.135723175E0,-2.385908400E0,3.971852491E0
2.145091833E0,-4.191944915E-1,3.924695585E0,-1.628816764E0,4.269895023E0
2.155101833E0,-7.533186465E-1,4.749452369E0,-7.718693036E-1,4.870376681E0
2.165111833E0,-1.396833307E-1,4.278176143E0,4.942896974E-1,4.308900654E0
2.175122833E0,6.739798969E-1,3.396651081E0,1.349333889E0,3.716475402E0
2.185132833E0,6.503834581E-1,2.649347100E0,1.229813293E0,2.992403621E0
2.195142833E0,-4.937234311E-1,9.500871742E-1,1.032854512E0,1.487688444E0
2.205153833E0,-1.616273902E0,-1.548201202E0,9.377004325E-1,2.426633551E0
2.215163833E0,-1.711937274E0,-5.042230643E0,1.994898072E0,5.686337785E0
2.225173833E0,-1.336768808E0,-8.750652339E0,2.843341928E0,9.297605096E0
2.235183833E0,-1.286327656E0,-8.047646279E0,1.577298701E0,8.301031301E0
2.245194833E0,1.049005691E0,-4.364099223E0,3.648118411E-1,4.503205819E0
2.255204833E0,3.118023069E0,-1.472433566E0,-2.805967110E0,4.445624803E0
2.265214833E0,1.304148361E0,9.579680514E-1,-4.358528581E0,4.649223282E0
2.275225833E0,-1.673768587E-1,2.093106737E0,-2.306973327E0,3.119493029E0
2.285235833E0,-9.717899191E-1,8.979060370E-1,2.254960444E-1,1.342184549E0
2.295245833E0,-1.685397639E0,-1.940062299E0,1.451736762E0,2.951600676E0
2.305256833E0,-2.681908489E0,-4.297127554E0,8.887562408E-1,5.142744988E0
2.315266833E0,-3.364701310E0,-3.940785368E0,-5.484355722E-1,5.210737548E0
2.325276833E0,-1.852640871E0,-2.284290808E0,-1.972064695E0,3.541087666E0
2.335286833E0,-4.590658510E-1,-1.324415395E0,-1.899839449E0,2.360975969E0
2.345297833E0,4.040805354E-1,-8.336381203E-1,-1.069901447E0,1.415246516E0
2.355307833E0,1.077461677E0,8.922149420E-2,-5.257909870E-1,1.202223067E0
2.365317833E0,6.238552985E-1,8.380171001E-1,1.542606586E-1,1.056060815E0
2.375328833E0,6.905668397E-1,4.353661358E-1,4.143215682E-1,9.154717878E-1
2.385338833E0,6.700425281E-1,4.812673634E-1,3.831256494E-1,9.095936058E-1
2.395348833E0,3.739633548E-1,6.749043417E-1,4.333428530E-1,8.849466026E-1
2.405358833E0,1.356464861E-1,8.398730063E-1,-1.075449139E-3,8.507571878E-1
2.415369833E0,-2.996421741E-1,1.057397615E0,2.470693465E-1,1.126462787E0
2.425379833E0,-1.388506141E-1,2.242927605E-1,9.536054438E-1,9.894190608E-1
2.435389833E0,3.622167371E-2,-6.980821198E-1,6.536957596E-1,9.570521416E-1
2.445400833E0,-5.332743998E-1,-9.029703104E-1,7.151670992E-2,1.051119216E0
2.455410833E0,-6.089419019E-1,-3.708713472E-1,-3.837913549E-1,8.097231627E-1
2.465420833E0,8.484792307E-2,3.702801937E-1,-3.819267509E-1,5.386786008E-1
2.475431833E0,2.576199163E-1,5.294057357E-1,-4.641864771E-1,7.497383142E-1
2.485441833E0,2.529922836E-1,4.234489256E-1,-7.110784337E-2,4.983677493E-1
2.495451833E0,5.153195009E-2,2.555233240E-3,3.277112943E-1,3.317480422E-1
2.505461833E0,-3.087272854E-1,1.124117269E0,1.318966229E0,1.760290909E0
2.515472833E0,-4.805181889E-1,2.332835562E0,1.563948777E0,2.849378049E0
2.525482833E0,-5.888426828E-1,1.349902239E0,1.049465574E0,1.808410836E0
2.535492833E0,-1.301720597E0,2.069645369E-1,-5.467364444E-1,1.426965862E0
2.545503833E0,-1.469938121E0,1.444443530E-1,-1.699154091E0,2.251378883E0
2.555513833E0,-1.872932317E0,3.971814787E-1,-2.533938850E0,3.175921077E0
2.565523833E0,-1.300016426E0,5.477461123E-1,-2.121991105E0,2.548119849E0
2.575534833E0,-1.541162324E-1,-3.547780555E-1,-6.483347400E-1,7.549551091E-1
2.585544833E0,8.597896461E-1,-8.178845519E-1,5.885706411E-1,1.324608914E0
2.595554833E0,7.598067901E-1,7.447171730E-1,7.632339893E-1,1.309364788E0
2.605565000E0,-7.547352076E-2,3.500116392E0,6.312934685E-1,3.557392649E0
2.615576000E0,-8.179342532E-1,6.121392179E0,9.407772374E-1,6.247040937E0
2.625586000E0,-9.827440929E-1,3.756056038E0,1.358524543E0,4.113311543E0
2.635596000E0,-2.598712405E-1,2.544732810E0,3.968750846E-1,2.588572574E0
2.645607000E0,-7.976870996E-1,2.199841227E0,1.153428484E0,2.608831808E0
2.655617000E0,2.500880447E-1,-3.001178743E0,-1.705954403E-1,3.016408574E0
2.665627000E0,-4.195033707E-1,-5.008742470E0,-1.448917235E0,5.230950713E0
2.675638000E0,2.379879628E-1,-1.634538850E0,-2.091071321E0,2.664757924E0
2.685648000E0,1.774439916E-1,1.466361818E0,-1.973625902E0,2.465137431E0
2.695658000E0,-7.534494048E-1,4.407186770E0,-1.169702893E0,4.621599949E0
2.705668000E0,-1.780253510E-1,8.092134234E0,-3.809884921E-1,8.103053852E0
2.715679000E0,6.695719734E-2,9.391825848E0,1.378607390E0,9.492704270E0
2.725689000E0,6.995907015E-1,1.046926187E1,2.067376649E0,1.069434044E1
2.735699000E0,-1.099078176E0,1.134796390E1,-1.064011985E-1,1.140156036E1
2.745710000E0,-5.612039469E0,1.930665824E0,-1.064757797E0,6.029607508E0
2.755720000E0,-1.860442957E0,-9.092724980E0,6.155942792E-1,9.301497292E0
2.765730000E0,1.387263900E0,-1.208829390E1,-2.333626691E-1,1.216987300E1
2.775741000E0,3.170933354E0,-6.707900653E0,-1.756476831E0,7.624694116E0
2.785751000E0,1.422601402E0,-1.188382262E-1,-1.835070280E0,2.324951656E0
2.795761000E0,-1.040146209E0,7.064681965E-1,-5.478374751E-1,1.371541960E0
2.805772000E0,-2.860426615E0,1.312699914E-2,-3.943202899E-1,2.887507788E0
2.815782000E0,-7.666168229E-1,-1.116666162E-1,1.290322473E0,1.505025871E0
2.825792000E0,2.238478312E0,-2.401695882E0,4.381780034E0,5.475301319E0
2.835802000E0,5.485327383E0,-6.122891405E0,3.535384751E0,8.948606651E0
2.845813000E0,5.905072097E0,-1.102542213E1,3.577924706E0,1.300889522E1
2.855823000E0,4.531211477E0,-9.835643549E0,3.661027674E0,1.143131161E1
2.865833000E0,1.790633780E0,-4.121074322E0,1.467621893E0,4.726895062E0
2.875844000E0,-7.062436634E-1,-2.100799919E0,-1.096458185E0,2.472723390E0
2.885854000E0,-2.365824968E0,-1.801073399E0,-2.428102493E0,3.838837699E0
2.895864000E0,-3.052738029E0,2.259399211E-1,-2.647731806E0,4.047312941E0
2.905874000E0,-2.466124597E0,1.330516965E0,-2.668642034E0,3.869586054E0
2.915885000E0,-9.642891839E-1,-1.326850176E-1,-2.322240115E0,2.517986913E0
2.925895000E0,5.674962527E-1,-1.078134765E0,-1.646894601E0,2.048582045E0
2.935905000E0,8.806446178E-1,-1.127408082E0,-1.066242698E0,1.784224598E0
2.945916000E0,2.945273953E-1,-1.027668031E0,-6.051838964E-1,1.228452489E0
2.955926000E0,3.587184576E-3,-8.387830853E-1,-6.458872417E-1,1.058650207E0
2.965936000E0,-5.062150937E-1,-7.594767147E-1,-9.331229398E-1,1.305288099E0
2.975947000E0,-8.446294970E-1,-5.486764044E-1,-1.475804194E0,1.786740833E0
2.985957000E0,-8.643183146E-1,-3.630156130E-1,-1.638763463E0,1.887954494E0
2.995967000E0,-7.458978720E-1,-7.161453384E-1,-1.182930464E0,1.571162711E0
3.005977000E0,-3.652118272E-1,-1.197805635E0,-1.093372317E-1,1.257009406E0
3.015988000E0,2.224848014E-1,-1.314694399E0,9.502853948E-1,1.637364706E0
3.025998000E0,7.953946256E-1,-1.447408068E0,1.022989089E0,1.942717016E0
3.036008000E0,8.217168170E-1,-1.854909883E0,7.166596010E-1,2.151629658E0
3.046019000E0,2.137404073E0,6.245995760E-3,4.071629682E-1,2.175848540E0
3.056029000E0,1.484593144E0,2.598027842E0,4.205007595E-1,3.021686013E0
3.066039000E0,-1.007158630E0,2.967543220E0,1.179591558E0,3.348450016E0
3.076050000E0,-2.555102847E0,1.959185618E0,9.256450818E-1,3.350190691E0
3.086060000E0,-1.926915566E0,1.923452114E0,1.134210002E0,2.949424344E0
3.096070000E0,-9.730583994E-1,1.290010378E0,1.583184947E0,2.262176828E0
3.106080000E0,1.049829637E0,1.614369464E-1,8.404214752E-1,1.354441734E0
3.116091000E0,2.776605901E0,-5.061700702E-1,-2.439810665E-1,2.832891673E0
3.126101000E0,1.909085797E0,-1.453812523E0,-3.791135824E-1,2.429383984E0
3.136111000E0,7.436603618E-1,-1.522961696E0,-1.311719921E0,2.143140735E0
3.146122000E0,3.195919968E-1,-1.041109611E0,-1.827343915E0,2.127259752E0
3.156132000E0,-2.434384997E-1,2.178514677E-1,-1.400976644E0,1.438560782E0
3.166142000E0,-1.369979385E0,1.661551816E0,-6.842430760E-1,2.259598756E0
3.176153000E0,-1.264350165E0,2.012417500E0,-4.002192535E-1,2.410099787E0
3.186163000E0,-6.969119458E-1,1.391048511E0,-3.017813779E-1,1.584857792E0
3.196173000E0,-8.359828538E-1,5.278953999E-1,-1.215057260E-1,9.961448321E-1
3.206183000E0,-2.086988211E-1,-9.213674051E-1,-8.304683447E-2,9.483511321E-1
3.216194000E0,3.590189680E-1,-1.071184180E0,5.206594706E-2,1.130946961E0
3.226204000E0,-1.204192402E-1,-2.825620186E-1,4.896417457E-1,5.780061651E-1
3.236214000E0,-1.772782230E-1,-2.826327699E-1,2.848061800E-1,4.386609296E-1
3.246225000E0,-3.296547626E-1,-1.515510589E-1,2.473084246E-1,4.390916110E-1
3.256235000E0,-8.417803681E-1,-3.221172631E-2,5.039691782E-1,9.816398097E-1
3.266245000E0,-1.447817958E0,8.354530960E-1,1.233988498E0,2.077711801E0
3.276256000E0,-8.232479835E-1,1.606943500E0,2.118949969E0,2.783873852E0
3.286266000E0,1.751625689E0,3.619607753E-1,-4.901318885E-1,1.854572032E0
3.296276000E0,2.775962159E-1,-1.531327307E-1,6.938595530E-1,7.628567176E-1
3.306286000E0,8.429309539E-2,-1.558937275E0,-6.289867419E-1,1.683156283E0
3.316297000E0,1.708181461E-1,-1.127075375E0,-8.759411176E-1,1.437619763E0
3.326307000E0,-3.064709911E-1,6.173156995E-1,1.163353255E0,1.352181178E0
3.336317000E0,3.980292519E-1,1.225823153E0,-6.310864770E-1,1.435040010E0
3.346328000E0,8.968310995E-1,-1.740251831E0,5.479000403E-1,2.032972432E0
3.356338000E0,1.793784552E0,-3.736798818E0,2.061427254E0,4.629342367E0
3.366348000E0,2.012651827E0,-4.089362533E0,1.831217549E0,4.911925388E0
3.376359000E0,2.310212831E0,-3.686143804E0,8.337180810E-1,4.429427199E0
3.386369000E0,1.251703807E0,-1.805662293E0,-1.791142488E-1,2.204373075E0
3.396379000E0,-1.542592334E-2,6.283540732E-1,-9.407674433E-1,1.131419543E0
3.406389000E0,-5.833502835E-1,2.103823514E0,-1.313485487E0,2.547864804E0
3.416400000E0,-5.436348985E-1,2.948409961E0,-1.580368636E0,3.389133403E0
3.426410000E0,-4.984514531E-1,3.244103072E0,-1.787961017E0,3.737574506E0
3.436420000E0,-1.273300936E0,3.400576317E0,-2.088153122E0,4.188746593E0
3.446431000E0,-2.517868947E0,3.892505493E0,-2.353896648E0,5.199239606E0
3.456441000E0,-3.051032981E0,4.047888232E0,-2.293697224E0,5.563744095E0
3.466451000E0,-2.646745966E0,3.196035451E0,-1.750230397E0,4.503688849E0
3.476462000E0,-2.139472380E0,1.432313481E0,-6.757084800E-1,2.661850094E0
3.486472000E0,-1.595787159E0,-3.199625641E-1,3.881467997E-1,1.673191751E0
3.496482000E0,-4.734937095E-1,-1.114286930E0,1.050338125E0,1.602823082E0
3.506492000E0,9.648041774E-1,-1.558922072E0,1.305963922E0,2.250916900E0
3.516503000E0,1.900952759E0,-2.210059236E0,1.247265478E0,3.170749815E0
3.526513000E0,1.944209876E0,-2.735475417E0,1.438988516E0,3.651501848E0
3.536523000E0,1.988685698E0,-2.525830516E0,1.894417034E0,3.731421512E0
3.546534000E0,4.530937973E-1,5.850048628E0,8.691434370E-1,5.931591124E0
3.556544000E0,-3.641761391E-1,5.617654551E0,1.563465359E0,5.842524355E0
3.566554000E0,-3.641154742E-1,-2.048003654E0,2.333696272E0,3.126185749E0
3.576564000E0,1.249931077E0,-6.154429532E0,1.537568187E0,6.465558483E0
3.586575000E0,2.657679967E0,-5.457692272E0,2.233665615E-1,6.074500832E0
3.596585000E0,9.470675258E-1,-1.114491583E0,-1.310908327E0,1.964054232E0
3.606595333E0,1.615693127E-1,3.182003303E0,-2.547720737E0,4.079476758E0
3.616606333E0,3.424250816E-1,6.541402357E0,-2.548482045E0,7.028652820E0
3.626616333E0,8.062936163E-1,4.353875951E0,-1.183969368E0,4.583462519E0
3.636626333E0,6.637396681E-1,-6.108165193E-1,4.864918506E-1,1.024851935E0
3.646637333E0,9.862481099E-1,-2.621345953E0,1.127336015E0,3.019110205E0
3.656647333E0,1.903160521E0,-3.189309399E0,1.237728523E0,3.914803482E0
3.666657333E0,1.375172151E0,-2.184113386E0,6.014592201E-1,2.650132623E0
3.676668333E0,-3.740751828E-1,-2.179591150E0,2.965853959E-1,2.231258102E0
3.686678333E0,-2.217931197E0,-1.659578381E0,-1.573846798E-1,2.774561070E0
3.696688333E0,-2.830743809E0,-7.051671910E-1,-7.278406468E-1,3.006679778E0
3.706698333E0,-2.494343845E0,-2.461145693E-1,-6.058516484E-1,2.578639140E0
3.716709333E0,-1.625695082E0,9.102518481E-1,-1.963758141E-1,1.873501104E0
3.726719333E0,-9.817146175E-1,1.082877442E0,6.611549065E-2,1.463133077E0
3.736729333E0,-1.646748421E-1,-1.781915581E-1,8.142700955E-2,2.559304454E-1
3.746740333E0,4.906731945E-1,-1.058832521E0,-9.292629004E-2,1.170692866E0
3.756750333E0,1.232514853E0,-9.702021807E-1,-2.719845517E-1,1.591967566E0
3.766760333E0,2.670439761E0,-7.753758788E-1,-2.519302100E-1,2.792118389E0
3.776770333E0,3.549890231E0,1.183903295E-1,-1.311577249E-1,3.554284636E0
3.786781333E0,3.104732055E0,1.367822785E0,2.186886428E-1,3.399724258E0
3.796791333E0,1.309171996E0,1.359975237E0,5.511589859E-1,1.966529987E0
3.806801333E0,-3.502850550E-1,8.559563577E-2,1.042143325E0,1.102764228E0
3.816812333E0,-5.686208184E-1,-9.848301601E-1,4.797886026E-1,1.234267873E0
3.826822333E0,-4.504861584E-1,-1.342196778E0,-5.241445573E-1,1.509687877E0
3.836832333E0,-6.988112676E-1,-1.576991723E0,-7.452742665E-1,1.879008732E0
3.846843333E0,-6.992265661E-1,-7.100864536E-1,-2.139152683E-1,1.019264590E0
3.856853333E0,-1.006967280E0,8.495068789E-1,-8.331190337E-1,1.558759880E0
3.866863333E0,-5.774845395E-1,1.729710470E0,-1.194064732E0,2.179719544E0
3.876873333E0,4.616251773E-1,1.605543677E0,-8.128022982E-1,1.857825578E0
3.886884333E0,9.607651401E-1,8.044821489E-1,-3.036751449E-2,1.253468535E0
3.896894333E0,7.026040640E-1,-5.340215278E-1,6.998139189E-1,1.126308565E0
3.906904333E0,9.233701495E-1,-1.433214537E0,1.047589422E0,2.001039715E0
3.916915333E0,2.285967790E0,-8.784880185E-1,3.043848215E0,3.906712414E0
3.926925333E0,1.721000166E0,-1.429659430E0,3.893488995E0,4.490548319E0
3.936935333E0,-1.597706361E-1,-7.790140164E-1,2.338260609E0,2.469787879E0
3.946946333E0,-1.133538449E0,4.399263793E-1,2.233642957E-1,1.236258971E0
3.956956333E0,-1.707654042E0,1.912834740E0,-1.439003865E0,2.940365826E0
3.966966333E0,-2.428160672E0,2.420684715E0,-2.616044868E0,4.312698632E0
3.976976333E0,-2.928796353E0,1.712027321E0,-3.307974547E0,4.738309955E0
3.986987333E0,-2.185644772E0,1.059633005E0,-2.976798778E0,3.842030210E0
3.996997333E0,-1.356268541E0,4.924355453E-1,-1.414582969E0,2.020643981E0
4.007007333E0,-1.192378980E0,-3.255051398E-1,2.739753824E-1,1.266010955E0
4.017018333E0,-4.700820784E-1,-8.793615925E-1,1.392340161E0,1.712560975E0
4.027028333E0,1.383603690E0,-3.830049044E-1,2.021317547E0,2.479269359E0
4.037038333E0,2.782756587E0,2.470776057E-1,2.098978511E0,3.494351493E0
4.047049333E0,2.615485289E0,2.152974039E-1,2.176384537E0,3.409364445E0
4.057059333E0,1.174784854E0,3.599487484E-2,1.710197727E0,2.075136466E0
4.067069333E0,6.309760560E-2,-3.771342999E-1,7.009044977E-1,7.984226343E-1
4.077079333E0,-3.219111487E-1,7.870761573E-2,-3.400981090E-1,4.748561890E-1
4.087090333E0,-1.036276302E0,3.698831677E-1,-1.118550793E0,1.569024540E0
4.097100333E0,-1.590483734E0,5.872767985E-1,-1.769628242E0,2.450737983E0
4.107110333E0,-1.043197213E0,5.791766506E-1,-2.095763127E0,2.411623748E0
4.117121333E0,1.864398415E-2,4.420845866E-2,-1.712357104E0,1.713029141E0
4.127131333E0,5.290670358E-1,-3.710292220E-2,-1.176634548E0,1.290642249E0
4.137141333E0,5.083991750E-1,4.050880837E-1,-6.430837941E-1,9.143975300E-1
4.147152333E0,8.509710217E-1,1.182207018E0,5.254892707E-2,1.457575556E0
4.157162333E0,1.232501551E0,1.413576663E0,1.094192973E0,2.171293927E0
4.167172333E0,1.446727452E0,2.808342249E0,1.536587462E0,3.512962786E0
4.177182333E0,1.472010082E0,2.681155368E0,1.841496370E0,3.570226417E0
4.187193333E0,9.464771032E-1,4.082104969E-1,1.807339275E0,2.080608077E0
4.197203333E0,1.459543964E-1,-1.038024620E0,1.493229774E0,1.824426747E0
4.207213333E0,-3.492923440E-1,-1.644625297E0,1.409306442E0,2.193841871E0
4.217224333E0,-5.088423939E-1,-9.889699888E-1,1.815992569E0,2.129509623E0
4.227234333E0,-8.252356714E-1,-1.422117691E0,1.987039415E0,2.579100284E0
4.237244333E0,-9.541173676E-1,-7.699970251E-1,1.409204700E0,1.867911469E0
4.247254333E0,-9.199769372E-1,-6.110047996E-2,5.172048990E-1,1.057162117E0
4.257265333E0,-8.322352271E-1,-6.859012002E-1,-7.743865299E-1,1.327686118E0
4.267275333E0,-6.910255538E-1,-1.381861365E0,-2.156335604E0,2.652704353E0
4.277285333E0,-5.596206379E-1,-2.339063432E0,-2.937634712E0,3.796589350E0
4.287296333E0,-5.433108531E-1,-2.824668260E0,-2.841321715E0,4.043148098E0
4.297306333E0,-9.152920018E-1,-2.026358432E0,-1.831280699E0,2.880534142E0
4.307316333E0,-9.424540727E-1,-1.291624795E0,-6.670527005E-1,1.732476145E0
4.317327333E0,-7.194545701E-1,-4.956830889E-1,3.410196302E-1,9.378757867E-1
4.327337333E0,-6.300548820E-1,-9.638140976E-2,9.741087055E-1,1.164107513E0
4.337347333E0,-5.415574193E-2,8.300058299E-1,1.128765805E0,1.402125089E0
4.347357333E0,1.532328935E0,1.913262756E0,1.125169183E0,2.697148870E0
4.357368333E0,3.205625469E0,2.369211091E0,1.043333892E0,4.120405496E0
4.367378333E0,4.023744202E0,1.624049529E0,6.312800199E-1,4.384811141E0
4.377388333E0,3.371095240E0,1.074162751E-1,-6.048780505E-1,3.426616236E0
4.387399333E0,2.300500460E0,-3.620853209E-1,-1.513865182E0,2.777624153E0
4.397409333E0,-1.860335514E-2,-1.415264170E0,-4.018966734E-2,1.415956907E0
4.407419333E0,-2.408432752E0,-7.191396976E-1,4.645141404E-2,2.513934756E0
4.417430333E0,-2.538629487E0,4.486966181E-1,4.182162523E-2,2.578316771E0
4.427440333E0,-1.607593126E0,7.751905221E-1,6.710440099E-1,1.906718665E0
4.437450333E0,-1.240331996E0,1.004884356E0,8.845293617E-1,1.824995403E0
4.447460333E0,-7.168404262E-1,1.206846600E0,9.586872590E-1,1.699829454E0
4.457471333E0,2.878910065E-1,1.299937196E0,1.103078987E0,1.729017408E0
4.467481333E0,1.056923698E0,1.100782785E0,7.998850679E-1,1.722970274E0
4.477491333E0,1.633837915E0,9.055980492E-1,5.449136845E-1,1.945884139E0
4.487502333E0,1.343647326E0,9.279233032E-1,4.656015398E-1,1.698003118E0
4.497512333E0,6.054169080E-1,-1.170421954E0,-2.930545548E0,3.213178238E0
4.507522333E0,5.784823303E-1,3.127922405E0,-3.950443214E0,5.071936708E0
4.517532333E0,-3.737810679E-1,1.701694706E0,4.181688899E-1,1.791742833E0
4.527543333E0,-1.229257954E0,1.799080083E0,4.564161122E-1,2.226225489E0
4.537553333E0,6.555795863E-1,1.381680102E0,3.476228178E-1,1.568332274E0
4.547563333E0,1.866581510E0,1.246653859E0,3.178768257E-1,2.267006408E0
4.557574333E0,2.196481124E0,1.878099355E0,-6.335563409E-1,2.958577387E0
4.567584333E0,2.537657095E0,2.668638818E0,-1.868864847E0,4.129647986E0
4.577594333E0,2.696708669E0,3.522263306E0,-2.428262122E0,5.057176424E0
4.587605333E0,2.869298010E0,3.809819432E0,-2.275621727E0,5.284510329E0
4.597615333E0,2.923134786E0,3.638522326E0,-1.377265454E0,4.866253366E0
4.607625458E0,2.047217350E0,3.348692218E0,-3.327627039E-1,3.938980765E0
4.617635458E0,7.263737266E-1,2.804798251E0,7.286080939E-1,2.987537745E0
4.627646458E0,-5.597184326E-1,2.342112755E0,6.137407118E-1,2.485046185E0
4.637656458E0,-1.472625209E0,2.018248928E0,-1.325879538E-1,2.501905935E0
4.647666458E0,-2.128956162E0,1.772647160E0,-7.384998286E-1,2.867074169E0
4.657677458E0,-2.422545153E0,1.645065007E0,-1.338325921E0,3.219639757E0
4.667687458E0,-2.900700189E0,1.608338061E0,-1.600886369E0,3.682886107E0
4.677697458E0,-3.347453778E0,1.272060596E0,-1.236379132E0,3.788432171E0
4.687707458E0,-3.316026163E0,6.407162565E-1,-3.666291557E-1,3.397199401E0
4.697718458E0,-2.543059045E0,-8.513604462E-2,2.043117721E0,3.263238801E0
4.707728458E0,-2.162467579E0,-9.078375328E-1,3.815083095E0,4.478313750E0
4.717738458E0,-2.006335372E0,-2.166830771E0,3.388687758E0,4.494857277E0
4.727749458E0,-1.542696633E0,-2.655559182E0,2.846466680E0,4.187395375E0
4.737759458E0,-1.903904287E0,-3.315836129E0,2.841700614E0,4.763914687E0
4.747769458E0,-2.254255562E0,-6.050836167E0,5.441838424E-1,6.480001737E0
4.757780458E0,-5.374967473E-1,-6.918950055E0,-1.930522567E0,7.203311044E0
4.767790458E0,-4.111985703E-1,-4.555741716E0,7.989056593E-1,4.643502676E0
4.777800458E0,-3.487129946E-1,-2.675506958E0,3.122649386E0,4.126848364E0
4.787810458E0,1.137135802E-1,-3.207272045E0,2.662389314E0,4.169873093E0
4.797821458E0,-6.571543146E-2,-3.545807120E0,2.275465460E0,4.213645655E0
4.807831458E0,-5.752097899E-2,-3.638994781E0,9.078923504E-1,3.750981231E0
4.817841458E0,1.147808433E-1,-3.286048073E0,-1.199064540E0,3.499863191E0
4.827852458E0,2.519071135E-1,-2.666106974E0,-2.700807275E0,3.803412090E0
4.837862458E0,5.066694224E-1,-2.083219680E0,-3.435909287E0,4.049937131E0
4.847872458E0,5.888327426E-1,-1.835789487E0,-3.449064937E0,3.951315728E0
4.857883458E0,3.705995978E-1,-2.138583457E0,-3.251904134E0,3.909701237E0
4.867893458E0,1.456697832E-1,-2.666647257E0,-2.788294485E0,3.860934267E0
4.877903458E0,-4.241568407E-2,-3.287052040E0,-1.978509789E0,3.836796996E0
4.887913458E0,-1.760014835E-1,-4.115116010E0,-7.939369878E-1,4.194698110E0
4.897924458E0,-2.217470655E-2,-5.192888832E0,2.941544160E-1,5.201260709E0
4.907934458E0,1.865235481E-1,-6.615034005E0,1.104425601E0,6.709189357E0
4.917944458E0,2.689638801E-1,-8.450114225E0,1.991814836E0,8.685856223E0
4.927955458E0,3.478260085E-1,-1.037743486E1,3.237705633E0,1.087634474E1
4.937965458E0,3.977742402E-1,-1.159442053E1,4.333849822E0,1.238430725E1
4.947975458E0,5.373184803E-1,-1.145316817E1,4.284692865E0,1.224019466E1
4.957985458E0,8.269626465E-1,-1.059104534E1,2.902281277E0,1.101259938E1
4.967996458E0,9.723365606E-1,-9.799455716E0,1.476199173E0,9.957606877E0
4.978006458E0,1.086616005E0,-8.875331933E0,4.704364928E-1,8.953969051E0
4.988016458E0,9.239213227E-1,-7.427680621E0,-1.592431442E-1,7.486616619E0
4.998027458E0,5.187148328E-1,-5.551369929E0,-7.912651026E-1,5.631418439E0
5.008037458E0,1.374501329E-2,-3.758522978E0,-1.443109195E0,4.026071044E0
5.018047458E0,-7.922192220E-1,-2.288590266E0,-1.777309729E0,3.004011747E0
5.028058458E0,-1.660772529E0,-7.727270901E-1,-1.602965055E0,2.434084944E0
5.038068458E0,-1.954238874E0,8.597564632E-1,-7.822785169E-1,2.273805275E0
5.048078458E0,-1.426107977E0,2.353999559E0,5.835473713E-1,2.813472129E0
5.058088458E0,-6.249126944E-1,3.841942281E0,1.711963001E0,4.252276294E0
5.068099458E0,6.230442166E-2,5.194675156E0,2.347547742E0,5.700834344E0
5.078109458E0,8.108372683E-1,6.489454524E0,2.789402533E0,7.109939773E0
5.088119458E0,1.162387003E0,7.879231850E0,2.820540125E0,8.449194322E0
5.098130458E0,1.188852817E0,9.136321819E0,2.618677869E0,9.578268173E0
5.108140458E0,1.167885725E0,1.007189445E1,2.324541287E0,1.040242794E1
5.118150458E0,1.212149293E0,1.070138464E1,1.886737447E0,1.093383360E1
5.128161458E0,1.347846065E0,1.116617864E1,1.197702724E0,1.131082341E1
5.138171458E0,1.661906012E0,1.140244241E1,-3.031839788E-2,1.152295724E1
5.148181458E0,2.063894048E0,1.142272172E1,-1.354433831E0,1.168643321E1
5.158191458E0,2.505809357E0,1.141474261E1,-2.250054191E0,1.190118369E1
5.168202458E0,3.102024210E0,1.123538745E1,-3.088352543E0,1.205796031E1
5.178212458E0,3.708784808E0,1.098260764E1,-3.890761853E0,1.222746021E1
5.188222458E0,4.453186231E0,1.087627837E1,-4.246439795E0,1.249626143E1
5.198233458E0,5.243954321E0,1.078299072E1,-4.067043126E0,1.266146854E1
5.208243458E0,5.745945970E0,1.089050464E1,-3.640650712E0,1.284030078E1
5.218253458E0,5.463157080E0,1.085550087E1,-2.854882577E0,1.248352270E1
5.228263458E0,4.669554260E0,1.066753160E1,-2.017847371E0,1.181831948E1
5.238274458E0,3.856130842E0,1.045584836E1,-1.093640850E0,1.119779265E1
5.248284458E0,3.085196216E0,1.023656608E1,-1.285142718E-1,1.069215772E1
5.258294458E0,2.234907272E0,1.008572195E1,7.458128681E-1,1.035725999E1
5.268305458E0,1.171880104E0,9.932545946E0,1.395756104E0,1.009836160E1
5.278315458E0,-9.521072410E-2,9.553876167E0,1.695044229E0,9.703545220E0
5.288325458E0,-1.402087615E0,8.912613780E0,1.733212368E0,9.187195393E0
5.298336458E0,-2.678251641E0,7.973014757E0,1.529012395E0,8.548676802E0
5.308346458E0,-3.568045835E0,6.788910903E0,7.185614079E-1,7.703024914E0
5.318356458E0,-3.440586767E0,5.345324575E0,-1.922829093E-1,6.359803836E0
5.328366458E0,-2.289868906E0,3.326797904E0,-5.748983891E-1,4.079410749E0
5.338377458E0,-8.494497223E-1,4.073357534E-1,-6.537656339E-1,1.146689474E0
5.348387458E0,-4.019910694E-1,-4.535702723E0,-6.392195155E-1,4.598129794E0
5.358397458E0,-1.664469577E0,-1.190154085E1,-3.969481748E-1,1.202392205E1
5.368408458E0,-4.203544621E0,-1.937638862E1,1.100809683E0,1.985764350E1
5.378418458E0,-5.408568644E0,-2.149679250E1,3.993793886E0,2.252365628E1
5.388428458E0,-3.380172458E0,-1.598050353E1,4.268056952E0,1.688248705E1
5.398439458E0,-1.506816802E0,-9.371504434E0,3.237971097E0,1.002896052E1
5.408449458E0,-8.592382537E-1,-4.981608465E0,2.544697435E0,5.659522799E0
5.418459458E0,6.271189950E-1,-2.231134356E0,1.706700215E0,2.878205061E0
5.428469458E0,8.590435414E-1,-2.937847551E0,7.863379464E-1,3.160258123E0
5.438480458E0,-7.686530426E-2,-6.869388471E0,-2.342757118E-1,6.873811995E0
5.448490458E0,7.182943363E-1,-1.077378954E1,-4.477125317E-1,1.080698544E1
5.458500458E0,6.746128580E-1,-1.158750210E1,7.116497067E-1,1.162891881E1
5.468511458E0,3.241171936E-1,-1.045450584E1,3.186236979E0,1.093406833E1
5.478521458E0,-1.491048762E-1,-9.378312348E0,4.962238979E0,1.061125772E1
5.488531458E0,-9.637945095E-1,-9.895612593E0,4.292800614E0,1.082959766E1
5.498542458E0,-6.556303109E-1,-1.103308432E1,2.078324391E0,1.124625417E1
5.508552458E0,8.268250908E-1,-1.235125489E1,-2.976680079E-1,1.238247727E1
5.518562458E0,2.308044537E0,-1.343357567E1,-2.349462412E0,1.383141347E1
5.528572458E0,2.800115216E0,-1.303219940E1,-3.091424962E0,1.368341239E1
5.538583458E0,2.031460566E0,-1.199753225E1,-2.779596752E0,1.248173747E1
5.548593458E0,9.002789833E-1,-1.142921564E1,-1.387490041E0,1.154827264E1
5.558603458E0,1.048834806E-1,-1.129922385E1,3.739988767E-1,1.130589825E1
5.568614458E0,-1.375775291E-1,-1.126778805E1,2.408074025E0,1.152305496E1
5.578624458E0,3.911853053E-2,-1.128410178E1,4.469637372E0,1.213713893E1
5.588634458E0,2.338293499E-1,-1.157427804E1,5.775673215E0,1.293742592E1
5.598644458E0,-1.887475365E-1,-1.154162017E1,6.362650636E0,1.318058970E1
5.608655500E0,-1.240702271E0,-1.091531321E1,7.880824047E0,1.352001450E1
5.618665500E0,-2.445902879E0,-8.999335590E0,6.811264223E0,1.154832465E1
5.628675500E0,-3.835059523E0,-5.674784186E0,3.475952774E0,7.680696895E0
5.638686500E0,-5.237943968E0,-2.526361443E0,2.805190015E-1,5.822134494E0
5.648696500E0,-5.565999078E0,-1.217156410E-2,-2.600351526E0,6.143478000E0
5.658706500E0,-4.687617187E0,1.787138899E0,-3.905535429E0,6.357737594E0
5.668717500E0,-3.219495649E0,3.281001341E0,-4.102119403E0,6.160966291E0
5.678727500E0,-1.378340757E0,4.870101478E0,-3.156576101E0,5.965038502E0
5.688737500E0,5.267240565E-1,6.408419132E0,-1.470213232E0,6.595968537E0
5.698747500E0,2.028643670E0,7.981564556E0,4.794944511E-1,8.249283776E0
5.708758500E0,2.946786189E0,9.467495835E0,2.708941922E0,1.027888090E1
5.718768500E0,3.377449409E0,1.111583879E1,4.863106454E0,1.259439720E1
5.728778500E0,3.970853505E0,1.289228723E1,6.182572766E0,1.483923696E1
5.738789500E0,4.667025632E0,1.405023239E1,5.384296267E0,1.575375526E1
5.748799500E0,5.659518276E0,1.471496141E1,2.930992860E0,1.603592702E1
5.758809500E0,6.667841964E0,1.482563166E1,2.731534101E-1,1.625835426E1
5.768820500E0,7.351644014E0,1.460376257E1,-2.142570089E0,1.648960756E1
5.778830500E0,7.717697840E0,1.429402386E1,-4.514928735E0,1.686020639E1
5.788840500E0,7.787917637E0,1.369794466E1,-6.639214581E0,1.709867011E1
5.798850500E0,7.283147390E0,1.274726458E1,-8.107704200E0,1.677116149E1
5.808861500E0,6.501099254E0,1.147646816E1,-8.631258627E0,1.576300220E1
5.818871500E0,5.338165244E0,1.032861528E1,-7.948989133E0,1.408413043E1
5.828881500E0,4.291672686E0,9.578664268E0,-6.234806528E0,1.220827900E1
5.838892500E0,3.559714138E0,8.868062675E0,-4.541955151E0,1.058033350E1
5.848902500E0,2.740376553E0,8.227343495E0,-2.940806826E0,9.156811095E0
5.858912500E0,1.734222182E0,7.483312200E0,-1.072619233E0,7.756158848E0
5.868922500E0,4.911982745E-2,6.602344378E0,8.429087345E-1,6.656114420E0
5.878933500E0,-1.564524582E0,6.081824071E0,2.273341897E0,6.678652901E0
5.888943500E0,-2.958387650E0,5.915125215E0,3.236253769E0,7.363022630E0
5.898953500E0,-3.956973385E0,6.177779219E0,3.711921254E0,8.221979922E0
5.908964500E0,-4.330063458E0,6.813993119E0,3.265134922E0,8.708677157E0
5.918974500E0,-3.455647148E0,7.751533338E0,1.939950618E0,8.705812696E0
5.928984500E0,-2.163970459E0,8.788798404E0,6.812702054E-1,9.076886836E0
5.938995500E0,-1.130463691E0,9.564870102E0,-2.243741099E-1,9.634055842E0
5.949005500E0,-4.332637694E-1,1.004001777E1,-6.170976714E-1,1.006829101E1
5.959015500E0,1.104789005E-1,1.066054768E1,-4.328005238E-1,1.066990154E1
5.969025500E0,8.951079981E-1,1.153570864E1,7.093842030E-2,1.157060173E1
5.979036500E0,2.291670287E0,1.263105468E1,3.939669719E-1,1.284330584E1
5.989046500E0,4.363911527E0,1.246674090E1,-1.338019820E-1,1.320913531E1
5.999056500E0,5.020973091E0,9.622579781E0,-1.674644902E0,1.098219686E1
6.009067500E0,4.641287066E0,5.581964316E0,-2.997371329E0,7.853922977E0
6.019077500E0,5.770157536E0,-9.012138069E-1,-3.422765331E0,6.769211684E0
6.029087500E0,4.742424601E0,-1.553679225E1,-3.125333258E0,1.654237626E1
6.039098500E0,3.375515004E-1,-3.749576622E1,2.009673840E0,3.755110137E1
6.049108500E0,-8.278926462E0,-4.300444679E1,1.450229233E1,4.613284676E1
6.059118500E0,-9.473741831E0,-2.367381146E1,1.464836162E1,2.940706772E1
6.069128500E0,-3.523299433E0,-4.746924033E0,6.155700132E0,8.534610172E0
6.079139500E0,-1.281929526E0,-1.625017244E-1,3.269147573E0,3.515263287E0
6.089149500E0,-5.195689283E-1,-5.395119463E0,1.853134960E0,5.728121426E0
6.099159500E0,-3.100504811E0,-1.378776258E1,2.638383570E-1,1.413453705E1
6.109170500E0,-1.695560246E0,-1.596703037E1,2.731646368E0,1.628750673E1
6.119180500E0,1.327304797E-1,-1.626300123E1,5.203862302E0,1.707580186E1
6.129190500E0,-6.206739016E-1,-1.781532472E1,4.392278417E0,1.835927941E1
6.139200500E0,-2.702057702E0,-2.023905408E1,2.828106130E0,2.061355404E1
6.149211500E0,-3.417188256E0,-2.190803887E1,1.885808909E0,2.225299122E1
6.159221500E0,-1.456617871E0,-2.213688252E1,8.961296529E-1,2.220284558E1
6.169231500E0,2.037583331E0,-2.061347936E1,6.314007649E-1,2.072356012E1
6.179242500E0,4.832229939E0,-1.764852821E1,1.583905763E0,1.836653891E1
6.189252500E0,5.804267269E0,-1.488759811E1,2.996408000E0,1.625756922E1
6.199262500E0,6.083024504E0,-1.326877307E1,4.472980810E0,1.526666575E1
6.209273500E0,7.028042142E0,-1.256082494E1,5.581702945E0,1.543771704E1
6.219283500E0,6.027566587E0,-1.138256187E1,6.117369295E0,1.425890882E1
6.229293500E0,3.208248822E0,-8.638530225E0,4.512059507E0,1.026039697E1
6.239303500E0,-4.116681017E-1,-5.486408533E0,2.568296505E0,6.071762195E0
6.249314500E0,-4.062107784E0,-3.028978161E0,1.519079145E0,5.289898845E0
6.259324500E0,-6.580906731E0,-9.425167841E-1,8.435099745E-1,6.701356606E0
6.269334500E0,-7.239949915E0,1.074707127E0,-7.163113993E-1,7.354248582E0
6.279345500E0,-6.248227057E0,3.411711169E0,-1.901230940E0,7.368500088E0
6.289355500E0,-4.646943077E0,5.505843508E0,-2.332772997E0,7.572992972E0
6.299365500E0,-3.382855160E0,7.115069761E0,-2.165747867E0,8.170580797E0
6.309376500E0,-2.234409674E0,8.586121631E0,-1.992693672E0,9.093123738E0
6.319386500E0,-1.144780744E0,9.850146983E0,-1.650080749E0,1.005279489E1
6.329396500E0,-2.224628744E-1,1.105712573E1,-1.083970286E0,1.111235847E1
6.339406500E0,8.790806338E-2,1.272845877E1,-6.500614227E-1,1.274535093E1
6.349417500E0,6.556751883E-1,1.467070500E1,-2.388271844E-1,1.468729157E1
6.359427500E0,1.846812951E0,1.647950959E1,1.008974995E0,1.661333756E1
6.369437500E0,3.752924854E0,1.783894747E1,2.036482885E0,1.834283932E1
6.379448500E0,6.340113128E0,1.846333304E1,1.426946176E0,1.957365261E1
6.389458500E0,8.489733789E0,1.744457616E1,-1.098629987E0,1.943182454E1
6.399468500E0,9.475177322E0,1.556911332E1,-3.590216138E0,1.857595022E1
6.409478500E0,9.328148500E0,1.400099533E1,-4.886402931E0,1.751910837E1
6.419489500E0,8.734730955E0,1.237838012E1,-5.513077099E0,1.612184352E1
6.429499500E0,8.202849509E0,1.073019504E1,-5.774765727E0,1.468917101E1
6.439509500E0,7.215914935E0,9.428829367E0,-5.868305390E0,1.324421609E1
6.449520500E0,5.786853091E0,8.448582839E0,-5.746415502E0,1.174255133E1
6.459530500E0,3.982768376E0,7.589611073E0,-5.489754310E0,1.017850886E1
6.469540500E0,2.156381066E0,6.488582119E0,-4.971422616E0,8.453799149E0
6.479551500E0,2.456057154E-1,5.046944668E0,-4.051629281E0,6.476702285E0
6.489561500E0,-1.670789979E0,3.530517821E0,-2.305055441E0,4.535347376E0
6.499571500E0,-4.002024427E0,2.331417612E0,5.944114248E-1,4.669585907E0
6.509581500E0,-6.247472767E0,2.155201828E0,3.093415062E0,7.296919051E0
6.519592500E0,-6.973128601E0,3.566510357E0,4.785632601E0,9.178605450E0
6.529602500E0,-5.839638830E0,6.154868073E0,5.242645129E0,9.973420207E0
6.539612500E0,-3.285298752E0,8.631065669E0,4.465154312E0,1.025797668E1
6.549623500E0,-1.251050088E0,1.002001561E1,3.276146398E0,1.061597732E1
6.559633500E0,-1.899264083E-1,1.057669861E1,2.168697056E0,1.079841991E1
6.569643500E0,4.831063858E-1,1.115593198E1,1.159983505E0,1.122647638E1
6.579654500E0,1.430416644E0,1.198098229E1,1.246326707E-1,1.206671297E1
6.589664500E0,3.007384978E0,1.303097149E1,-7.942365114E-1,1.339706662E1
6.599674500E0,4.174569037E0,1.396570270E1,-1.448438932E0,1.464806656E1
6.609684458E0,4.731705485E0,1.448319298E1,-2.110370934E0,1.538198886E1
6.619695458E0,5.813149189E0,1.501873128E1,-1.215247002E0,1.615028848E1
6.629705458E0,6.355505338E0,1.291307057E1,-1.918572612E0,1.451966806E1
6.639715458E0,5.540509311E0,7.668616312E0,-3.825132120E0,1.020473201E1
6.649726458E0,5.362600173E0,3.939041728E0,-3.767296433E0,7.646309749E0
6.659736458E0,6.058930467E0,-5.608511844E0,-3.265010084E0,8.878419587E0
6.669746458E0,5.919358014E0,-3.131733620E1,2.172584139E-1,3.187258300E1
6.679756458E0,1.311043690E-1,-5.423627914E1,1.238748073E1,5.563309125E1
6.689767458E0,-8.865858275E0,-4.736859338E1,1.720830538E1,5.117140662E1
6.699777458E0,-9.378288374E0,-2.365712117E1,5.325391417E0,2.599945131E1
6.709787458E0,-9.085233527E0,-9.898946675E0,-1.954741734E0,1.357761499E1
6.719798458E0,-1.031163029E1,-5.952637442E0,6.369471413E-1,1.192347741E1
6.729808458E0,-1.001548987E1,-5.366668081E0,3.525225506E0,1.189699031E1
6.739818458E0,-8.986361788E0,-7.984805667E0,1.560187994E0,1.212212879E1
6.749829458E0,-4.907002087E0,-1.191314290E1,9.794875592E-1,1.292134045E1
6.759839458E0,-2.574012743E0,-1.625900056E1,2.786334206E0,1.669563713E1
6.769849458E0,-1.393534454E0,-1.979770624E1,2.922303605E0,2.006068217E1
6.779859458E0,-9.563798015E-1,-2.175872204E1,2.050245477E0,2.187601777E1
6.789870458E0,-7.973580475E-1,-2.276815260E1,1.750811610E0,2.284928651E1
6.799880458E0,1.434048350E0,-2.184781957E1,8.119502127E-2,2.189498361E1
6.809890458E0,3.012660921E0,-1.888527864E1,-1.858840673E0,1.921419173E1
6.819901458E0,4.225195107E0,-1.580562266E1,-2.345468179E0,1.652789165E1
6.829911458E0,5.779917124E0,-1.400655837E1,-1.430318411E0,1.521962319E1
6.839921458E0,7.058190386E0,-1.282006710E1,8.281762362E-2,1.463485670E1
6.849931458E0,7.387668709E0,-1.169665792E1,1.406178620E0,1.390563892E1
6.859942458E0,6.061933597E0,-1.036198885E1,2.427692749E0,1.224791999E1
6.869952458E0,3.776715128E0,-8.064921293E0,3.317180403E0,9.503168863E0
6.879962458E0,1.129899434E0,-4.924185884E0,3.592004802E0,6.198933606E0
6.889973458E0,-2.593834219E0,-1.767798064E0,3.434784282E0,4.653045134E0
6.899983458E0,-3.845200349E0,9.349791384E-1,2.125390969E0,4.491885849E0
6.909993458E0,-3.211653071E0,3.589812096E0,2.986723403E-1,4.826040976E0
6.920004458E0,-2.615145566E0,5.534353362E0,-9.128772479E-1,6.188812353E0
6.930014458E0,-2.354403017E0,6.963588869E0,-9.011062912E-1,7.405860926E0
6.940024458E0,-1.645153008E0,8.187249137E0,6.161638711E-1,8.373603452E0
6.950034458E0,-1.527141286E0,9.223888552E0,2.490854811E0,9.675569141E0
6.960045458E0,-1.857118522E0,1.065761238E1,3.144358928E0,1.126590360E1
6.970055458E0,-8.379580432E-1,1.257737256E1,3.543988051E0,1.309398051E1
6.980065458E0,5.573694599E-1,1.452936961E1,4.275305745E0,1.515557591E1
6.990076458E0,2.344770606E0,1.639946589E1,4.635011249E0,1.720243471E1
7.000086458E0,5.281716224E0,1.777722075E1,3.972809399E0,1.896600428E1
7.010096458E0,7.935383831E0,1.772768431E1,2.046566994E0,1.953022130E1
7.020107458E0,9.098950510E0,1.678867293E1,-5.997984646E-1,1.910524005E1
7.030117458E0,9.389617354E0,1.526742388E1,-2.759180614E0,1.813483454E1
7.040127458E0,9.228963350E0,1.356315933E1,-4.459187229E0,1.700051194E1
7.050137458E0,8.370456437E0,1.264353849E1,-5.581305919E0,1.615780252E1
7.060148458E0,7.924720849E0,1.200398758E1,-6.101012878E0,1.562431683E1
7.070158458E0,6.960343664E0,1.120882706E1,-6.310926166E0,1.462572997E1
7.080168458E0,4.924664186E0,1.028671063E1,-6.165531056E0,1.296466375E1
7.090179458E0,2.595136394E0,9.390141850E0,-5.826943941E0,1.135177398E1
7.100189458E0,1.222490971E0,8.167408950E0,-5.162434779E0,9.739188158E0
7.110199458E0,-2.170471832E-2,6.659673988E0,-4.116169093E0,7.829085306E0
7.120209458E0,-1.915035924E0,4.639268607E0,-2.907326254E0,5.800234629E0
7.130220458E0,-4.384741064E0,2.386384363E0,-9.524194823E-1,5.082114461E0
7.140230458E0,-7.250152137E0,9.943324703E-1,1.432353242E0,7.456878629E0
7.150240458E0,-8.839823547E0,2.083610859E0,2.325071629E0,9.374959874E0
7.160251458E0,-8.324350557E0,5.426695597E0,1.642722028E0,1.007186045E1
7.170261458E0,-6.244913440E0,8.100515633E0,4.010833257E-1,1.023612061E1
7.180271458E0,-3.975336565E0,9.679303036E0,-7.541026119E-1,1.049099036E1
7.190282458E0,-2.509232025E0,1.089930353E1,-1.338342878E0,1.126420101E1
7.200292458E0,-1.370464411E0,1.147346736E1,-1.909578425E0,1.171175119E1
7.210302458E0,-5.757831459E-1,1.200197029E1,-2.203745998E0,1.221619063E1
7.220312458E0,-4.283392444E-2,1.248977893E1,-2.406725218E0,1.271962023E1
7.230323458E0,2.582565319E-1,1.284105158E1,-2.469970896E0,1.307899302E1
7.240333458E0,4.090256719E-1,1.251873551E1,-2.211438010E0,1.271913908E1
7.250343458E0,6.529357678E-1,1.104669664E1,-1.432434080E0,1.115830180E1
7.260354458E0,1.325313820E0,8.954640058E0,1.935349444E-1,9.054252651E0
7.270364458E0,2.474205742E0,6.326213712E0,1.441335004E0,6.944070893E0
7.280374458E0,4.599378609E0,-3.503534675E-1,2.141613338E0,5.085620791E0
7.290385458E0,5.760922444E0,-2.163514230E1,6.146141689E0,2.321729242E1
7.300395458E0,1.796002401E0,-5.401473048E1,1.512511669E1,5.612117148E1
7.310405458E0,-5.657964671E0,-5.061108963E1,2.329103401E1,5.599970735E1
7.320415458E0,-7.063958080E0,-2.528630046E1,1.347010323E1,2.950830689E1
7.330426458E0,-5.097902568E0,-9.714178169E0,-8.540019259E-1,1.100378059E1
7.340436458E0,-3.963992675E0,-7.576323860E0,-7.605384521E0,1.144359187E1
7.350446458E0,3.543446307E-1,-1.611440477E1,-9.453604020E0,1.868609724E1
7.360457458E0,3.471749795E0,-2.410078217E1,-8.309885130E0,2.572848496E1
7.370467458E0,6.721925200E0,-2.617034100E1,-3.897247293E0,2.729944253E1
7.380477458E0,8.182228718E0,-2.463498847E1,-7.075073929E-1,2.596790500E1
7.390487458E0,6.172967545E0,-2.193708784E1,1.220398691E0,2.282171607E1
7.400498458E0,1.895693335E0,-1.805097219E1,3.960196370E0,1.857725505E1
7.410508458E0,-1.257755821E-1,-1.613097110E1,5.507786538E0,1.704581358E1
7.420518458E0,-2.085299827E-1,-1.636338623E1,5.886570337E0,1.739125078E1
7.430529458E0,1.051647609E0,-1.596270811E1,6.703547986E0,1.734507332E1
7.440539458E0,2.819803961E0,-1.414078237E1,8.651786447E0,1.681566024E1
7.450549458E0,3.669286866E0,-1.096140564E1,9.447198395E0,1.492868505E1
7.460560458E0,1.191985828E0,-6.882179255E0,8.181513019E0,1.075743356E1
7.470570458E0,-1.327992137E0,-3.325401589E0,5.506145225E0,6.568066236E0
7.480580458E0,-1.599995985E0,-8.220957166E-1,2.194971666E0,2.837909289E0
7.490590458E0,-2.038027135E0,9.195857584E-1,6.626140791E-1,2.332005572E0
7.500601458E0,-2.888329820E0,2.205044079E0,-8.119297475E-1,3.723425635E0
7.510611458E0,-3.178299676E0,3.675060992E0,-2.185460585E0,5.327654277E0
7.520621458E0,-2.853322540E0,5.266029314E0,-3.038562332E0,6.716053551E0
7.530632458E0,-2.114540291E0,6.930024097E0,-3.211334690E0,7.925224610E0
7.540642458E0,-1.327297488E0,8.651677104E0,-2.103879063E0,9.002196535E0
7.550652458E0,-1.079541459E0,1.040649903E1,-5.469246516E-1,1.047662915E1
7.560663458E0,-4.255650330E-1,1.232865540E1,-1.314185838E-1,1.233669811E1
7.570673458E0,3.054503596E-1,1.436027983E1,1.051963212E0,1.440199859E1
7.580683458E0,1.689849709E0,1.607583536E1,1.595607503E0,1.624296888E1
7.590693458E0,3.480529389E0,1.680511998E1,-8.219203001E-1,1.718143461E1
7.600704458E0,4.887434379E0,1.687065323E1,-3.723385890E0,1.795465282E1
7.610714750E0,5.494130951E0,1.685395125E1,-5.283415425E0,1.849744918E1
7.620724750E0,6.220476172E0,1.736831210E1,-5.633119267E0,1.928949511E1
7.630735750E0,7.678005770E0,1.777498595E1,-5.458281087E0,2.011702588E1
7.640745750E0,8.820579776E0,1.582184284E1,-5.574150681E0,1.895269095E1
7.650755750E0,8.249549466E0,1.285725071E1,-5.958368883E0,1.639713761E1
7.660765750E0,6.886815512E0,1.041143057E1,-5.732881536E0,1.373652231E1
7.670776750E0,5.100101706E0,8.453000411E0,-5.293412409E0,1.120198502E1
7.680786750E0,3.233380448E0,7.142350531E0,-4.827265946E0,9.207085138E0
7.690796750E0,1.732223311E0,5.954955279E0,-3.800426465E0,7.273605109E0
7.700807750E0,5.142808892E-1,4.636782956E0,-1.516412668E0,4.905481464E0
7.710817750E0,-9.426391371E-1,3.139170109E0,2.272886984E0,3.988605365E0
7.720827750E0,-2.526336008E0,1.711490546E0,5.945451799E0,6.682811580E0
7.730838750E0,-3.343943110E0,1.415598046E0,8.421090401E0,9.170639939E0
7.740848750E0,-3.560748803E0,3.530664001E0,8.180745279E0,9.595265168E0
7.750858750E0,-2.638212832E0,6.775403835E0,5.159353881E0,8.915447074E0
7.760868750E0,-1.137365305E0,8.581983556E0,2.478332414E0,9.004786125E0
7.770879750E0,3.138449147E-2,9.768549673E0,7.015816053E-1,9.793761507E0
7.780889750E0,1.088125025E0,1.071747851E1,-4.464115262E-1,1.078182012E1
7.790899750E0,2.395597236E0,1.157743320E1,-2.100283025E0,1.200779057E1
7.800910750E0,3.662691792E0,1.253842777E1,-3.774195855E0,1.359676566E1
7.810920750E0,4.772747969E0,1.369048128E1,-4.588175929E0,1.520722720E1
7.820930750E0,5.786227439E0,1.501354948E1,-3.518270243E0,1.647013422E1
7.830940750E0,6.586583208E0,1.610786056E1,-1.438346638E0,1.746181810E1
7.840951750E0,6.477933755E0,1.597659525E1,5.438074279E-1,1.724850567E1
7.850961750E0,4.437099664E0,1.243556238E1,6.021965539E-1,1.321717465E1
7.860971750E0,2.358360413E0,6.595386191E0,-1.051262131E0,7.082805582E0
7.870982750E0,2.162929801E0,2.384854147E0,4.995375735E-1,3.258117925E0
7.880992750E0,1.321104702E0,-5.847778739E0,4.754615753E0,7.651679866E0
7.891002750E0,-2.571715372E0,-3.001203185E1,1.459152902E1,3.347011346E1
7.901013750E0,-8.169409867E0,-6.001035782E1,2.082618469E1,6.404461158E1
7.911023750E0,-6.729610780E0,-4.000605542E1,1.715440341E1,4.404594973E1
7.921033750E0,-2.155221270E0,-1.184453869E1,4.805901974E0,1.296282258E1
7.931043750E0,-3.375183906E-1,-6.467302932E0,-1.314967464E0,6.608257358E0
7.941054750E0,-6.276829590E-1,-9.056621346E0,-3.166567823E0,9.614755737E0
7.951064750E0,-1.992935893E0,-1.530478292E1,-5.453371764E0,1.636910007E1
7.961074750E0,-1.877836084E0,-2.036085158E1,-5.915233389E0,2.128568842E1
7.971085750E0,-1.114213694E0,-2.234606783E1,-3.640470033E0,2.266806656E1
7.981095750E0,-1.813007420E0,-2.290314610E1,-3.074009907E-1,2.297684906E1
7.991105750E0,-3.557959388E0,-2.266626136E1,1.432466970E0,2.298848496E1
8.001116750E0,-4.328824725E0,-2.192313872E1,2.323809215E0,2.246692734E1
8.011126750E0,-2.828535608E0,-2.038397147E1,3.179158632E0,2.082339925E1
8.021136750E0,3.130223942E-1,-1.777517890E1,3.370281015E0,1.809457825E1
8.031146750E0,2.890755245E0,-1.493726553E1,3.346115058E0,1.557802470E1
8.041157750E0,4.300121036E0,-1.266387159E1,3.052772528E0,1.371802117E1
8.051167750E0,4.814979191E0,-1.077396963E1,2.463467038E0,1.205533559E1
8.061177750E0,4.745532981E0,-9.233217784E0,1.994424887E0,1.057119315E1
8.071188750E0,3.817856430E0,-7.936571401E0,1.791302409E0,8.987433318E0
8.081198750E0,1.337932404E0,-6.157632637E0,1.854356151E0,6.568495988E0
8.091208750E0,-1.235084704E0,-3.951790997E0,2.544812332E0,4.859851451E0
8.101218750E0,-3.459407785E0,-1.645225221E0,2.370000319E0,4.504572095E0
8.111229750E0,-4.450906110E0,4.302743804E-1,1.621284966E0,4.756497259E0
8.121239750E0,-3.816772648E0,2.319139044E0,2.845013939E-2,4.466202947E0
8.131249750E0,-2.453722068E0,3.891758219E0,-9.613273499E-1,4.700072797E0
8.141260750E0,-2.000029297E0,5.214096099E0,-1.134882797E0,5.698673028E0
8.151270750E0,-1.660165442E0,6.775389217E0,-1.473046939E0,7.129650455E0
8.161280750E0,-5.733282655E-1,8.249359431E0,-1.315367998E0,8.373220963E0
8.171291750E0,7.101909725E-1,9.714459420E0,1.924020463E-1,9.742284721E0
8.181301750E0,7.527676195E-1,1.147249790E1,1.952083005E0,1.166171064E1
8.191311750E0,1.639383122E0,1.331632730E1,3.085410224E0,1.376705873E1
8.201321750E0,2.924396908E0,1.531480153E1,4.417505352E0,1.620523363E1
8.211332750E0,4.405685205E0,1.708028410E1,5.425216252E0,1.845478633E1
8.221342750E0,5.708564721E0,1.754912672E1,2.713473514E0,1.865268072E1
8.231352750E0,6.264644285E0,1.719672204E1,4.080064291E-1,1.830681530E1
8.241363750E0,5.805987520E0,1.687911065E1,-1.010582540E0,1.787834289E1
8.251373750E0,4.877857225E0,1.652202353E1,-2.405259175E0,1.739413764E1
8.261383750E0,4.666970960E0,1.599395914E1,-3.292429724E0,1.698315166E1
8.271394750E0,5.210899426E0,1.437599715E1,-3.892207870E0,1.577884815E1
8.281404750E0,5.422569217E0,1.264263918E1,-4.382566484E0,1.443771005E1
8.291414750E0,4.777633902E0,1.089414161E1,-4.804540742E0,1.282933041E1
8.301424750E0,3.346332867E0,9.032969359E0,-5.049426227E0,1.087608313E1
8.311435750E0,1.596864508E0,7.606148168E0,-5.118667200E0,9.306138840E0
8.321445750E0,4.647216435E-1,6.802477028E0,-4.771087067E0,8.321834637E0
8.331455750E0,-7.455492318E-3,6.197153383E0,-3.911642261E0,7.328418029E0
8.341466750E0,-7.502427918E-1,5.554194134E0,-2.998691922E0,6.356421161E0
8.351476750E0,-1.528640804E0,5.167259316E0,-2.391244569E0,5.895367854E0
8.361486750E0,-2.228497846E0,4.819920673E0,-1.903366928E0,5.640978959E0
8.371496750E0,-2.577336300E0,4.527124858E0,-1.597545417E0,5.448823106E0
8.381507750E0,-2.220414070E0,5.478749265E0,-1.341914942E0,6.061985472E0
8.391517750E0,-1.118294977E0,7.842880880E0,-8.217924654E-1,7.964716379E0
8.401527750E0,1.321912202E-1,9.771232960E0,-7.769677833E-2,9.772435974E0
8.411538750E0,1.401647320E0,1.109952623E1,9.490837920E-1,1.122786078E1
8.421548750E0,2.912723819E0,1.236879653E1,1.604042989E0,1.280796790E1
8.431558750E0,4.456536101E0,1.336935220E1,2.162411299E0,1.425750030E1
8.441569750E0,5.281750138E0,1.346815494E1,3.577508969E0,1.490257200E1
8.451579750E0,6.148006366E0,1.119598424E1,3.489260452E0,1.324095857E1
8.461589750E0,5.022699189E0,7.099057746E0,5.828679979E-1,8.715725049E0
8.471599750E0,3.967821724E0,4.589998214E0,-9.659319592E-1,6.143672955E0
8.481610750E0,3.714152552E0,-2.100531532E0,-1.614496349E0,4.562210029E0
8.491620750E0,2.369392354E0,-2.344722952E1,-1.867356266E0,2.364050785E1
8.501630750E0,-1.978248418E0,-4.720700440E1,2.030583045E0,4.729205006E1
8.511641750E0,-7.560492523E0,-3.891487376E1,8.418591886E0,4.052654854E1
8.521651750E0,-4.825294849E0,-1.587297089E1,6.090769726E0,1.767292141E1
8.531661750E0,-1.932289157E0,-3.466041158E0,4.519454188E0,6.014370196E0
8.541672750E0,-5.483023653E-1,-2.064997417E0,4.754373094E0,5.212380774E0
8.551682750E0,7.566315327E-2,-9.106853607E0,7.493033781E0,1.179347543E1
8.561692750E0,-3.584882308E0,-1.665533536E1,8.978323621E0,1.925777433E1
8.571702750E0,-6.253442189E0,-2.065651487E1,8.381687184E0,2.315274985E1
8.581713750E0,-7.272100246E0,-1.949724122E1,7.307958296E0,2.205520599E1
8.591723750E0,-6.924804872E0,-1.738542456E1,5.092665802E0,1.939435883E1
8.601733750E0,-5.734794161E0,-1.826668766E1,1.742679595E0,1.922489726E1
8.611743958E0,-3.720612848E0,-2.075902591E1,-1.163325481E0,2.112187120E1
8.621753958E0,-5.201704606E-1,-2.172048592E1,-2.271303265E0,2.184511169E1
8.631763958E0,2.308576634E0,-2.030322142E1,-1.430914242E0,2.048408752E1
8.641774958E0,3.823175934E0,-1.770944801E1,-1.310907158E0,1.816479289E1
8.651784958E0,4.815756579E0,-1.499413087E1,-6.178325933E-1,1.576062147E1
8.661794958E0,5.128478243E0,-1.248542744E1,5.143390690E-1,1.350746949E1
8.671804958E0,4.563225860E0,-1.012084968E1,2.003420828E0,1.128132632E1
8.681815958E0,3.256140442E0,-7.812629140E0,3.892616590E0,9.316227164E0
8.691825958E0,1.158735417E0,-5.828432057E0,5.400844472E0,8.030093961E0
8.701835958E0,-1.957736678E0,-3.915798461E0,7.475441848E0,8.663050347E0
8.711846958E0,-4.309232460E0,-1.937745048E0,6.948742204E0,8.402937491E0
8.721856958E0,-4.881162656E0,4.405771744E-1,4.313731307E0,6.529022508E0
8.731866958E0,-4.190749744E0,2.875324443E0,1.464563214E0,5.289122751E0
8.741876958E0,-3.130848059E0,5.172314819E0,2.980483693E-1,6.053419116E0
8.751887958E0,-1.880483703E0,7.077103790E0,4.300615418E-1,7.335296173E0
8.761897958E0,-3.793291984E-1,8.576674869E0,1.082036612E0,8.652979006E0
8.771907958E0,9.866400196E-1,9.809855574E0,1.568203942E0,9.983285457E0
8.781918958E0,1.876359662E0,1.111901617E1,1.991016106E0,1.145065026E1
8.791928958E0,2.556457062E0,1.278207189E1,2.514829565E0,1.327558670E1
8.801938958E0,2.785342811E0,1.466226864E1,2.975548643E0,1.521821757E1
8.811949958E0,2.811930100E0,1.637345630E1,3.349297990E0,1.694741335E1
8.821959958E0,4.011748347E0,1.734879175E1,1.209742579E0,1.784763786E1
8.831969958E0,5.070334700E0,1.769784714E1,-2.115908539E0,1.853103225E1
8.841979958E0,4.835436552E0,1.763772490E1,-4.294085248E0,1.878589775E1
8.851990958E0,3.990327365E0,1.687368560E1,-6.363783242E0,1.847002207E1
8.862000958E0,3.635518026E0,1.561519522E1,-7.447401525E0,1.767809669E1
8.872010958E0,4.516381184E0,1.348545919E1,-7.348069611E0,1.600779296E1
8.882021958E0,5.221117435E0,1.170389678E1,-6.757709575E0,1.448819884E1
8.892031958E0,5.807923533E0,1.048035287E1,-5.914680827E0,1.336238082E1
8.902041958E0,6.117834733E0,9.187185579E0,-5.030582989E0,1.213008845E1
8.912051958E0,6.061209712E0,7.637314997E0,-4.094536150E0,1.057506831E1
8.922062958E0,5.326200671E0,6.468448986E0,-3.082653261E0,8.928157537E0
8.932072958E0,3.476944461E0,5.306032455E0,-2.052861521E0,6.667635535E0
8.942082958E0,9.785135593E-1,3.894105291E0,-6.066170490E-1,4.060730113E0
8.952093958E0,-1.460506416E0,2.726702839E0,7.354165918E-1,3.179437832E0
8.962103958E0,-3.772560389E0,2.005037144E0,2.179081857E0,4.795913216E0
8.972113958E0,-6.024541238E0,2.804395963E0,3.267112450E0,7.404981945E0
8.982124958E0,-6.888786024E0,5.136985942E0,3.202968494E0,9.170769031E0
8.992134958E0,-5.963805040E0,7.918058531E0,2.384291060E0,1.019546298E1
9.002144958E0,-4.084784748E0,9.954076563E0,1.445767339E0,1.085630461E1
9.012154958E0,-2.138505543E0,1.100285538E1,4.724542938E-1,1.121870071E1
9.022165958E0,-6.311839794E-1,1.155335436E1,-1.026743294E-1,1.157103851E1
9.032175958E0,4.906631812E-1,1.202324363E1,-5.082845695E-1,1.204398152E1
9.042185958E0,1.874805180E0,1.248328268E1,-8.593366331E-1,1.265249779E1
9.052196958E0,3.571212980E0,1.223391413E1,-1.325491137E0,1.281324096E1
9.062206958E0,4.819131884E0,1.108299498E1,-1.670975774E0,1.220036761E1
9.072216958E0,5.796184663E0,9.683856263E0,-9.856404381E-1,1.132891503E1
9.082227958E0,6.203274833E0,7.088552054E0,-1.897872884E0,9.608855830E0
9.092237958E0,6.827061061E0,3.235898259E0,-2.172524059E0,7.861276045E0
9.102247958E0,7.963413629E0,-5.246817702E0,-1.263562106E0,9.619856642E0
9.112257958E0,7.410175227E0,-2.453602551E1,1.023418129E0,2.565101615E1
9.122268958E0,6.203213145E-1,-4.409906895E1,6.735574940E0,4.461480304E1
9.132278958E0,-1.169835829E1,-4.137499619E1,1.378528336E1,4.515280649E1
9.142288958E0,-1.402125593E1,-2.395071922E1,8.248795760E0,2.895298259E1
9.152299958E0,-1.051749204E1,-1.150402725E1,1.258895005E0,1.563793780E1
9.162309958E0,-1.009145339E1,-7.755486640E0,1.341354779E0,1.279782158E1
9.172319958E0,-7.481426473E0,-1.022369051E1,1.449683512E0,1.275135961E1
9.182329958E0,-2.925198854E0,-1.764262486E1,1.032301804E0,1.791325340E1
9.192340958E0,-5.477798069E-1,-2.438065797E1,1.242767507E0,2.441845648E1
9.202350958E0,3.300163252E0,-2.589185449E1,2.928494929E0,2.626509640E1
9.212360958E0,4.855192832E0,-2.356244539E1,2.729936934E0,2.421186251E1
9.222371958E0,4.040014664E0,-2.040394790E1,5.856673524E-2,2.080014996E1
9.232381958E0,3.652601836E0,-1.801892710E1,-1.828920909E0,1.847615181E1
9.242391958E0,3.846667415E0,-1.646517222E1,-2.023141440E0,1.702914700E1
9.252402958E0,3.641359687E0,-1.570145452E1,-4.458632036E-1,1.612432846E1
9.262412958E0,2.958303450E0,-1.482638946E1,2.215409439E0,1.528009891E1
9.272422958E0,1.402635792E0,-1.322058733E1,5.720549759E0,1.447328595E1
9.282432958E0,-1.692901517E0,-1.022312917E1,7.964681890E0,1.306959997E1
9.292443958E0,-3.185103204E0,-6.665653936E0,4.893224877E0,8.861121515E0
9.302453958E0,-2.545351738E0,-2.427880883E0,2.060314382E0,4.076556930E0
9.312463958E0,-2.935808626E0,3.212758487E-1,2.359059155E-1,2.962742321E0
9.322474958E0,-2.856433259E0,2.330769156E0,-1.179851759E0,3.870884394E0
9.332484958E0,-2.022079001E0,4.365837016E0,-1.890480834E0,5.169453948E0
9.342494958E0,-9.344096196E-1,6.190653033E0,-2.092102185E0,6.601075509E0
9.352504958E0,-1.987762423E-1,7.904083686E0,-1.790281777E0,8.106735456E0
9.362515958E0,2.505561143E-2,9.701203197E0,-5.535471350E-1,9.717015266E0
9.372525958E0,1.292942172E-1,1.126564796E1,1.191138639E0,1.132918145E1
9.382535958E0,7.984989855E-1,1.316512649E1,3.245905768E0,1.358285907E1
9.392546958E0,8.962056667E-1,1.534601280E1,6.210365167E0,1.657926202E1
9.402556958E0,2.128055691E0,1.719448607E1,5.220661352E0,1.809514513E1
9.412566958E0,4.273336110E0,1.794405234E1,2.095987076E0,1.856457857E1
9.422577958E0,5.657653014E0,1.800182751E1,-9.449242289E-1,1.889358920E1
9.432587958E0,7.261886330E0,1.751974563E1,-4.465737280E0,1.948382122E1
9.442597958E0,8.393758761E0,1.635278639E1,-8.386591828E0,2.020405235E1
9.452607958E0,9.656406509E0,1.458577186E1,-9.878377340E0,2.008913304E1
9.462618958E0,9.226438522E0,1.309838053E1,-9.181976295E0,1.846627816E1
9.472628958E0,8.346347197E0,1.195748935E1,-7.805801346E0,1.654006039E1
9.482638958E0,6.962284355E0,1.110630081E1,-6.401765585E0,1.458786906E1
9.492649958E0,5.019246408E0,1.018186654E1,-5.233077915E0,1.249993381E1
9.502659958E0,3.335519026E0,9.309177209E0,-4.276145405E0,1.077366637E1
9.512669958E0,1.532619103E0,8.236045906E0,-3.546645611E0,9.097256101E0
9.522680958E0,-9.264109209E-2,6.469516688E0,-2.217251312E0,6.839549103E0
9.532690958E0,-2.052336734E0,4.302146804E0,-3.161041327E-1,4.777078083E0
9.542700958E0,-4.957285802E0,2.139391542E0,2.628926284E0,6.005242052E0
9.552710958E0,-7.192241898E0,6.654862314E-1,5.438563106E0,9.041525541E0
9.562721958E0,-7.258641710E0,8.679653692E-1,5.452266056E0,9.119673706E0
9.572731958E0,-5.287367558E0,2.971797654E0,4.134881353E0,7.340645802E0
9.582741958E0,-2.010452105E0,5.343247059E0,2.348365182E0,6.173088840E0
9.592752958E0,-3.239693686E-2,7.010352561E0,8.922536067E-1,7.066980196E0
9.602762958E0,1.194942107E0,8.376893052E0,6.322126508E-2,8.461927722E0
9.612773250E0,2.053639201E0,9.438664384E0,8.734059110E-2,9.659888597E0
9.622783250E0,2.957953786E0,1.048119955E1,8.636512935E-1,1.092478504E1
9.632794250E0,3.900243698E0,1.170857689E1,1.584359360E0,1.244238194E1
9.642804250E0,5.182055696E0,1.311478080E1,1.395621033E0,1.417035408E1
9.652814250E0,6.478629574E0,1.424523937E1,5.599562681E-1,1.565927958E1
9.662825250E0,7.629218357E0,1.468509968E1,-1.357441639E0,1.660420950E1
9.672835250E0,7.094857691E0,1.222776520E1,-4.520478328E0,1.484216870E1
9.682845250E0,5.374737824E0,7.931073264E0,-6.323987677E0,1.147965809E1
9.692856250E0,4.452333415E0,4.361509491E0,-6.507152292E0,9.010497701E0
9.702866250E0,4.835774229E0,-1.687302954E0,-5.790098296E0,7.730261440E0
9.712876250E0,3.006979474E0,-1.964918930E1,-3.361879151E0,2.016022810E1
9.722886250E0,-4.315546283E0,-4.899651435E1,1.041710003E1,5.027721483E1
9.732897250E0,-1.156043300E1,-5.187509394E1,2.583072769E1,5.909226240E1
9.742907250E0,-9.172973337E0,-2.751497606E1,1.500635506E1,3.265590360E1
9.752917250E0,-4.696487120E0,-9.921592941E0,3.164744076E0,1.142412372E1
9.762928250E0,-3.044965618E0,-4.981551163E0,3.214126736E-2,5.838552959E0
9.772938250E0,-2.403797371E0,-6.310899269E0,-1.630146714E0,6.947162708E0
9.782948250E0,-3.250160787E0,-1.087670053E1,-3.582373560E0,1.190376243E1
9.792959250E0,-2.360429742E0,-1.498184119E1,-2.927124634E0,1.544652883E1
9.802969250E0,7.475431323E-2,-1.488322673E1,2.000414920E0,1.501724629E1
9.812979250E0,8.416856432E-1,-1.466968291E1,4.971983948E0,1.551220989E1
9.822989250E0,-1.511982525E0,-1.637909419E1,3.138585972E0,1.674549311E1
9.833000250E0,-3.262257799E0,-1.801956562E1,1.475430557E0,1.837182534E1
9.843010250E0,-3.883839627E0,-1.864879853E1,3.391159961E-1,1.905195256E1
9.853020250E0,-2.587198506E0,-1.798651482E1,3.260071233E-1,1.817455892E1
9.863031250E0,4.567154896E-1,-1.572153619E1,-6.592530996E-2,1.572830682E1
9.873041250E0,3.318539296E0,-1.311109939E1,-2.060642119E-1,1.352612630E1
9.883051250E0,4.625846908E0,-1.077946719E1,3.526944003E-1,1.173540650E1
9.893062250E0,5.086328589E0,-8.755294443E0,1.019219974E0,1.017667572E1
9.903072250E0,4.968693720E0,-7.451732558E0,1.592385103E0,9.096808546E0
9.913082250E0,4.263355206E0,-6.796829787E0,3.235593034E0,8.651136055E0
9.923092250E0,3.014181781E0,-6.409727154E0,5.616121411E0,9.039397861E0
9.933103250E0,-2.218772026E0,-5.802368678E0,7.240041132E0,9.539844190E0
9.943113250E0,-5.325007254E0,-4.394274949E0,6.877295076E0,9.744872608E0
9.953123250E0,-5.308363155E0,-1.365899051E0,4.355048318E0,7.000774633E0
9.963134250E0,-4.995418419E0,1.184488016E0,2.383149099E0,5.660089811E0
9.973144250E0,-4.832350100E0,3.243968586E0,7.143836454E-1,5.863896628E0
9.983154250E0,-4.222939836E0,5.078392164E0,-1.690166920E0,6.817620702E0
9.993164250E0,-3.476685430E0,6.656890129E0,-2.939027519E0,8.064701515E0
1.000317525E1,-3.140617587E0,8.128032630E0,-2.857207722E0,9.170170622E0
1.001318525E1,-2.782080357E0,9.856264340E0,-2.419175549E0,1.052322803E1
1.002319525E1,-2.568285980E0,1.154470048E1,-1.533347520E0,1.192591115E1
1.003320625E1,-1.496768509E0,1.304691801E1,-2.751343006E-1,1.313537531E1
1.004321625E1,3.528312251E-1,1.481353260E1,1.752960023E0,1.492106252E1
1.005322625E1,3.832026572E0,1.692564981E1,1.906805529E0,1.745846374E1
1.006323725E1,7.658062087E0,1.829646870E1,2.692163336E-1,1.983630912E1
1.007324725E1,1.105933364E1,1.891267636E1,-2.161981821E0,2.201527544E1
1.008325725E1,1.236928887E1,1.812614516E1,-4.973222973E0,2.250087536E1
1.009326725E1,1.325316685E1,1.574393454E1,-6.729085116E0,2.165175496E1
1.010327825E1,1.314179961E1,1.319386205E1,-6.944102438E0,1.987474406E1
1.011328825E1,1.065678442E1,1.125720225E1,-6.959443778E0,1.699192497E1
1.012329825E1,8.490471123E0,9.738089772E0,-6.457036976E0,1.444340053E1
1.013330925E1,6.441585124E0,8.586719216E0,-5.874322175E0,1.223656107E1
1.014331925E1,4.562450227E0,7.583682581E0,-5.581101851E0,1.046312054E1
1.015332925E1,2.843552135E0,6.521269224E0,-5.382453225E0,8.920960921E0
1.016334025E1,1.369407088E0,5.858868569E0,-4.913791289E0,7.768330677E0
1.017335025E1,1.660325655E-1,5.013339550E0,-4.142154120E0,6.505273323E0
1.018336025E1,-1.003437316E0,4.018711211E0,-2.728257614E0,4.959870548E0
1.019337025E1,-2.560886328E0,3.646175746E0,-1.001177806E-1,4.456765635E0
1.020338125E1,-4.288648506E0,4.103520981E0,3.960506272E0,7.135614927E0
1.021339125E1,-5.882506523E0,5.171113216E0,6.088206307E0,9.920209217E0
1.022340125E1,-6.194570083E0,6.996065474E0,6.633726969E0,1.145966684E1
1.023341225E1,-5.155207036E0,8.762972422E0,5.706277875E0,1.165879292E1
1.024342225E1,-3.618601447E0,1.005104211E1,4.173352523E0,1.146885326E1
1.025343225E1,-2.221022619E0,1.092559144E1,2.376693188E0,1.139956843E1
1.026344325E1,-1.020574774E0,1.159066194E1,5.541089062E-1,1.164869322E1
1.027345325E1,-3.902548671E-2,1.180326670E1,-1.027054805E0,1.184793101E1
1.028346325E1,1.182098990E0,1.221889380E1,-2.136563244E0,1.246048259E1
1.029347325E1,3.436731990E0,1.130431677E1,-2.050280560E0,1.199176196E1
1.030348425E1,5.279097841E0,7.342182049E0,-2.212608768E0,9.309787797E0
1.031349425E1,6.518787081E0,1.372231586E0,-2.210926963E0,7.018960220E0
1.032350425E1,8.970549747E0,-9.454504491E0,-4.493146688E-3,1.303297503E1
1.033351525E1,6.429340469E0,-2.719384230E1,5.756686721E0,2.853035086E1
1.034352525E1,-1.686356729E0,-4.194788767E1,1.365764799E1,4.414748495E1
1.035353525E1,-4.629628302E0,-2.660956512E1,1.398620655E1,3.041572600E1
1.036354625E1,-9.923376196E-1,-5.898445448E0,9.598854704E0,1.130992503E1
1.037355625E1,-6.484511726E-1,-2.044650276E0,5.615606271E0,6.011332420E0
1.038356625E1,-1.709326930E0,-4.251596455E0,1.412125677E0,4.794994254E0
1.039357625E1,-4.173076535E0,-7.063677413E0,-4.989513316E0,9.602361663E0
1.040358725E1,-4.520607259E0,-8.992197894E0,-9.571528326E0,1.388919247E1
1.041359725E1,-2.028801983E0,-9.961973813E0,-7.919850118E0,1.288724120E1
1.042360725E1,-7.558698598E-1,-1.080596677E1,-2.312060113E0,1.107636578E1
1.043361825E1,-2.017303287E0,-1.173445900E1,4.769299281E0,1.282627211E1
1.044362825E1,-2.947458327E0,-1.223865973E1,1.001726274E1,1.608781699E1
1.045363825E1,-3.207033186E0,-1.374882012E1,1.157830092E1,1.825848211E1
1.046364825E1,-3.529221785E0,-1.500197199E1,1.000684535E1,1.837529656E1
1.047365925E1,-3.267481117E0,-1.454183354E1,7.027776679E0,1.647819773E1
1.048366925E1,-1.883521186E0,-1.332869534E1,4.215066560E0,1.410562149E1
1.049367925E1,-8.655765624E-1,-1.314179143E1,2.235344059E0,1.335861773E1
1.050369025E1,-5.014577625E-1,-1.361574685E1,1.022882963E0,1.366331993E1
1.051370025E1,-3.789708372E-1,-1.379297712E1,3.532475469E-1,1.380270338E1
1.052371025E1,1.115667019E-1,-1.344962745E1,1.506497106E-1,1.345093383E1
1.053372125E1,8.978974854E-1,-1.297858043E1,5.749388811E-1,1.302230105E1
1.054373125E1,1.658986058E0,-1.297473764E1,1.731034865E0,1.319441296E1
1.055374125E1,2.339377135E0,-1.339359943E1,2.954672621E0,1.391370840E1
1.056375225E1,2.611738978E0,-1.347584753E1,4.097829886E0,1.432521752E1
1.057376225E1,2.689650203E0,-1.242921815E1,4.900905780E0,1.362859345E1
1.058377225E1,2.713592505E0,-1.009816365E1,4.955833939E0,1.157137777E1
1.059378225E1,1.258668279E0,-6.189944351E0,4.007424331E0,7.480581974E0
1.060379325E1,-4.279309626E-1,-2.431782146E0,1.359934453E0,2.818884714E0
1.061380383E1,-1.561768789E0,4.240219527E-1,-3.690680659E-1,1.659857706E0
1.062381383E1,-2.372110579E0,2.322085456E0,-1.791222010E0,3.771931303E0
1.063382483E1,-2.770310204E0,3.993164141E0,-2.962426322E0,5.691743862E0
1.064383483E1,-2.695390999E0,6.009021558E0,-3.442406128E0,7.431260504E0
1.065384483E1,-1.761208398E0,8.278251109E0,-3.100965571E0,9.013727526E0
1.066385483E1,-6.416906950E-1,1.036146611E1,-2.168641069E0,1.060541140E1
1.067386583E1,-5.389726576E-1,1.230409358E1,4.120642506E-2,1.231596153E1
1.068387583E1,8.785997003E-2,1.458136306E1,3.214395708E0,1.493171818E1
1.069388583E1,1.292724071E0,1.767574349E1,7.030620180E0,1.906653255E1
1.070389683E1,4.255231084E0,2.023069256E1,7.697585172E0,2.205993496E1
1.071390683E1,6.136580322E0,2.072617860E1,4.268518297E0,2.203298313E1
1.072391683E1,7.472076775E0,1.967774944E1,4.007498152E-1,2.105246672E1
1.073392783E1,7.099281110E0,1.834723423E1,-2.257262346E0,1.980191984E1
1.074393783E1,5.998648013E0,1.634852026E1,-5.169666030E0,1.816544356E1
1.075394783E1,6.604506678E0,1.373868923E1,-6.874891870E0,1.672229735E1
1.076395783E1,7.613579979E0,1.128053965E1,-7.043133221E0,1.532393228E1
1.077396883E1,7.419286358E0,9.697592542E0,-7.127726644E0,1.413837325E1
1.078397883E1,6.701137179E0,8.254473991E0,-7.210291083E0,1.284639552E1
1.079398883E1,5.380796124E0,6.872795058E0,-6.968015211E0,1.116877410E1
1.080399983E1,3.498309603E0,6.062573283E0,-6.532345020E0,9.574157736E0
1.081400983E1,1.685417520E0,5.545042657E0,-5.968974563E0,8.319662711E0
1.082401983E1,2.625471456E-1,5.187665514E0,-4.787156970E0,7.063828731E0
1.083402983E1,-1.354737740E0,4.155630782E0,-2.916343246E0,5.254487555E0
1.084404083E1,-3.779155171E0,2.537050154E0,-1.515558098E-1,4.554295385E0
1.085405083E1,-6.460542381E0,2.214225962E0,2.978119664E0,7.450543685E0
1.086406083E1,-8.005753902E0,4.226960966E0,5.512947291E0,1.059961709E1
1.087407183E1,-6.502977380E0,7.269323988E0,5.456550311E0,1.117612309E1
1.088408183E1,-2.918356442E0,9.780849291E0,4.125852667E0,1.100929050E1
1.089409183E1,-4.888165574E-1,1.125890145E1,4.014224058E0,1.196310153E1
1.090410283E1,1.223182551E0,1.231790120E1,3.971329468E0,1.299993551E1
1.091411283E1,2.440566564E0,1.295766845E1,2.949042630E0,1.351126897E1
1.092412283E1,3.098709131E0,1.304982759E1,1.312052627E0,1.347670139E1
1.093413283E1,4.080469503E0,1.341978560E1,-7.420982051E-1,1.404605235E1
1.094414383E1,4.640084878E0,1.379243099E1,-1.959289845E0,1.468333603E1
1.095415383E1,4.688453631E0,1.368855404E1,-2.544811748E0,1.469129592E1
1.096416383E1,6.375329154E0,1.251463545E1,-2.291681689E0,1.423069665E1
1.097417483E1,7.990376310E0,9.647505877E0,-1.770900158E0,1.265134659E1
1.098418483E1,8.809177705E0,5.529663895E0,-1.323473847E0,1.048476884E1
1.099419483E1,9.287310376E0,-3.100669118E0,-1.792857622E0,9.954025389E0
1.100420583E1,4.805127218E0,-3.091817719E1,-1.286342420E0,3.131577247E1
1.101421583E1,-1.640053066E0,-5.862015657E1,5.865746064E0,5.893572352E1
1.102422583E1,-1.247422183E1,-5.432657418E1,1.222475622E1,5.706511664E1
1.103423583E1,-1.622018908E1,-3.178049649E1,5.660094811E0,3.612659913E1
1.104424683E1,-1.120608940E1,-1.266753897E1,-1.824097395E0,1.701088811E1
1.105425683E1,-1.065639031E1,-4.812403493E0,-6.701699974E-1,1.171183204E1
1.106426683E1,-4.859827920E0,2.922401546E0,6.931105832E0,8.955366339E0
1.107427783E1,1.522008161E0,7.132876872E0,8.838934186E0,1.145954619E1
1.108428783E1,5.300043737E0,4.465763592E0,8.352983787E0,1.085384016E1
1.109429783E1,5.227954584E0,-1.687456736E0,3.626058109E0,6.582348880E0
1.110430883E1,5.064612615E0,-4.732990118E0,-2.134773996E0,7.253189396E0
1.111431883E1,5.942025915E0,-5.266473117E0,-4.035401796E0,8.906619939E0
1.112432883E1,3.916125028E0,-4.464129880E0,-4.680029840E0,7.560897442E0
1.113433883E1,5.424433182E-2,-3.240194208E0,-3.585059771E0,4.832644671E0
1.114434983E1,-3.316684267E0,-2.067036341E0,-1.746208682E0,4.280453075E0
1.115435983E1,-4.615999612E0,-1.129040624E0,5.926959980E-1,4.788890654E0
1.116436983E1,-5.187742113E0,-1.000466200E0,1.947541473E0,5.630854166E0
1.117438083E1,-3.990066579E0,-1.019860829E0,1.814605610E0,4.500393420E0
1.118439083E1,-1.205696014E0,-1.462573407E0,1.221504400E0,2.254971584E0
1.119440083E1,1.645696945E0,-2.262178393E0,-7.896489322E-2,2.798571952E0
1.120441183E1,2.867908712E0,-2.471248512E0,-1.616431192E0,4.116408554E0
1.121442183E1,3.111251408E0,-2.230160210E0,-2.243075832E0,4.436765610E0
1.122443183E1,2.891172152E0,-2.031245534E0,-1.777222606E0,3.955168141E0
1.123444183E1,1.577364775E0,-2.114191212E0,-1.531700360E0,3.050244270E0
1.124445283E1,1.905540338E-1,-3.089020295E0,-1.952274209E0,3.659198247E0
1.125446283E1,-1.257644432E0,-5.494696961E0,-1.654014463E0,5.874447042E0
1.126447283E1,-2.857650941E0,-9.229620577E0,-6.006859258E-1,9.680541745E0
1.127448383E1,-3.599647112E0,-1.333434258E1,7.898594320E-1,1.383423396E1
1.128449383E1,-2.538594988E0,-1.662065436E1,2.635943820E0,1.701877832E1
1.129450383E1,-1.040219080E0,-1.944138861E1,4.922216542E0,2.008177937E1
1.130451483E1,5.863238851E-1,-2.103122316E1,6.233142411E0,2.194329482E1
1.131452483E1,1.976693205E0,-2.097074190E1,6.059395321E0,2.191792881E1
1.132453483E1,3.361775071E0,-1.920468046E1,4.726487430E0,2.006142982E1
1.133454483E1,4.387903823E0,-1.708734169E1,3.106292385E0,1.791312364E1
1.134455583E1,3.868195694E0,-1.415493263E1,1.849280329E0,1.479002683E1
1.135456583E1,1.926678315E0,-9.865343896E0,1.465180095E0,1.015794528E1
1.136457583E1,-1.368109007E0,-5.269692010E0,1.712098072E0,5.707245915E0
1.137458683E1,-4.332628047E0,-1.713800197E0,1.727773873E0,4.969303720E0
1.138459683E1,-6.057320729E0,8.868238091E-1,1.154052674E0,6.229721379E0
1.139460683E1,-5.904975033E0,3.489968550E0,1.196299027E-1,6.860242119E0
1.140461683E1,-5.083924799E0,5.897605788E0,-3.582676739E-1,7.794639255E0
1.141462783E1,-4.249991394E0,7.855158863E0,-6.130776376E-1,8.952195921E0
1.142463783E1,-3.136652298E0,9.644965262E0,-8.879751259E-1,1.018098435E1
1.143464783E1,-1.923120723E0,1.157009611E1,-7.437974060E-1,1.175239345E1
1.144465883E1,6.786483139E-2,1.384707907E1,1.895860857E0,1.397642632E1
1.145466883E1,1.192131204E0,1.603560535E1,4.106731102E0,1.659599518E1
1.146467883E1,2.696172480E0,1.761810749E1,3.766241888E0,1.821679542E1
1.147468983E1,5.705142345E0,1.876455001E1,3.325693949E0,1.989264252E1
1.148469983E1,9.016186096E0,1.919162596E1,1.386874037E0,2.124931854E1
1.149470983E1,1.065762992E1,1.828639395E1,-1.790846180E0,2.124110189E1
1.150471983E1,9.395133618E0,1.605261724E1,-4.575967235E0,1.915449117E1
1.151473083E1,8.355443711E0,1.351796386E1,-6.216772546E0,1.706449669E1
1.152474083E1,8.961063809E0,1.213105693E1,-7.550403153E0,1.686629167E1
1.153475083E1,8.321524013E0,1.083433746E1,-8.333916602E0,1.600264965E1
1.154476183E1,7.325352008E0,9.595534070E0,-8.325635190E0,1.466462606E1
1.155477183E1,5.641302445E0,8.785834451E0,-7.434190911E0,1.281726862E1
1.156478183E1,3.029212342E0,8.786133243E0,-6.200894431E0,1.117243736E1
1.157479283E1,1.076463631E0,8.409345099E0,-5.304194090E0,1.000051668E1
1.158480283E1,-1.893461452E-1,7.464573628E0,-4.600168861E0,8.770248854E0
1.159481283E1,-1.481152350E0,5.824990970E0,-3.610468554E0,7.011406084E0
1.160482283E1,-3.482280338E0,3.004288293E0,-1.922522991E0,4.984788777E0
1.161483308E1,-7.350164083E0,4.051635128E-1,1.170889147E0,7.453861477E0
1.162484308E1,-1.091874669E1,5.397401047E-1,6.364031163E0,1.264955499E1
1.163485308E1,-1.028228195E1,3.369121220E0,1.017785535E1,1.485479853E1
1.164486408E1,-5.995232654E0,6.613377489E0,8.083254068E0,1.204236574E1
1.165487408E1,-2.790474912E0,8.891918145E0,5.695850535E0,1.092225580E1
1.166488408E1,-7.380338055E-1,1.024954923E1,3.630402882E0,1.089852185E1
1.167489508E1,1.195871887E0,1.119073227E1,2.248835632E0,1.147692729E1
1.168490508E1,2.878488371E0,1.192038877E1,1.077735400E0,1.231027527E1
1.169491508E1,4.106459792E0,1.264099962E1,-4.916596929E-1,1.330036138E1
1.170492508E1,5.257241533E0,1.343588298E1,-1.567468509E0,1.451270125E1
1.171493608E1,6.441955837E0,1.423626857E1,-2.223691581E0,1.578337550E1
1.172494608E1,7.520294670E0,1.334464420E1,-2.799008338E0,1.557140997E1
1.173495608E1,5.671933669E0,1.003060843E1,-3.881812398E0,1.215945741E1
1.174496708E1,3.387762728E0,6.070802069E0,-3.964161952E0,8.002884108E0
1.175497708E1,3.975802588E0,1.962956488E0,-2.986476504E0,5.345956070E0
1.176498708E1,4.101673261E0,-1.258884597E1,-2.434112846E0,1.346208274E1
1.177499808E1,2.329385266E-1,-4.315935123E1,3.808006795E0,4.332764446E1
1.178500808E1,-6.034155815E0,-5.409907072E1,1.519128846E1,5.651456214E1
1.179501808E1,-1.163250578E1,-3.077625124E1,1.451617128E1,3.596125776E1
1.180502808E1,-7.623140761E0,-7.969694123E0,5.239350808E0,1.220979510E1
1.181503908E1,-7.900299368E0,-9.025054568E-1,9.279083928E-1,8.005639274E0
1.182504908E1,-8.212648273E0,-1.889229530E-1,8.177757937E-1,8.255424930E0
1.183505908E1,-7.383185064E0,-1.328406705E0,8.120768049E-1,7.545565241E0
1.184507008E1,-2.014013936E0,-2.750282321E0,1.366563295E0,3.672574059E0
1.185508008E1,5.518652419E0,-3.628796652E0,4.289110436E0,7.875287804E0
1.186509008E1,1.123829703E1,-7.337173909E0,5.653982717E0,1.456368640E1
1.187510008E1,1.176559192E1,-9.798464028E0,2.461657324E0,1.550802397E1
1.188511108E1,1.063907437E1,-8.873319322E0,-2.347324378E0,1.405117899E1
1.189512108E1,7.097454439E0,-6.458705771E0,-3.051482340E0,1.006977081E1
1.190513108E1,2.744290971E0,-4.865379851E0,-1.525963072E0,5.790649129E0
1.191514208E1,-7.222013728E-1,-4.255661439E0,-3.626203412E-1,4.331711281E0
1.192515208E1,-3.384531557E0,-4.395014622E0,1.421073086E0,5.726312609E0
1.193516208E1,-5.181822976E0,-4.674057786E0,2.274811302E0,7.339814167E0
1.194517308E1,-5.045881644E0,-4.513010849E0,2.362853998E0,7.170165096E0
1.195518308E1,-4.282497236E0,-4.162901795E0,1.828162379E0,6.245935607E0
1.196519308E1,-4.208090247E0,-4.455466645E0,8.325558007E-2,6.129122127E0
1.197520308E1,-3.877579306E0,-5.004057680E0,-1.118451317E0,6.428619439E0
1.198521408E1,-3.016863899E0,-5.379379343E0,-5.570548797E-1,6.192697316E0
1.199522408E1,-2.029755372E0,-5.935105151E0,6.876310989E-1,6.310167712E0
1.200523408E1,-1.016689007E0,-6.735221184E0,1.952037982E0,7.085711906E0
1.201524508E1,-3.150464445E-1,-7.843279660E0,2.702943555E0,8.301939168E0
1.202525508E1,2.218731827E-1,-9.482097502E0,2.790423456E0,9.886650788E0
1.203526508E1,1.115089095E0,-1.122838366E1,2.424483943E0,1.154115010E1
1.204527608E1,2.001763288E0,-1.223517947E1,1.863719590E0,1.253714974E1
1.205528608E1,2.865191218E0,-1.229838670E1,1.457717733E0,1.271159224E1
1.206529608E1,3.055164331E0,-1.231072783E1,1.485938296E0,1.277090684E1
1.207530608E1,2.613989571E0,-1.292868147E1,1.559136080E0,1.328211772E1
1.208531708E1,2.067494178E0,-1.321732459E1,2.052470196E0,1.353457925E1
1.209532708E1,1.550783917E0,-1.262268381E1,2.509691032E0,1.296285564E1
1.210533708E1,6.027132285E-1,-1.085940681E1,2.275321618E0,1.111157360E1
1.211534808E1,-1.237589944E0,-7.765982977E0,1.733527533E0,8.052778289E0
1.212535808E1,-3.303519846E0,-4.405775837E0,1.129978445E0,5.621472706E0
1.213536808E1,-4.688886325E0,-1.974790667E0,-1.690886859E-1,5.090583869E0
1.214537908E1,-4.805019044E0,2.317228174E-1,-1.461574848E0,5.027733537E0
1.215538908E1,-4.573437437E0,2.318222786E0,-2.162364083E0,5.564737667E0
1.216539908E1,-4.341618433E0,4.487735090E0,-2.155871335E0,6.605845749E0
1.217540908E1,-3.673156554E0,6.822053506E0,-1.824548800E0,7.959991924E0
1.218542008E1,-2.824303393E0,9.293095611E0,-3.814308339E-1,9.720278040E0
1.219543008E1,-2.061815070E0,1.146619109E1,1.296755726E0,1.172203885E1
1.220544008E1,-9.511883511E-1,1.343202031E1,3.432031413E0,1.389614222E1
1.221545108E1,4.788777526E-1,1.579174137E1,5.734816380E0,1.680763334E1
1.222546108E1,2.425678676E0,1.807038611E1,7.447702657E0,1.969494976E1
1.223547108E1,4.531458814E0,1.964585405E1,5.495252447E0,2.089716487E1
1.224548208E1,5.359705802E0,2.051626355E1,1.856076987E0,2.128587650E1
1.225549208E1,5.724377346E0,2.181201356E1,-3.785130733E-1,2.255384011E1
1.226550208E1,5.540347343E0,2.142945129E1,-3.151746300E0,2.235733294E1
1.227551208E1,6.081799513E0,1.805778302E1,-4.679151295E0,1.962055733E1
1.228552308E1,6.700432005E0,1.472239556E1,-5.396323990E0,1.705183370E1
1.229553308E1,6.952117217E0,1.182669298E1,-5.791682307E0,1.489114451E1
1.230554308E1,7.059380295E0,9.304625736E0,-6.039782590E0,1.314875979E1
1.231555408E1,6.982536771E0,7.095212617E0,-5.962496433E0,1.160384529E1
1.232556408E1,6.376229625E0,5.084916487E0,-6.089168758E0,1.017794950E1
1.233557408E1,5.278670409E0,3.876292334E0,-6.272524577E0,9.068327747E0
1.234558408E1,4.323638830E0,3.719724364E0,-5.986690457E0,8.268655556E0
1.235559508E1,3.270157095E0,3.460889761E0,-5.169695266E0,7.028330849E0
1.236560508E1,2.430233803E0,9.788157141E-1,-3.741601136E0,4.567679455E0
1.237561508E1,7.627847770E-1,-1.315890155E0,-1.118587045E0,1.888026614E0
1.238562608E1,-2.467574414E0,-3.160472685E-1,2.973898559E0,3.877226071E0
1.239563608E1,-4.310485810E0,3.254520471E0,5.422075712E0,7.653175579E0
1.240564608E1,-2.624867731E0,8.582388183E0,4.855588689E0,1.020411971E1
1.241565708E1,-1.152461354E0,1.251733803E1,4.164639003E0,1.324221041E1
1.242566708E1,-3.724594510E-1,1.421355565E1,3.857891731E0,1.473252249E1
1.243567708E1,5.770411013E-1,1.474971258E1,3.000694594E0,1.506290695E1
1.244568708E1,1.883286712E0,1.514283375E1,2.754927349E0,1.550618611E1
1.245569808E1,2.338782034E0,1.572002060E1,3.338022804E0,1.623980742E1
1.246570808E1,2.589763680E0,1.536223766E1,3.704665444E0,1.601342461E1
1.247571808E1,1.396605704E0,1.116567110E1,1.086102620E0,1.130496960E1
1.248572908E1,5.314290185E-1,6.171063107E0,-3.112122644E0,6.931792266E0
1.249573908E1,-1.071469524E0,-6.725397277E-1,-4.351929121E0,4.532068369E0
1.250574908E1,-4.794782616E0,-1.963714404E1,-2.738510122E0,2.039869613E1
1.251576008E1,-8.684445485E0,-4.935674961E1,7.638721837E0,5.069377079E1
1.252577008E1,-7.508562816E0,-4.787331568E1,1.668558535E1,5.125077197E1
1.253578008E1,-7.816155888E-1,-2.101243255E1,7.289918466E0,2.225480073E1
1.254579008E1,4.417845367E0,-4.041169782E0,-4.352887187E0,7.402434583E0
1.255580108E1,5.226920797E0,-2.152581106E0,-7.334159085E0,9.259816192E0
1.256581108E1,1.445840868E0,-3.711963354E0,-3.040384909E0,5.011294060E0
1.257582108E1,-8.414271963E-1,-5.755683923E0,1.249421346E-1,5.818204851E0
1.258583208E1,1.890213324E-1,-6.471073802E0,2.333303047E0,6.881484456E0
1.259584208E1,-1.457381225E0,-7.532032955E0,4.044181682E0,8.672420997E0
1.260585208E1,-3.371448412E0,-7.461514365E0,5.675519181E0,9.962548820E0
1.261586371E1,-3.911026256E0,-5.567380190E0,5.008754164E0,8.448636981E0
1.262587371E1,-2.982613834E0,-3.878450541E0,2.528664077E0,5.507495428E0
1.263588371E1,-2.036799366E0,-2.546809741E0,1.333133009E-1,3.263826581E0
1.264589371E1,-1.437010257E0,-1.780764264E0,-9.817884386E-1,2.489985619E0
1.265590471E1,-1.012275236E0,-1.184171097E0,-9.963193542E-1,1.849219997E0
1.266591471E1,-5.315898170E-1,-6.830202770E-1,-5.798005486E-1,1.041764421E0
1.267592471E1,-2.685019501E-1,-3.403406954E-1,-2.424653220E-1,4.967036526E-1
1.268593571E1,1.311907616E-1,2.066522956E-2,-4.157031190E-1,4.364025101E-1
1.269594571E1,5.130908346E-1,2.879496431E-1,-6.831071082E-1,9.015611587E-1
1.270595571E1,1.063167209E0,5.964768076E-1,-6.645617867E-1,1.388434897E0
1.271596671E1,1.225606441E0,8.517510402E-1,-5.121865627E-1,1.577949954E0
1.272597671E1,1.075717892E0,9.166101104E-1,-3.810896489E-1,1.463752847E0
1.273598671E1,9.670717277E-1,8.379159433E-1,-4.690168619E-2,1.280441573E0
1.274599671E1,7.377286539E-1,8.714918250E-1,5.283447585E-1,1.258129465E0
1.275600771E1,4.431605474E-1,7.647158200E-1,1.293317271E0,1.566477296E0
1.276601771E1,1.109367375E-1,8.221039027E-1,2.183121114E0,2.335418503E0
1.277602771E1,-2.542442456E-2,7.817569453E-1,2.624181268E0,2.738269098E0
1.278603871E1,8.788408980E-2,7.789958900E-1,2.543251711E0,2.661331898E0
1.279604871E1,1.013303469E-1,7.393587846E-1,2.302718893E0,2.420626686E0
1.280605871E1,-1.494209182E-1,4.492661369E-1,1.980829672E0,2.036627816E0
1.281606871E1,-2.861829069E-1,-1.274839193E-1,1.657705518E0,1.687050797E0
1.282607971E1,-3.296515466E-1,-1.028383731E0,1.515306521E0,1.860751755E0
1.283608971E1,-4.533656929E-1,-2.394727170E0,1.518255564E0,2.871473251E0
1.284609971E1,-6.648925198E-1,-4.375553334E0,1.773833267E0,4.768021969E0
1.285611071E1,-8.117383973E-1,-6.674811260E0,2.132247999E0,7.053970946E0
1.286612071E1,-7.558926639E-1,-8.896517565E0,2.498661136E0,9.271607519E0
1.287613071E1,-4.864124747E-1,-1.086055871E1,2.855943554E0,1.124031789E1
1.288614171E1,-5.373591185E-2,-1.216940882E1,2.928237652E0,1.251686759E1
1.289615171E1,4.452862296E-1,-1.283230181E1,2.868692531E0,1.315658187E1
1.290616171E1,7.029648373E-1,-1.307711070E1,2.524196219E0,1.333703679E1
1.291617171E1,1.154225752E-2,-1.343694133E1,1.809623197E0,1.355825437E1
1.292618271E1,-6.358521040E-1,-1.367417807E1,1.051907372E0,1.372931036E1
1.293619271E1,-5.734466717E-1,-1.358006129E1,9.015193239E-1,1.362202785E1
1.294620271E1,-5.107563338E-1,-1.323423474E1,1.519663866E0,1.333098719E1
1.295621371E1,-6.902433425E-1,-1.229962982E1,2.224068580E0,1.251813926E1
1.296622371E1,-4.724227189E-1,-1.131044465E1,2.664277380E0,1.162960513E1
1.297623371E1,-4.804116234E-2,-9.611093511E0,2.873960288E0,1.003170345E1
1.298624471E1,-4.656649455E-2,-7.186734406E0,2.828163140E0,7.723330021E0
1.299625471E1,-8.110938880E-1,-3.992653679E0,2.472050750E0,4.765521127E0
1.300626471E1,-2.056834412E0,-9.020113671E-1,2.010886699E0,3.014607374E0
1.301627471E1,-3.150743503E0,1.430294437E0,1.294305743E0,3.694340828E0
1.302628571E1,-3.586066954E0,3.094285712E0,3.181995555E-1,4.747181398E0
1.303629571E1,-2.846456155E0,4.725522639E0,-6.767270650E-1,5.557952534E0
1.304630571E1,-1.338636555E0,6.465279211E0,-9.910324480E-1,6.676370901E0
1.305631671E1,4.051502104E-1,8.154423453E0,-6.753323579E-1,8.192364881E0
1.306632671E1,1.869345050E0,9.931226814E0,1.022087083E-1,1.010614484E1
1.307633671E1,2.571866230E0,1.171934863E1,9.914509624E-1,1.203912801E1
1.308634671E1,3.158313893E0,1.370095481E1,2.081835060E0,1.421355503E1
1.309635771E1,3.445797513E0,1.624231261E1,3.187747607E0,1.690703919E1
1.310636771E1,3.584004641E0,1.818262341E1,3.854450644E0,1.892906953E1
1.311637771E1,4.691393903E0,1.865939135E1,1.411031955E0,1.929178772E1
1.312638871E1,4.987148702E0,1.691797592E1,-2.637310606E0,1.783381531E1
1.313639871E1,5.761655685E0,1.501018382E1,-4.948120292E0,1.682219334E1
1.314640871E1,6.268421586E0,1.364496889E1,-6.347108737E0,1.630227207E1
1.315641971E1,5.947722273E0,1.256351466E1,-6.687402070E0,1.542526004E1
1.316642971E1,6.320419121E0,1.100183095E1,-6.493752227E0,1.425330839E1
1.317643971E1,6.725769160E0,9.224467426E0,-5.598390314E0,1.271490245E1
1.318644971E1,6.945571843E0,7.858659006E0,-4.827439023E0,1.154572030E1
1.319646071E1,6.412757181E0,6.995466135E0,-4.355349450E0,1.044169861E1
1.320647071E1,4.866228282E0,6.889028683E0,-3.860635244E0,9.275958085E0
1.321648071E1,2.849652827E0,6.881544247E0,-3.267397794E0,8.133391716E0
1.322649171E1,1.297500954E0,6.769536154E0,-2.577509962E0,7.358918811E0
1.323650171E1,-6.107255951E-2,6.442937585E0,-1.835958326E0,6.699695333E0
1.324651171E1,-1.937371265E0,6.099354023E0,-6.973466132E-1,6.437532075E0
1.325652271E1,-4.365896072E0,5.780957928E0,1.127764104E0,7.331601118E0
1.326653271E1,-6.448094829E0,5.618934506E0,3.415698386E0,9.209633400E0
1.327654271E1,-6.667038556E0,6.823901811E0,4.690617685E0,1.063094226E1
1.328655271E1,-3.603535219E0,8.396255522E0,4.399851438E0,1.014106826E1
1.329656371E1,-1.851110069E-1,9.166579406E0,2.471146186E0,9.495630973E0
1.330657371E1,1.715670575E0,9.561877497E0,1.286573970E0,9.799403011E0
1.331658371E1,2.986006680E0,1.012631916E1,7.344541401E-1,1.058291069E1
1.332659471E1,3.917469303E0,1.054089494E1,4.435126229E-1,1.125405417E1
1.333660471E1,4.823816088E0,1.037871657E1,-9.123189850E-1,1.148125800E1
1.334661471E1,6.333118104E0,9.712398861E0,-2.145244020E0,1.179157108E1
1.335662571E1,7.420626540E0,7.456188721E0,-2.764658285E0,1.087675429E1
1.336663571E1,7.522521290E0,3.401996605E0,-3.745566718E0,9.065935004E0
1.337664571E1,6.523480057E0,-4.420826570E0,-5.214212458E0,9.449206907E0
1.338665571E1,2.571921778E0,-1.873892868E1,-3.794097438E0,1.929138163E1
1.339666671E1,-5.659447525E0,-3.690992900E1,3.832177430E0,3.753741852E1
1.340667671E1,-1.509870599E1,-4.581425377E1,1.150811679E1,4.959186953E1
1.341668671E1,-1.322493299E1,-3.145299628E1,9.552123172E0,3.543208835E1
1.342669771E1,-8.413708876E0,-1.508478493E1,4.650733827E0,1.788772089E1
1.343670771E1,-5.987827740E0,-5.914061022E0,5.086047923E0,9.833518307E0
1.344671771E1,-4.818160661E0,2.976540915E0,6.360657320E0,8.516597297E0
1.345672871E1,-6.015961618E0,2.704503300E0,1.455618436E0,6.754624884E0
1.346673871E1,-5.363825165E0,-4.414788151E0,-1.819366120E0,7.181299875E0
1.347674871E1,-2.589946405E0,-1.069719101E1,-1.107315879E0,1.106182021E1
1.348675871E1,1.052855498E0,-1.536690841E1,6.962724066E-1,1.541866318E1
1.349676971E1,4.073011964E0,-1.740016539E1,2.007304402E0,1.798289334E1
1.350677971E1,4.354077972E0,-1.730561825E1,-4.663341594E-1,1.785104718E1
1.351678971E1,2.484038712E0,-1.261805983E1,-5.494320985E0,1.398475760E1
1.352680071E1,-3.523442982E-1,-6.948683147E0,-9.216104153E0,1.154750708E1
1.353681071E1,-1.561844218E0,-4.231674407E0,-8.162440571E0,9.325870561E0
1.354682071E1,-1.901903955E0,-2.491346562E0,-2.909516621E0,4.276603011E0
1.355683171E1,-2.174015683E0,-8.297970843E-1,3.186425259E0,3.945657528E0
1.356684171E1,-3.129765740E0,1.067229708E0,5.918221900E0,6.779363045E0
1.357685171E1,-4.409371583E0,2.607650605E0,5.133389320E0,7.252177972E0
1.358686171E1,-3.797517475E0,4.628683392E0,4.596771628E0,7.548255316E0
1.359687271E1,-2.125926720E0,5.590220584E0,4.358384739E0,7.400381621E0
1.360688271E1,-4.080806887E-1,5.915753206E0,3.994386209E0,7.149670414E0
1.361689221E1,1.356955881E0,6.353458228E0,3.543369416E0,7.400218074E0
1.362690321E1,3.055498207E0,7.129291359E0,2.948823359E0,8.298097600E0
1.363691321E1,4.107683906E0,7.933202820E0,2.132191281E0,9.184498555E0
1.364692321E1,4.363702197E0,8.557298366E0,8.481706439E-1,9.643062046E0
1.365693321E1,4.279813364E0,8.980579476E0,-4.429243930E-1,9.958101836E0
1.366694421E1,4.240437629E0,9.338736053E0,-1.360642405E0,1.034623845E1
1.367695421E1,4.127139055E0,9.391224169E0,-1.575347486E0,1.037834707E1
1.368696421E1,3.513338116E0,8.991121421E0,-1.293462136E0,9.739448313E0
1.369697521E1,3.247585089E0,8.289252060E0,-1.092779117E0,8.969541506E0
1.370698521E1,3.168140431E0,7.252088735E0,9.003820404E-2,7.914417963E0
1.371699521E1,2.982303931E0,6.019002171E0,1.232486494E0,6.829461679E0
1.372700621E1,2.775632632E0,4.778664474E0,1.637906261E0,5.763896909E0
1.373701621E1,2.617083041E0,3.815183083E0,1.183132047E0,4.775410667E0
1.374702621E1,3.293427844E0,3.019067130E0,1.010262917E0,4.580618349E0
1.375703621E1,2.825297712E0,2.250067055E0,5.374254844E-1,3.651566112E0
1.376704721E1,1.778296447E0,1.420256522E0,-2.265939322E-1,2.287096774E0
1.377705721E1,6.020426260E-1,3.177067083E-1,-6.793587506E-1,9.617282298E-1
1.378706721E1,-3.688400245E-1,-7.756951368E-1,-5.717416236E-1,1.031811220E0
1.379707821E1,-1.220781245E0,-1.957532610E0,3.162557217E-1,2.328574339E0
1.380708821E1,-1.961151014E0,-3.303096800E0,1.058373515E0,3.984559733E0
1.381709821E1,-2.409949958E0,-4.777263481E0,1.590942594E0,5.582222094E0
1.382710921E1,-2.728386837E0,-6.565389390E0,1.790664770E0,7.331774198E0
1.383711921E1,-3.101185719E0,-9.075247067E0,1.253510889E0,9.672060367E0
1.384712921E1,-3.432093979E0,-1.194653167E1,5.686656958E-1,1.244275969E1
1.385713921E1,-3.345694935E0,-1.433262835E1,4.206051323E-1,1.472395391E1
1.386715021E1,-2.755791568E0,-1.620832391E1,5.378409290E-1,1.644972414E1
1.387716021E1,-1.826550010E0,-1.778944494E1,3.858326179E-1,1.788713233E1
1.388717021E1,-8.319006202E-1,-1.876823376E1,-2.620341986E-2,1.878667995E1
1.389718121E1,-2.313392401E-2,-1.894932904E1,7.377885148E-2,1.894948679E1
1.390719121E1,8.909434649E-1,-1.837829932E1,7.591754369E-1,1.841553728E1
1.391720121E1,1.792238110E0,-1.751211384E1,1.442444074E0,1.766258456E1
1.392721221E1,2.783415568E0,-1.641773142E1,2.036192864E0,1.677603614E1
1.393722221E1,3.444955806E0,-1.500028565E1,2.852278227E0,1.565285218E1
1.394723221E1,2.834338970E0,-1.261876383E1,4.177219287E0,1.359102053E1
1.395724221E1,4.818542777E-1,-9.113233504E0,5.879233251E0,1.085580914E1
1.396725321E1,-3.437355011E0,-6.418379864E0,5.644587995E0,9.212620864E0
1.397726321E1,-4.590339106E0,-3.540759219E0,3.541748568E0,6.793538980E0
1.398727321E1,-4.096296161E0,-1.598424107E-1,1.069689705E0,4.236676516E0
1.399728421E1,-3.382131275E0,2.238770819E0,-1.155365447E0,4.217318586E0
1.400729421E1,-2.755010672E0,3.838941489E0,-2.797267622E0,5.491107512E0
1.401730421E1,-2.083013273E0,5.318744302E0,-3.843584763E0,6.884847789E0
1.402731521E1,-1.757375987E0,6.749151006E0,-4.610769863E0,8.360538761E0
1.403732521E1,-1.491760076E0,8.105654751E0,-4.906686337E0,9.591796384E0
1.404733521E1,-1.081316235E0,9.572557436E0,-4.597653973E0,1.067433945E1
1.405734521E1,-5.349860260E-1,1.131271103E1,-4.286687935E0,1.210947292E1
1.406735621E1,6.040030512E-1,1.339962440E1,-3.146142329E0,1.377726262E1
1.407736621E1,2.930453746E0,1.633616159E1,1.346799560E0,1.665147452E1
1.408737621E1,5.893722067E0,1.856533771E1,4.147418953E0,1.991503975E1
1.409738721E1,1.013770603E1,1.966008383E1,4.243967008E0,2.252339308E1
1.410739721E1,1.248662378E1,1.994419770E1,2.396137519E0,2.365223605E1
1.411740721E1,1.150001138E1,1.752627112E1,-1.115219999E0,2.099200221E1
1.412741721E1,9.751792138E0,1.449671642E1,-3.348631992E0,1.778947928E1
1.413742821E1,8.663897785E0,1.308524066E1,-5.345746744E0,1.657901253E1
1.414743821E1,7.212234698E0,1.207731868E1,-6.436969332E0,1.546972947E1
1.415744821E1,5.698419802E0,1.097767844E1,-6.142980684E0,1.381005517E1
1.416745921E1,3.954680399E0,9.844420220E0,-5.332506309E0,1.187382542E1
1.417746921E1,2.047772543E0,8.473113663E0,-4.582098041E0,9.847976949E0
1.418747921E1,4.009969331E-1,6.557065294E0,-3.524047292E0,7.454851650E0
1.419749021E1,-1.792129351E0,4.004253386E0,-1.876128843E0,4.771334428E0
1.420750021E1,-4.789104970E0,1.022975056E0,9.239084588E-1,4.983534009E0
1.421751021E1,-7.745343475E0,-6.801218122E-1,3.629880141E0,8.580730800E0
1.422752021E1,-8.301058758E0,1.563934305E0,4.185670853E0,9.427264052E0
1.423753121E1,-4.834338153E0,5.409530511E0,3.215289747E0,7.935485737E0
1.424754121E1,-1.341011109E0,7.642982703E0,1.279274306E0,7.864479521E0
1.425755121E1,4.765407667E-1,9.166164254E0,3.902566943E-1,9.186836154E0
1.426756221E1,2.049956917E0,1.065286678E1,3.493617797E-1,1.085393697E1
1.427757221E1,3.344783354E0,1.191608405E1,7.926667533E-1,1.240197385E1
1.428758221E1,4.407268631E0,1.277742803E1,1.056246298E0,1.355737217E1
1.429759321E1,5.598080996E0,1.314427883E1,4.882319820E-1,1.429506724E1
1.430760321E1,6.203538542E0,1.174657444E1,-9.175428144E-1,1.331569699E1
1.431761321E1,6.283695683E0,8.520564403E0,-2.255928304E0,1.082469684E1
1.432762321E1,5.742514240E0,3.243538815E0,-2.632899467E0,7.101350114E0
1.433763421E1,3.646493250E0,-9.383246813E0,-2.112163544E0,1.028608130E1
1.434764421E1,-1.883606409E0,-3.154283290E1,9.707046027E-1,3.161392965E1
1.435765421E1,-1.184699803E1,-4.741553483E1,9.386687315E0,4.976639633E1
1.436766521E1,-1.541999528E1,-3.728198733E1,9.151676023E0,4.136998922E1
1.437767521E1,-7.478421589E0,-1.712968489E1,2.034900629E0,1.880142852E1
1.438768521E1,-5.180940047E0,-8.123955951E0,1.580487188E0,9.764155868E0
1.439769521E1,-3.290776716E0,-6.688542277E0,4.169888341E0,8.541298376E0
1.440770621E1,-4.601694399E0,-8.539592997E0,3.428000635E0,1.028841233E1
1.441771621E1,-6.258923954E0,-8.658028350E0,6.652640373E-1,1.070411884E1
1.442772621E1,-5.944936659E0,-8.408765055E0,-1.167839824E0,1.036404610E1
1.443773721E1,-3.653399981E0,-9.896670939E0,-2.644393339E0,1.087585598E1
1.444774721E1,-2.228290562E-1,-1.010495227E1,-2.444770127E0,1.039887562E1
1.445775721E1,2.700869840E0,-9.446451706E0,-1.665089090E0,9.965072473E0
1.446776821E1,4.823757616E0,-8.720408201E0,-2.083033739E0,1.018102089E1
1.447777821E1,5.353081491E0,-7.100199122E0,-2.718853537E0,9.298412423E0
1.448778821E1,4.196404002E0,-4.257550090E0,-2.776786872E0,6.591440256E0
1.449779821E1,2.560346338E0,-1.384780880E0,-1.665870862E0,3.353821281E0
1.450780921E1,1.408935874E0,6.136021328E-1,2.697734271E-1,1.560251767E0
1.451781921E1,-3.234634383E-1,2.220060314E0,2.192949552E0,3.137247860E0
1.452782921E1,-1.884223729E0,3.838916931E0,4.003054122E0,5.857646675E0
1.453784021E1,-2.918939994E0,5.605606363E0,5.172001408E0,8.166555697E0
1.454785021E1,-3.222770675E0,7.385127509E0,5.281893979E0,9.634560870E0
1.455786021E1,-2.289730766E0,8.739516317E0,4.763246536E0,1.021325266E1
1.456787121E1,-7.899671669E-1,9.389662378E0,3.769953700E0,1.014900776E1
1.457788121E1,6.705927511E-1,9.516582041E0,2.518836662E0,9.867095140E0
1.458789121E1,1.854803025E0,9.474363974E0,1.198936340E0,9.728376808E0
1.459790121E1,2.965283856E0,9.200244166E0,-3.062449962E-1,9.671152312E0
1.460791221E1,3.619511858E0,8.698423839E0,-1.922923818E0,9.615668432E0
1.461792171E1,3.774249357E0,7.987978951E0,-3.144771157E0,9.377758344E0
1.462793171E1,4.075019313E0,7.057025621E0,-3.530610207E0,8.881024797E0
1.463794271E1,4.316247364E0,6.043015516E0,-2.678097859E0,7.894316688E0
1.464795271E1,4.090617346E0,4.908345777E0,-1.191049177E0,6.499508187E0
1.465796271E1,3.412562232E0,3.785986766E0,3.071004438E-1,5.106230259E0
1.466797371E1,2.786418406E0,2.363846855E0,1.860719968E0,4.100509516E0
1.467798371E1,2.249303847E0,5.884047264E-1,3.221269987E0,3.972677718E0
1.468799371E1,1.340140751E0,-7.251009339E-1,3.996138912E0,4.276783231E0
1.469800371E1,5.786889929E-1,-1.420685123E0,4.055741043E0,4.336157582E0
1.470801471E1,5.066236679E-1,-1.736496164E0,3.081166899E0,3.572908609E0
1.471802471E1,7.944402869E-1,-1.319513090E0,1.967841544E0,2.498929872E0
1.472803471E1,1.075330879E0,-4.550823623E-1,3.513907635E-1,1.219389980E0
1.473804571E1,1.031857561E0,3.630927962E-1,-1.701164071E0,2.022504784E0
1.474805571E1,5.110624355E-1,1.048860095E0,-3.436919393E0,3.629560198E0
1.475806571E1,-1.306481400E-1,1.496520587E0,-4.329664385E0,4.582863351E0
1.476807671E1,8.071247980E-2,1.229318619E0,-4.058798845E0,4.241649070E0
1.477808671E1,-1.297940811E-1,-3.186603892E-1,-2.692335537E0,2.714233149E0
1.478809671E1,-4.747180434E-1,-2.229129345E0,-8.964293227E-1,2.449073374E0
1.479810671E1,-7.051389782E-1,-3.711530076E0,1.025779381E0,3.914703031E0
1.480811771E1,-1.263149001E0,-4.912042387E0,2.356548068E0,5.592586575E0
1.481812771E1,-2.295766992E0,-6.653770055E0,2.476764191E0,7.461739936E0
1.482813771E1,-3.324833239E0,-8.742110726E0,2.105811567E0,9.587150691E0
1.483814871E1,-4.057792246E0,-1.098720239E1,1.785770066E0,1.184792256E1
1.484815871E1,-4.523649273E0,-1.329961479E1,1.490027546E0,1.412668887E1
1.485816871E1,-4.547254483E0,-1.522743945E1,1.485826614E0,1.596120661E1
1.486817871E1,-4.019877146E0,-1.602170301E1,1.767124172E0,1.661255873E1
1.487818971E1,-3.146017199E0,-1.553386396E1,1.831004418E0,1.595465233E1
1.488819971E1,-1.864641257E0,-1.485073960E1,1.446547650E0,1.503708263E1
1.489820971E1,-1.629041590E-1,-1.468007341E1,1.196688086E0,1.472966923E1
1.490822071E1,1.781477040E0,-1.478971806E1,1.488183042E0,1.497077518E1
1.491823071E1,3.749229414E0,-1.503744822E1,2.054293943E0,1.563335196E1
1.492824071E1,5.254454166E0,-1.481328468E1,2.529021342E0,1.591975629E1
1.493825171E1,5.367634626E0,-1.332122493E1,2.622552819E0,1.459946295E1
1.494826171E1,2.419137834E0,-9.847831485E0,2.716559674E0,1.049817647E1
1.495827171E1,-9.718664445E-1,-6.035479624E0,3.308263400E0,6.950981614E0
1.496828171E1,-4.076634022E0,-3.149667031E0,2.968773474E0,5.945835794E0
1.497829271E1,-5.079703109E0,-7.958446419E-1,1.444906045E0,5.340833816E0
1.498830271E1,-4.528576429E0,1.221209115E0,-1.282786290E-1,4.692100978E0
1.499831271E1,-3.246349572E0,2.881272231E0,-1.157351746E0,4.492213071E0
1.500832371E1,-2.210613699E0,4.536388017E0,-1.760373854E0,5.344580926E0
1.501833371E1,-1.263378796E0,6.233910150E0,-2.305126192E0,6.765454050E0
1.502834371E1,-6.484166010E-1,7.850322631E0,-2.685784024E0,8.322346143E0
1.503835471E1,-5.851162523E-3,9.507070960E0,-2.415750250E0,9.809193735E0
1.504836471E1,8.765816800E-1,1.090254757E1,-5.374995247E-1,1.095092894E1
1.505837471E1,1.264662845E0,1.247685542E1,1.316785364E0,1.260972708E1
1.506838471E1,1.916444957E0,1.484401414E1,4.227574339E0,1.555281009E1
1.507839571E1,3.705990424E0,1.751745118E1,5.794284902E0,1.881938358E1
1.508840571E1,4.967139530E0,1.853588178E1,2.798496122E0,1.939285871E1
1.509841571E1,5.927252340E0,1.849407653E1,-4.169355659E-1,1.942516466E1
1.510842671E1,6.453578348E0,1.727853395E1,-3.376291076E0,1.875088665E1
1.511843671E1,6.708778321E0,1.472903800E1,-5.319821944E0,1.703680640E1
1.512844671E1,7.157093700E0,1.236304872E1,-6.139168299E0,1.554858036E1
1.513845671E1,7.953834136E0,1.065362926E1,-5.911839080E0,1.455036546E1
1.514846771E1,7.839463182E0,9.245748367E0,-5.467696273E0,1.329799791E1
1.515847771E1,6.838749061E0,7.941736246E0,-4.706459547E0,1.148870858E1
1.516848771E1,5.259499728E0,6.643692378E0,-3.745757337E0,9.264539052E0
1.517849871E1,3.338053209E0,5.735037405E0,-2.916908671E0,7.248559130E0
1.518850871E1,1.583048561E0,5.452339731E0,-1.950852751E0,6.003322226E0
1.519851871E1,-3.722694165E-1,5.350226296E0,-6.828004948E-1,5.406451928E0
1.520852971E1,-2.155903202E0,5.457011071E0,7.500573619E-1,5.915190149E0
1.521853971E1,-3.735614172E0,5.922006803E0,2.631410181E0,7.479926294E0
1.522854971E1,-4.215264781E0,6.940508155E0,4.464943228E0,9.266867251E0
1.523855971E1,-2.595927230E0,8.531326788E0,4.562585297E0,1.001696359E1
1.524857071E1,-4.084918942E-1,9.629740866E0,2.842464260E0,1.004879982E1
1.525858071E1,1.074779779E0,1.027575762E1,1.795775821E0,1.048671336E1
1.526859071E1,2.257767254E0,1.063666999E1,1.053889285E0,1.092460270E1
1.527860171E1,3.182322561E0,1.052750248E1,-2.137093002E-1,1.100005259E1
1.528861171E1,3.781810099E0,9.866049070E0,-1.257810931E0,1.064063439E1
1.529862171E1,4.065554133E0,8.079808888E0,-2.021891159E0,9.268229925E0
1.530863271E1,4.202443006E0,4.982970867E0,-2.281348343E0,6.906162186E0
1.531864271E1,3.564743913E0,-1.513564636E0,-1.569379817E0,4.178663672E0
1.532865271E1,1.339186924E0,-1.578782023E1,1.329150470E0,1.590016762E1
1.533866271E1,-4.814381606E0,-3.366659542E1,7.299603209E0,3.478364737E1
1.534867371E1,-1.176504111E1,-3.921258825E1,9.922004585E0,4.212468926E1
1.535868371E1,-1.306810248E1,-3.018628823E1,3.987959535E0,3.313444010E1
1.536869371E1,-9.275982565E0,-1.800548553E1,-2.350102975E0,2.039030028E1
1.537870471E1,-6.648336822E0,-1.527143040E1,-2.160297677E0,1.679535218E1
1.538871471E1,-3.544789120E0,-1.514444525E1,4.456572354E-1,1.556015302E1
1.539872471E1,-1.229558208E0,-1.153297097E1,1.964878906E0,1.176358712E1
1.540873571E1,-7.473636228E-1,-7.951712181E0,9.763511127E-1,8.046212804E0
1.541874571E1,1.200912845E-1,-7.155474021E0,-1.354630882E0,7.283560614E0
1.542875571E1,1.702102111E0,-7.106143402E0,-2.593952917E0,7.753903364E0
1.543876571E1,2.757507725E0,-7.313319608E0,-9.459629868E-1,7.872949798E0
1.544877671E1,3.296963071E0,-7.249157526E0,1.168296492E0,8.048923345E0
1.545878671E1,3.262478239E0,-5.212184644E0,9.949030124E-1,6.229001929E0
1.546879671E1,2.154064399E0,-2.530608276E0,-1.402498528E-2,3.323276754E0
1.547880771E1,1.328640593E0,-1.385585457E-1,-1.433977014E0,1.959789370E0
1.548881771E1,3.861657630E-1,1.739827908E0,-2.744151515E0,3.272077732E0
1.549882771E1,-5.267967081E-1,3.113763372E0,-3.051952456E0,4.391748046E0
1.550883771E1,-1.353393757E0,3.943635886E0,-2.354801797E0,4.788426690E0
1.551884871E1,-2.016518006E0,4.405823784E0,-1.507643745E0,5.074506651E0
1.552885871E1,-2.666829397E0,4.994378200E0,-5.444810271E-1,5.687904027E0
1.553886871E1,-2.674222032E0,5.814329742E0,3.689540452E-1,6.410461833E0
1.554887971E1,-1.973340704E0,6.751412124E0,1.194282614E0,7.134560264E0
1.555888971E1,-1.220191846E0,7.751447968E0,1.937093083E0,8.082458992E0
1.556889971E1,1.457232852E-1,8.730560721E0,2.305539590E0,9.031026441E0
1.557891071E1,1.682665527E0,9.206722296E0,2.195896111E0,9.613379137E0
1.558892071E1,2.807774777E0,9.266421198E0,1.116875346E0,9.746669768E0
1.559893071E1,3.667494110E0,9.222222095E0,3.356319326E-1,9.930384797E0
1.560894071E1,4.107408795E0,9.156540322E0,-2.686924231E-1,1.003918489E1
1.561895200E1,4.174354444E0,9.105185981E0,-9.050548428E-1,1.005727453E1
1.562896200E1,4.056704080E0,8.870136682E0,-1.759409063E0,9.911190292E0
1.563897200E1,4.089705472E0,8.348762097E0,-2.890006217E0,9.735484340E0
1.564898300E1,4.247983460E0,7.336181636E0,-3.729874545E0,9.261581323E0
1.565899300E1,3.687248343E0,5.749457808E0,-3.363445036E0,7.613463597E0
1.566900300E1,1.531487813E0,4.182761863E0,-1.605885300E0,4.734957161E0
1.567901400E1,-7.611379087E-1,2.529963913E0,4.998340273E-1,2.688844059E0
1.568902400E1,-2.293790049E0,2.220848519E-1,2.246546301E0,3.218348140E0
1.569903400E1,-3.014404560E0,-2.459372233E0,4.098253809E0,5.650737201E0
1.570904400E1,-3.292125669E0,-5.926872856E0,5.900261593E0,8.987713844E0
1.571905500E1,-2.467509218E0,-7.513101425E0,7.423023899E0,1.084603976E1
1.572906500E1,-6.894004664E-1,-5.223166884E0,7.363770554E0,9.054383583E0
1.573907500E1,7.942794885E-1,-1.097759775E0,4.514294897E0,4.713259472E0
1.574908600E1,1.412934054E0,1.013418952E0,9.358085659E-1,1.974623581E0
1.575909600E1,1.207959471E0,1.580609395E0,-2.144484175E0,2.925116155E0
1.576910600E1,7.643699571E-1,1.430460498E0,-4.905745520E0,5.166896339E0
1.577911700E1,3.710355078E-1,7.441593486E-1,-6.524485778E0,6.577260459E0
1.578912700E1,2.134184012E-1,-6.667948383E-1,-5.857979207E0,5.899668055E0
1.579913700E1,4.307192074E-1,-2.492187392E0,-3.693346112E0,4.476306796E0
1.580914700E1,4.977835549E-1,-3.876292918E0,-7.442116812E-1,3.978352207E0
1.581915800E1,5.022504622E-1,-5.218223063E0,1.766039514E0,5.531817335E0
1.582916800E1,-3.000864163E-1,-7.444760923E0,3.658760416E0,8.300665325E0
1.583917800E1,-1.868167275E0,-1.017568721E1,4.657428597E0,1.134576133E1
1.584918900E1,-2.687897208E0,-1.306824632E1,4.654003298E0,1.413023708E1
1.585919900E1,-2.589578908E0,-1.500670473E1,4.127952402E0,1.577805744E1
1.586920900E1,-2.648106905E0,-1.566040589E1,3.159985027E0,1.619402014E1
1.587922000E1,-2.554811071E0,-1.524109270E1,1.901184747E0,1.557024309E1
1.588923000E1,-2.338718738E0,-1.465743299E1,8.115072861E-1,1.486500896E1
1.589924000E1,-2.230052328E0,-1.514256946E1,1.593676168E-1,1.530672863E1
1.590925000E1,-1.671240507E0,-1.659332213E1,-1.722851394E-1,1.667816136E1
1.591926100E1,-2.368708523E-1,-1.793102006E1,3.578646545E-1,1.793615498E1
1.592927100E1,1.389426493E0,-1.809217401E1,1.486630606E0,1.820624444E1
1.593928100E1,2.353695504E0,-1.721505891E1,2.083792707E0,1.749972365E1
1.594929200E1,2.163520224E0,-1.533529603E1,2.298940276E0,1.565685953E1
1.595930200E1,8.943276872E-1,-1.241022406E1,2.843681943E0,1.276322883E1
1.596931200E1,-1.214481601E0,-8.567429836E0,3.858939552E0,9.474557194E0
1.597932200E1,-4.537054015E0,-5.136881277E0,3.802435568E0,7.837788249E0
1.598933300E1,-6.194085934E0,-2.775437043E0,1.430792620E0,6.936635990E0
1.599934300E1,-5.744054396E0,1.769741678E-1,-1.897672179E-1,5.749912378E0
1.600935300E1,-4.691939156E0,2.881230716E0,1.364646578E-1,5.507667935E0
1.601936400E1,-3.096735403E0,5.325242897E0,1.362921649E-1,6.161700871E0
1.602937400E1,-1.553611923E0,7.723859636E0,3.932650137E-1,7.888369607E0
1.603938400E1,-5.448261590E-1,9.817959230E0,1.337161156E0,9.923565838E0
1.604939500E1,-4.479396960E-1,1.190817160E1,2.253418095E0,1.212778190E1
1.605940500E1,-5.052731073E-1,1.368368097E1,2.660176143E0,1.394901297E1
1.606941500E1,-1.823376726E-1,1.558684558E1,3.070000471E0,1.588735047E1
1.607942500E1,1.306113610E0,1.785881397E1,4.220640126E0,1.839720012E1
1.608943600E1,3.785199730E0,1.989712060E1,4.172900534E0,2.067936759E1
1.609944600E1,5.605556077E0,2.028281230E1,1.131066100E0,2.107353896E1
1.610945600E1,6.300378374E0,1.931407835E1,-2.449529761E0,2.046285871E1
1.611946700E1,7.057003402E0,1.751896210E1,-4.809684538E0,1.948969973E1
1.612947700E1,7.499364561E0,1.467351050E1,-5.990925010E0,1.753406860E1
1.613948700E1,8.511566123E0,1.213431266E1,-5.812624109E0,1.592089510E1
1.614949700E1,9.616394597E0,9.949541463E0,-5.526903425E0,1.490017053E1
1.615950800E1,1.000052567E1,8.459760377E0,-5.692818754E0,1.428237532E1
1.616951800E1,9.397622777E0,7.053774569E0,-5.566779681E0,1.300231078E1
1.617952800E1,7.690407715E0,5.524369826E0,-5.785229319E0,1.109639180E1
1.618953900E1,5.283774444E0,4.238615052E0,-5.743633981E0,8.881073203E0
1.619954900E1,3.416039279E0,3.521058195E0,-5.621090959E0,7.460820246E0
1.620955900E1,1.811496645E0,2.999967785E0,-4.810821821E0,5.951918464E0
1.621957000E1,-4.061911610E-1,3.062150584E0,-3.013314055E0,4.315300575E0
1.622958000E1,-3.076725062E0,3.412690578E0,4.423652530E-2,4.595068112E0
1.623959000E1,-5.876235968E0,4.428796325E0,3.396744052E0,8.104459032E0
1.624960000E1,-6.622193336E0,7.061693453E0,4.404675976E0,1.063588875E1
1.625961100E1,-5.190758691E0,9.853837745E0,3.871727997E0,1.179119891E1
1.626962100E1,-2.883232217E0,1.165227522E1,4.054851097E0,1.267005774E1
1.627963100E1,-9.793682760E-1,1.249053556E1,4.274911643E0,1.323810826E1
1.628964200E1,9.599340315E-1,1.273985382E1,4.107621633E0,1.342005604E1
1.629965200E1,2.875332629E0,1.266408209E1,2.787732568E0,1.328224250E1
1.630966200E1,4.050804824E0,1.255339313E1,9.516296697E-1,1.322506325E1
1.631967300E1,4.507009851E0,1.198661199E1,-7.810040431E-1,1.282973001E1
1.632968300E1,4.644451579E0,1.082250854E1,-2.226361420E0,1.198558746E1
1.633969300E1,4.761536810E0,8.678048047E0,-3.081112520E0,1.036696701E1
1.634970300E1,4.314048811E0,4.054792625E0,-3.092603468E0,6.679562604E0
1.635971400E1,2.534522987E0,-9.231911516E0,-1.948592802E0,9.769800966E0
1.636972400E1,-5.023569839E0,-4.247276181E1,4.987269155E0,4.305861823E1
1.637973400E1,-1.361965513E1,-6.065587172E1,1.425934169E1,6.378055036E1
1.638974500E1,-1.426736524E1,-4.118183693E1,6.625723300E0,4.408402900E1
1.639975500E1,-7.240677309E0,-1.425948670E1,-2.063331399E0,1.612506450E1
1.640976500E1,-4.128803757E0,-7.218751420E0,-3.046903385E0,8.856693105E0
1.641977600E1,-1.612057182E0,-8.190290274E0,-1.256333925E0,8.441442890E0
1.642978600E1,1.616517731E0,-1.124846300E1,1.145452882E0,1.142160723E1
1.643979600E1,4.207610191E0,-1.306416730E1,2.835364571E-1,1.372795847E1
1.644980600E1,4.128980927E0,-1.087581176E1,-2.071058787E0,1.181613513E1
1.645981700E1,2.876200648E0,-8.664522268E0,-3.543168857E0,9.792881182E0
1.646982700E1,1.226836183E0,-7.419507383E0,-2.979053172E0,8.088817876E0
1.647983700E1,-1.711028324E-1,-5.982416727E0,-1.286630834E0,6.121601504E0
1.648984800E1,-1.212737669E0,-4.198958650E0,-2.602572298E-1,4.378323906E0
1.649985800E1,-2.231693496E0,-2.446970873E0,1.971021844E-1,3.317675629E0
1.650986800E1,-2.977522078E0,-8.857631242E-1,1.819286598E-1,3.111802062E0
1.651987900E1,-3.487003427E0,3.839059603E-1,3.340162738E-1,3.523938642E0
1.652988900E1,-3.609968325E0,1.637604545E0,1.220884376E0,4.147792017E0
1.653989900E1,-3.397684576E0,2.900626515E0,2.052021861E0,4.916166024E0
1.654990900E1,-2.681913167E0,3.972936868E0,2.831466817E0,5.567233598E0
1.655992000E1,-1.877224027E0,5.067640888E0,3.529964674E0,6.454889993E0
1.656993000E1,-8.766819598E-1,5.956025904E0,3.242775754E0,6.838012168E0
1.657994000E1,2.773816779E-1,6.534005629E0,1.873248505E0,6.802883956E0
1.658995100E1,1.338563026E0,7.055180240E0,1.053793391E0,7.257947348E0
1.659996100E1,2.274123816E0,7.446249039E0,3.677647215E-1,7.794454104E0
1.660997100E1,3.043523110E0,7.865373949E0,-2.885531489E-1,8.438625670E0
1.661998183E1,3.472694705E0,8.290537863E0,-7.299851862E-1,9.018065477E0
