"Time (s)","Linear Acceleration x (m/s^2)","Linear Acceleration y (m/s^2)","Linear Acceleration z (m/s^2)","Absolute acceleration (m/s^2)"
1.090559000E-2,0.000000000E0,0.000000000E0,0.000000000E0,0.000000000E0
1.579902800E-2,1.292471886E-1,-5.249166489E-2,3.151893616E-2,1.430162717E-1
2.069303800E-2,7.087564468E-2,-1.974720955E-1,-1.238875389E-1,2.436528428E-1
2.558694400E-2,-9.892416000E-2,1.749763489E-1,-1.333637238E-1,2.412231227E-1
3.048085000E-2,-6.953334808E-2,1.722230911E-1,-2.108097076E-2,1.869226764E-1
3.537475700E-2,-5.817937851E-2,8.485698700E-2,4.245233536E-2,1.113002655E-1
4.026861100E-2,-7.439088821E-2,-6.816482544E-2,5.422401428E-2,1.145455866E-1
4.516251700E-2,-1.767330170E-1,-1.645312309E-1,-6.622409821E-2,2.503811423E-1
5.005642300E-2,-5.633068085E-1,-5.387401581E-2,-5.177450180E-1,7.669920950E-1
5.495033000E-2,-1.007299900E0,2.826995850E-1,-8.338842392E-1,1.337884550E0
5.984423600E-2,-1.664755344E0,3.830432892E-1,-1.283372402E0,2.136627539E0
6.473814200E-2,-1.746770382E0,4.648756981E-1,-1.016232491E0,2.073654903E0
6.963199600E-2,-1.747184753E0,5.188393593E-1,-8.105010986E-1,1.994683151E0
7.452590300E-2,-2.252210140E0,8.250422478E-1,-1.740661860E0,2.963620916E0
7.941980900E-2,-3.027471542E0,1.348437786E0,-2.372410297E0,4.075806549E0
8.431371500E-2,-3.481968880E0,1.588547707E0,-1.403906107E0,4.076584778E0
8.920762100E-2,-4.016109467E0,1.802141190E0,-8.452329636E-1,4.482328288E0
9.410147500E-2,-4.650625229E0,1.876944542E0,-5.933194160E-1,5.050075619E0
9.899538200E-2,-5.187379360E0,1.773426056E0,-5.101733208E-1,5.505835215E0
1.038892880E-1,-5.496109009E0,1.650729179E0,-5.461239815E-1,5.764579123E0
1.087831940E-1,-5.613001823E0,1.503398895E0,-6.963229179E-1,5.852423713E0
1.136771000E-1,-5.558631897E0,1.356194496E0,-7.415490150E-1,5.769536118E0
1.185710070E-1,-5.242191315E0,1.128028870E0,-5.824179649E-1,5.393721312E0
1.234649130E-1,-4.721546173E0,9.220099449E-1,-4.523918629E-1,4.831951883E0
1.283587670E-1,-4.170227051E0,6.589426994E-1,-3.735470772E-1,4.238459219E0
1.332526730E-1,-3.596249580E0,4.518165588E-1,-2.527875900E-1,3.633325035E0
1.381465800E-1,-3.064498901E0,6.693029404E-2,-1.358053684E-1,3.068236673E0
1.430404860E-1,-2.603038788E0,-4.010019302E-1,-1.470510960E-1,2.637847134E0
1.479343920E-1,-2.247108459E0,-7.938995361E-1,1.667037010E-1,2.389050654E0
1.528282460E-1,-1.810848236E0,-1.289263248E0,3.249514103E-1,2.246545009E0
1.577221530E-1,-1.287702560E0,-1.825367451E0,3.212988377E-1,2.256851160E0
1.626160590E-1,-7.736225128E-1,-2.395563602E0,5.578873158E-1,2.578459816E0
1.675099650E-1,-2.923555374E-1,-2.896262169E0,8.469700813E-1,3.031693360E0
1.724038710E-1,1.980514526E-1,-3.277953148E0,1.095154285E0,3.461728488E0
1.772977780E-1,8.574528694E-1,-3.651905060E0,1.221246004E0,3.945006691E0
1.821916320E-1,1.667867661E0,-4.093125343E0,1.161129713E0,4.569866499E0
1.870855380E-1,2.444142342E0,-4.677589417E0,9.900386333E-1,5.369716103E0
1.919794440E-1,3.212768078E0,-5.286294937E0,8.314859867E-1,6.241647365E0
1.968733500E-1,3.964828491E0,-5.814685345E0,8.114440441E-1,7.084410495E0
2.017672570E-1,4.598113060E0,-6.473949432E0,6.795330048E-1,7.969719573E0
2.066611110E-1,5.095569134E0,-7.204748631E0,6.988990307E-1,8.852213705E0
2.115550170E-1,5.542422295E0,-8.014896393E0,7.918641567E-1,9.776709974E0
2.164489230E-1,6.004911423E0,-8.667025566E0,1.057724833E0,1.059693707E1
2.213428300E-1,6.259701729E0,-9.097498894E0,1.445954561E0,1.113728587E1
2.262367360E-1,6.394028187E0,-9.253713608E0,1.820489645E0,1.139425270E1
2.311306420E-1,6.549251080E0,-9.247714996E0,1.920169115E0,1.149347518E1
2.360244960E-1,6.572906494E0,-9.081744194E0,1.908011079E0,1.137196921E1
2.409184030E-1,6.474765778E0,-8.767358780E0,1.910599470E0,1.106524117E1
2.458123090E-1,6.231624603E0,-8.479616165E0,1.861704111E0,1.068657933E1
2.507062150E-1,5.832637310E0,-8.342768669E0,1.553979158E0,1.029739279E1
2.555065800E-1,5.383118153E0,-8.286545753E0,9.992456436E-1,9.931933016E0
2.603044960E-1,4.953599930E0,-8.241133690E0,7.243507504E-1,9.642568163E0
2.651024650E-1,4.475871086E0,-8.246110916E0,8.744614124E-1,9.423186827E0
2.699004340E-1,4.113500595E0,-8.213555336E0,1.335750580E0,9.282650915E0
2.746984030E-1,3.736402750E0,-8.047735214E0,2.143900871E0,9.128146501E0
2.794963710E-1,3.654430389E0,-7.851823807E0,2.862867355E0,9.121513474E0
2.842943400E-1,3.352017879E0,-7.605183601E0,3.522020578E0,9.026597943E0
2.890923090E-1,3.011515141E0,-7.237999916E0,4.013483524E0,8.807151425E0
2.938902250E-1,2.614553452E0,-6.865117073E0,4.406260490E0,8.566262527E0
2.986881940E-1,2.229924202E0,-6.413523197E0,4.679878235E0,8.246641864E0
3.034861630E-1,1.772165298E0,-6.317843914E0,4.803194046E0,8.131813734E0
3.082841320E-1,1.143148899E0,-6.414954185E0,5.140543461E0,8.299615273E0
3.130821000E-1,5.402946472E-1,-6.784860611E0,5.277441025E0,8.612643937E0
3.178800690E-1,-2.193965912E-1,-7.184133053E0,5.384374619E0,8.980612040E0
3.226779860E-1,-1.073764324E0,-7.462877274E0,5.437391281E0,9.295844823E0
3.274759550E-1,-2.039338112E0,-7.666820526E0,5.173069000E0,9.470991490E0
3.322739230E-1,-3.212378502E0,-7.583633423E0,5.494618893E0,9.900591311E0
3.370718920E-1,-3.724092007E0,-6.940166950E0,4.841130257E0,9.245070077E0
3.418698610E-1,-4.970463276E0,-6.595757484E0,4.391600609E0,9.353912437E0
3.466678300E-1,-6.493938923E0,-6.154419899E0,4.257445335E0,9.908277742E0
3.514657460E-1,-7.782215118E0,-5.734642506E0,3.982241154E0,1.045501035E1
3.562637150E-1,-9.042270660E0,-5.323709965E0,3.808854580E0,1.116297092E1
3.610616840E-1,-1.023918438E1,-4.583816528E0,2.505886316E0,1.149485698E1
3.658596530E-1,-1.139911842E1,-4.054464817E0,1.988524914E0,1.226102839E1
3.706576210E-1,-1.225259590E1,-3.786216736E0,2.156131268E0,1.300424721E1
3.754555900E-1,-1.206830978E1,-4.271981716E0,3.254596233E0,1.320932721E1
3.802535070E-1,-1.294578743E1,-3.324387074E0,-1.364534616E0,1.343528624E1
3.850514750E-1,-1.311077499E1,-4.009926796E0,2.936131001E0,1.402115541E1
3.898494440E-1,-1.403496933E1,-4.071749210E0,-9.641410112E-1,1.464544549E1
3.946474130E-1,-1.503618813E1,-4.173191547E0,3.245355368E0,1.593846958E1
3.994453820E-1,-1.578344154E1,-3.148613930E0,3.420325994E0,1.645385750E1
4.042433500E-1,-1.628080559E1,-2.071106911E0,1.723808050E0,1.650229162E1
4.090412670E-1,-1.651850319E1,-1.323783398E0,7.660007477E-2,1.657163896E1
4.138392360E-1,-1.694594574E1,-2.304763794E-1,-1.152359486E0,1.698664560E1
4.186372050E-1,-1.715596771E1,9.475932121E-1,-2.748934269E0,1.740062644E1
4.234351730E-1,-1.697710419E1,2.100650311E0,-3.773968458E0,1.751792329E1
4.282331420E-1,-1.633232880E1,3.080094814E0,-4.852853775E0,1.731421779E1
4.330310590E-1,-1.594129753E1,4.016000748E0,-5.714731216E0,1.740434951E1
4.378290280E-1,-1.544583321E1,4.639054298E0,-6.442336559E0,1.736658540E1
4.426269960E-1,-1.499178696E1,4.844021320E0,-6.884088039E0,1.719328028E1
4.474249650E-1,-1.450706673E1,4.674305916E0,-7.242128372E0,1.687461242E1
4.522229340E-1,-1.415988445E1,5.077893734E0,-7.936580181E0,1.700813445E1
4.570209030E-1,-1.433585739E1,5.950465202E0,-1.018649769E1,1.856581747E1
4.618188190E-1,-1.421627522E1,6.305570126E0,-1.360485172E1,2.066288184E1
4.666167880E-1,-1.398542404E1,6.797333241E0,-1.663967133E1,2.277442615E1
4.714147570E-1,-1.331953049E1,8.016139030E0,-1.777664757E1,2.361519799E1
4.762127250E-1,-1.180101585E1,9.101202965E0,-1.595915985E1,2.183553649E1
4.810106940E-1,-1.037895584E1,1.016131210E1,-1.380933285E1,2.004177292E1
4.858086630E-1,-1.015151405E1,9.991898537E0,-1.330458641E1,1.949110806E1
4.906065800E-1,-1.047689247E1,9.337567329E0,-1.401879597E1,1.983638273E1
4.954045480E-1,-9.647199631E0,8.659267426E0,-1.401456642E1,1.909082096E1
5.002025170E-1,-8.344184875E0,8.107784271E0,-1.400669479E1,1.820848940E1
5.050004860E-1,-7.355609894E0,8.637574196E0,-1.407757854E1,1.808012452E1
5.097984550E-1,-6.269114494E0,9.234186172E0,-1.433430958E1,1.816712476E1
5.145964230E-1,-5.127635956E0,9.704578400E0,-1.442309189E1,1.812448819E1
5.193943400E-1,-3.875941277E0,1.002513695E1,-1.367523098E1,1.739362625E1
5.241923090E-1,-2.421076775E0,1.006335449E1,-1.289655972E1,1.653644366E1
5.289902780E-1,-1.336829185E0,9.695200920E0,-1.215469646E1,1.560514913E1
5.337882460E-1,-8.595676422E-1,9.186169624E0,-1.167317677E1,1.487910026E1
5.385862150E-1,-6.637458801E-1,8.663683891E0,-1.118933773E1,1.416690707E1
5.433841840E-1,-4.548559189E-1,8.071032524E0,-1.137582970E1,1.395557097E1
5.481821000E-1,-6.705999374E-1,7.496473789E0,-1.111135960E1,1.342047449E1
5.529800690E-1,-1.185236931E0,7.033158779E0,-9.881431580E0,1.218658275E1
5.577780380E-1,-1.451236725E0,6.552439690E0,-7.965984821E0,1.041621179E1
5.625760070E-1,-1.415825844E0,5.820917130E0,-6.454951286E0,8.806476887E0
5.673739750E-1,-1.234857559E0,4.928723335E0,-5.577457905E0,7.544880621E0
5.721719440E-1,-9.740104675E-1,4.065678596E0,-5.213996410E0,6.683127816E0
5.769698610E-1,-8.167314529E-1,3.328803539E0,-5.001185417E0,6.062989267E0
5.817678300E-1,-6.010789871E-1,2.818613529E0,-4.788209438E0,5.588633805E0
5.865657980E-1,-2.897319794E-1,2.423027515E0,-4.564688683E0,5.176039966E0
5.913637670E-1,-4.278182983E-3,1.961370707E0,-4.386895180E0,4.805397244E0
5.961617360E-1,2.868947983E-1,1.659715652E0,-4.343988419E0,4.659098631E0
6.009597050E-1,1.008525848E0,1.496860981E0,-4.455502987E0,4.807205430E0
6.057576210E-1,1.288697243E0,1.378132820E0,-3.863383770E0,4.299502856E0
6.105555900E-1,1.269010544E0,1.543598175E0,-3.919353485E0,4.399365276E0
6.153535590E-1,1.436628342E0,1.574389219E0,-3.786907196E0,4.345488294E0
6.201515280E-1,1.660483837E0,1.752351761E0,-3.589192867E0,4.325534499E0
6.249494960E-1,1.773003101E0,1.805666447E0,-3.237423897E0,4.109122145E0
6.297474650E-1,1.636403084E0,2.378738880E0,-2.959408998E0,4.134527220E0
6.345453820E-1,1.795122147E0,2.910145044E0,-2.819225311E0,4.431640673E0
6.393433500E-1,2.209463120E0,2.732408285E0,-2.883613825E0,4.545658479E0
6.441413190E-1,2.870611668E0,2.990683556E0,-2.932232380E0,5.077655582E0
6.489392880E-1,3.454427242E0,3.562144279E0,-2.715137005E0,5.656315797E0
6.537372570E-1,2.694777489E0,4.620120049E0,-2.398883343E0,5.861908927E0
6.585352250E-1,3.135569572E0,3.924177885E0,-1.794603109E0,5.334001213E0
6.633331420E-1,3.489470005E0,3.056126595E0,-1.436796904E0,4.855995883E0
6.681311110E-1,4.629405499E0,1.272827864E0,-6.839111447E-1,4.849661895E0
6.729290800E-1,5.947855949E0,-6.098012924E-1,-6.710990667E-1,6.016578926E0
6.777270480E-1,5.703653336E0,-1.643719673E-1,-6.327320337E-1,5.740995501E0
6.825250170E-1,5.501642227E0,-3.487014771E-2,2.429366112E-3,5.501753268E0
6.873229860E-1,5.873421669E0,-1.116067886E0,8.563699126E-1,6.039541295E0
6.921209030E-1,6.294013500E0,-2.233655453E0,1.019783616E0,6.756018150E0
6.969188710E-1,6.733724117E0,-2.725420475E0,9.224700928E-1,7.322698159E0
7.017168400E-1,7.073041439E0,-2.687529564E0,8.931677341E-1,7.618955241E0
7.065148090E-1,7.056186676E0,-2.266496658E0,1.146186113E0,7.499367981E0
7.113127780E-1,6.921419621E0,-1.969575882E0,1.446400404E0,7.340119403E0
7.161107460E-1,6.565806389E0,-1.911152363E0,1.863860607E0,7.087756574E0
7.209086630E-1,5.732831955E0,-1.844798088E0,1.808966398E0,6.288163614E0
7.257066320E-1,5.143975258E0,-1.531470299E0,2.063197613E0,5.750014532E0
7.305046000E-1,4.754479885E0,-1.188307762E0,2.293390751E0,5.410803586E0
7.353025690E-1,3.367277145E0,-7.702832222E-1,1.989330530E0,3.986141941E0
7.401005380E-1,1.880232811E0,-3.306996822E-1,1.674188018E0,2.539201296E0
7.448985070E-1,1.525687218E0,2.697041035E-1,1.803708076E0,2.377777242E0
7.496964230E-1,1.435439587E0,6.630516052E-1,2.330741882E0,2.816466219E0
7.544943920E-1,1.125113487E0,7.431764603E-1,2.922287464E0,3.218377795E0
7.592923610E-1,5.011048317E-1,6.241497993E-1,2.866438866E0,2.976094890E0
7.640903300E-1,1.325979233E-1,-2.967250347E-1,2.709822655E0,2.729242894E0
7.688882980E-1,1.307058334E-1,-1.340561390E0,2.579015255E0,2.909554698E0
7.736862670E-1,1.569652557E-1,-1.802822351E0,2.568637848E0,3.142086395E0
7.784842360E-1,2.369289398E-1,-1.790392637E0,2.532093048E0,3.110166607E0
7.832821530E-1,6.076245308E-1,-1.428695917E0,2.509366512E0,2.950813428E0
7.880801210E-1,1.197443008E0,-1.099583387E0,2.301154137E0,2.817492457E0
7.928780900E-1,1.436003208E0,-8.470928669E-1,1.811907053E0,2.462250740E0
7.976760590E-1,2.272250175E0,-9.177706242E-1,1.609731913E0,2.932006243E0
8.024740280E-1,2.425609112E0,-1.080312252E0,1.695778608E0,3.150606166E0
8.072719960E-1,2.281541824E0,-1.103128910E0,2.158775568E0,3.329059693E0
8.120699130E-1,1.920028210E0,-1.188248634E0,1.962505817E0,2.991633705E0
8.168678820E-1,1.412365437E0,-1.428495884E0,3.057449579E0,3.658329475E0
8.216658500E-1,1.496194363E0,-1.575308800E0,3.006536722E0,3.709374401E0
8.264638190E-1,1.116961002E0,-1.924601078E0,1.773888230E0,2.845763631E0
8.312617880E-1,1.188271523E0,-2.385479927E0,4.877836108E-1,2.709324001E0
8.360597570E-1,2.061236382E0,-2.558123589E0,3.963037133E-1,3.309040397E0
8.408577250E-1,2.744912148E0,-3.497126579E0,-1.875376999E-1,4.449674977E0
8.456556420E-1,3.259814739E0,-3.972900391E0,-1.439731717E-1,5.141114463E0
8.504536110E-1,4.166201591E0,-4.682706833E0,-6.608428955E-1,6.302514761E0
8.552515800E-1,4.740608215E0,-5.440950394E0,1.391708106E-1,7.217802709E0
8.600495480E-1,5.354166985E0,-5.724476337E0,-3.257707357E-1,7.844925749E0
8.648475170E-1,5.365245819E0,-5.534721851E0,-1.042863011E0,7.778597041E0
8.696454860E-1,5.614415169E0,-4.534117699E0,-2.135495663E0,7.525969886E0
8.744434550E-1,4.456319809E0,-4.285239220E0,-1.776036024E0,6.432446297E0
8.792413710E-1,3.919757843E0,-5.297523022E0,-1.822500229E0,6.837379527E0
8.840393400E-1,3.350773811E0,-5.594626427E0,-2.040275335E0,6.833026667E0
8.888373090E-1,2.906895638E0,-5.035609245E0,-2.044153929E0,6.163275753E0
8.936352780E-1,2.347415447E0,-3.970529079E0,-1.928791165E0,4.999569563E0
8.984332460E-1,1.744041443E0,-2.794128418E0,-1.122744203E0,3.479854697E0
9.032312150E-1,9.626450539E-1,-2.445330620E0,1.396125555E-1,2.631695082E0
9.080291320E-1,2.696695328E-1,-2.368525028E0,7.491385341E-1,2.498767898E0
9.128271000E-1,-3.786349297E-1,-2.100322247E0,5.161842704E-1,2.195714952E0
9.176250690E-1,-1.173197746E0,-2.032245159E0,-1.165987179E-2,2.346603778E0
9.224230380E-1,-2.227949142E0,-2.175210953E0,-4.824682772E-1,3.150884909E0
9.272210070E-1,-3.401715755E0,-2.468522549E0,-9.545602798E-1,4.310041645E0
9.320189750E-1,-4.366532326E0,-2.793875694E0,-1.672588468E0,5.447008181E0
9.368168920E-1,-5.012803555E0,-3.178319931E0,-2.551932812E0,6.460826428E0
9.416148610E-1,-5.523778915E0,-3.632319927E0,-3.341051579E0,7.407327940E0
9.464128300E-1,-6.214053154E0,-3.950456142E0,-4.354879856E0,8.554854697E0
9.512107980E-1,-7.198064804E0,-4.121919632E0,-5.661026001E0,1.004238885E1
9.560087670E-1,-8.700944901E0,-4.188555241E0,-7.287076950E0,1.209760008E1
9.608067360E-1,-1.043812752E1,-4.733876705E0,-8.680233002E0,1.437743161E1
9.656047050E-1,-1.196638203E1,-5.701990604E0,-7.958384037E0,1.546101136E1
9.704026210E-1,-1.263289833E1,-6.390569687E0,-6.413996220E0,1.554248528E1
9.752005900E-1,-1.277518272E1,-6.566481590E0,-4.685196400E0,1.510877359E1
9.799985590E-1,-1.302961636E1,-7.068034172E0,-3.785912275E0,1.529905687E1
9.847965280E-1,-1.397452354E1,-8.426680565E0,-2.025693417E0,1.644383433E1
9.895944960E-1,-1.463507843E1,-9.561967850E0,-2.980738580E-1,1.748443873E1
9.943924650E-1,-1.473210239E1,-9.965286255E0,7.333976030E-1,1.780111354E1
9.991904340E-1,-1.459545231E1,-9.492188454E0,1.030930758E0,1.744109194E1
1.003988350E0,-1.447206306E1,-9.292350769E0,1.892389536E0,1.730229841E1
1.008786319E0,-1.451460171E1,-9.076498032E0,2.816979885E0,1.734911683E1
1.013584288E0,-1.477500629E1,-9.025730133E0,3.649369717E0,1.769413786E1
1.018382257E0,-1.507901573E1,-9.326768875E0,4.553688049E0,1.830577526E1
1.023180225E0,-1.535032654E1,-9.829672813E0,4.329556942E0,1.873499548E1
1.027978194E0,-1.570072937E1,-1.060264111E1,3.151609659E0,1.920576852E1
1.032776163E0,-1.599224281E1,-1.080176640E1,4.459551334E0,1.980700850E1
1.037574080E0,-1.615170288E1,-1.070747948E1,6.489630222E0,2.043631383E1
1.042372048E0,-1.603314972E1,-1.090288067E1,8.627527237E0,2.122189725E1
1.047170017E0,-1.550658226E1,-1.141419029E1,1.045649815E1,2.191064095E1
1.051967986E0,-1.475000668E1,-1.211644554E1,1.217882442E1,2.264276295E1
1.056765955E0,-1.285008144E1,-1.226026535E1,1.324423981E1,2.215510297E1
1.061563923E0,-1.091674328E1,-1.124775410E1,1.295166397E1,2.033304836E1
1.066361892E0,-8.641690254E0,-9.160139084E0,1.192859268E1,1.734584336E1
1.071159809E0,-6.631443977E0,-5.886807919E0,1.094124889E1,1.408337616E1
1.075957778E0,-4.785358429E0,-2.272881508E0,9.888752937E0,1.121842593E1
1.080755746E0,-2.808227539E0,-3.289947510E-1,8.596169472E0,9.049226986E0
1.085553715E0,-1.309158325E0,1.016260147E0,7.378225327E0,7.562069107E0
1.090351684E0,2.066135406E-1,2.440140247E0,7.315546989E0,7.714544791E0
1.095149600E0,1.605196476E0,3.992678404E0,7.945432663E0,9.035930321E0
1.099947569E0,2.786747932E0,5.373876095E0,1.027255821E1,1.192350454E1
1.104745538E0,3.957097530E0,6.258904934E0,1.141394329E1,1.360553613E1
1.109543507E0,4.897045135E0,6.832097530E0,1.213702679E1,1.476367254E1
1.114341475E0,6.153564930E0,7.466720104E0,1.247051048E1,1.578391276E1
1.119139444E0,8.353477478E0,8.448060989E0,1.235533524E1,1.714073013E1
1.123937413E0,1.045476341E1,8.930076599E0,1.153299904E1,1.794598598E1
1.128735382E0,1.164441586E1,9.104063034E0,1.021921158E1,1.796965970E1
1.133533298E0,1.289538860E1,9.533879280E0,8.173441887E0,1.799975149E1
1.138331267E0,1.474700928E1,8.529193878E0,3.207024574E0,1.733512150E1
1.143129236E0,1.621201706E1,2.634519577E0,-5.793976307E0,1.741666880E1
1.147927205E0,1.781157303E1,-1.103787899E0,-1.356974983E1,2.241893378E1
1.152725173E0,1.808895111E1,-8.774352074E-1,-1.905766869E1,2.629020313E1
1.157523142E0,1.792811203E1,1.692940474E0,-2.136544037E1,2.794217763E1
1.162321059E0,1.729047775E1,3.524309158E0,-1.963333702E1,2.639790330E1
1.167119028E0,1.654853821E1,3.175319910E0,-1.457807350E1,2.228131505E1
1.171916996E0,1.629714394E1,2.144870758E0,-7.964250088E0,1.826544964E1
1.176714965E0,1.678330231E1,2.073480844E0,-2.302470684E0,1.706692504E1
1.181512934E0,1.691376877E1,2.566517830E0,6.930264831E-1,1.712141564E1
1.186310903E0,1.671726990E1,3.400004864E0,2.157616377E0,1.719541957E1
1.191108819E0,1.642266464E1,4.334263802E0,2.803384304E0,1.721478203E1
1.195906788E0,1.590512753E1,5.464687824E0,3.271799803E0,1.713302567E1
1.200704757E0,1.585447121E1,6.205978394E0,2.730677128E0,1.724340519E1
1.205502725E0,1.571354866E1,7.198029518E0,1.974216461E0,1.739611368E1
1.210300694E0,1.504405022E1,7.920446396E0,1.735925913E0,1.709006603E1
1.215098663E0,1.426541615E1,8.428724289E0,9.497748613E-1,1.659661300E1
1.219896632E0,1.350728035E1,8.913832664E0,4.950297475E-1,1.619098792E1
1.224694600E0,1.265068340E1,9.490118027E0,3.140123487E-1,1.581773481E1
1.229492517E0,1.191082382E1,9.771007538E0,1.749191880E-1,1.540684618E1
1.234290486E0,1.132998562E1,1.007970428E1,2.840563059E-1,1.516738938E1
1.239088455E0,1.056460667E1,1.000325012E1,-6.970882416E-3,1.454908848E1
1.243886423E0,7.520095825E0,8.469686508E0,-2.041241884E0,1.150887046E1
1.248684392E0,6.576794624E0,8.420404434E0,4.634654820E-1,1.069449572E1
1.253482361E0,8.781581879E0,8.907954216E0,8.065416813E-1,1.253468540E1
1.258280330E0,6.871433735E0,8.351285934E0,-4.357995987E-1,1.082360844E1
1.263078246E0,3.714780807E0,7.505129814E0,-3.542487025E-1,8.381650322E0
1.267876215E0,2.280148029E0,6.494070053E0,2.319040298E-1,6.886639265E0
1.272674184E0,1.197374821E0,5.541741848E0,6.876192689E-1,5.711167081E0
1.277472153E0,5.566835403E-2,5.323277473E0,5.379778147E-1,5.350682401E0
1.282270121E0,-1.184116364E0,5.459455490E0,1.634871960E-2,5.586416838E0
1.287068090E0,-1.832187653E0,5.840088844E0,2.090403438E-1,6.124316057E0
1.291866059E0,-1.833007812E0,6.011656284E0,4.733005166E-1,6.302693258E0
1.296663975E0,-1.298890591E0,5.985182285E0,6.435868144E-1,6.158224399E0
1.301461944E0,-7.565445900E-1,5.699908257E0,7.464716434E-1,5.798149167E0
1.306259913E0,-2.586879730E-1,5.259586334E0,7.184683084E-1,5.314730904E0
1.311057882E0,6.033868790E-1,4.785031796E0,6.231577396E-1,4.863016613E0
1.315855850E0,1.553696871E0,4.287745476E0,2.103228569E-1,4.565410270E0
1.320653819E0,2.471970320E0,3.865166664E0,-4.829771519E-1,4.613395445E0
1.325451788E0,3.190105200E0,3.424117565E0,-1.021862984E0,4.790152006E0
1.330249705E0,3.606777668E0,3.862289667E0,-1.438055754E0,5.476689782E0
1.335047673E0,4.056682587E0,4.895174980E0,-1.959024429E0,6.652607640E0
1.339845642E0,4.148478508E0,5.412040710E0,-2.306159019E0,7.198501789E0
1.344643611E0,4.012603760E0,5.576483250E0,-2.531319380E0,7.321593554E0
1.349441580E0,3.751013279E0,5.787781239E0,-2.569638252E0,7.360132678E0
1.354239548E0,2.781458139E0,5.168572903E0,-2.185442209E0,6.263131236E0
1.359037465E0,1.120001316E0,6.331021309E0,-3.049382210E0,7.115825014E0
1.363835434E0,3.573217392E-1,6.227451801E0,-3.787734032E0,7.297654682E0
1.368633403E0,4.926252365E-1,5.658522606E0,-3.948378086E0,6.917459593E0
1.373431371E0,3.233728409E-1,5.069396019E0,-4.262720108E0,6.631299172E0
1.378229340E0,-2.499701500E0,4.418269157E0,-4.996056557E0,7.122512973E0
1.383027309E0,-4.220781803E0,3.943038464E0,-4.608034611E0,7.388946767E0
1.387825278E0,-2.480422497E0,4.565582275E0,-2.942080975E0,5.971003076E0
1.392623246E0,-3.314127922E-1,3.766540289E0,-8.387887478E-1,3.873012619E0
1.397421163E0,1.631952286E0,8.532261848E-1,-1.023510218E0,2.106854611E0
1.402219132E0,2.983194351E0,-2.997466564E0,-1.357045174E0,4.441376582E0
1.407017100E0,3.787471533E0,-6.860208511E0,-2.524137974E0,8.232780450E0
1.411815069E0,4.249413013E0,-1.033192444E1,-3.278068542E0,1.164267611E1
1.416613038E0,4.216916084E0,-1.249032688E1,-3.029892921E0,1.352667357E1
1.421411007E0,3.471399069E0,-1.421004581E1,-2.912913322E0,1.491512915E1
1.426208975E0,8.605418205E-1,-1.419491196E1,-2.187544346E0,1.438823853E1
1.431006892E0,-2.433012486E0,-1.263426876E1,-4.003452063E-1,1.287262884E1
1.435804861E0,-4.679040432E0,-1.222930527E1,-2.124484777E-1,1.309558937E1
1.440602830E0,-6.630264759E0,-1.478536797E1,-3.231201172E-1,1.620715654E1
1.445400798E0,-8.932910919E0,-1.570297623E1,-6.679488420E-1,1.807834383E1
1.450198767E0,-1.058804321E1,-1.537188816E1,-5.962122679E-1,1.867503879E1
1.454996736E0,-1.145815182E1,-1.488248062E1,-3.011600494E0,1.902228194E1
1.459794705E0,-1.210268974E1,-1.585725403E1,-4.742319107E0,2.050407752E1
1.464592673E0,-1.281357956E1,-1.723976898E1,-5.037482262E0,2.206294820E1
1.469390590E0,-1.362310028E1,-2.034053802E1,-3.167490244E0,2.468520494E1
1.474188559E0,-1.425051022E1,-1.988738060E1,-2.133910894E0,2.455887873E1
1.478986528E0,-1.495000648E1,-1.926943779E1,-6.663486958E-1,2.439790866E1
1.483784496E0,-1.536252499E1,-1.775738716E1,-1.437284470E0,2.352440774E1
1.488582465E0,-1.581513786E1,-1.746731567E1,-1.795481205E0,2.363153519E1
1.493380434E0,-1.640902138E1,-1.801856613E1,-3.009717464E0,2.455571435E1
1.498178403E0,-1.740795135E1,-1.892407608E1,-2.614460707E0,2.584555727E1
1.502976319E0,-1.886074448E1,-2.005364227E1,-3.041115284E0,2.769701487E1
1.507774288E0,-2.027873993E1,-2.043928719E1,-3.104824781E0,2.895913829E1
1.512572257E0,-2.111279678E1,-1.895764160E1,-2.786973953E0,2.851156935E1
1.517370225E0,-2.135035706E1,-1.754179001E1,-2.045043707E0,2.770801954E1
1.522168194E0,-2.092274475E1,-1.582840729E1,-1.870177984E0,2.630203967E1
1.526966163E0,-1.971596718E1,-1.502659321E1,-2.306368351E-1,2.479054373E1
1.531764132E0,-1.807761002E1,-1.359742832E1,1.160549760E0,2.265031824E1
1.536562100E0,-1.586549664E1,-1.158254910E1,1.676235914E0,1.971494849E1
1.541360017E0,-1.220193100E1,-9.867141724E0,2.643270493E0,1.591334298E1
1.546157986E0,-1.080018806E1,-9.189599037E0,1.619807005E0,1.427293128E1
1.550955955E0,-9.675086975E0,-9.437667847E0,1.009507298E0,1.355344928E1
1.555753923E0,-8.027682304E0,-8.802035332E0,-9.436237812E-2,1.191337120E1
1.560551892E0,-5.764786720E0,-7.696197510E0,-1.106416583E0,9.679275784E0
1.565349861E0,-3.657641888E0,-5.717083931E0,-3.603341579E-1,6.796560421E0
1.570147830E0,-1.018315792E0,-3.539824486E0,1.411519766E0,3.944580141E0
1.574945746E0,-1.530097008E0,-1.789255142E0,1.516867161E0,2.800627930E0
1.579743715E0,-1.116049767E0,4.113693237E-1,-7.768892050E-1,1.420685975E0
1.584541684E0,1.640892029E-1,2.020998955E0,-2.666263103E0,3.349674757E0
1.589339653E0,1.718681812E0,2.887482643E0,-3.111319065E0,4.579490093E0
1.594137621E0,2.933193207E0,3.355781078E0,-2.959325552E0,5.349999697E0
1.598935590E0,3.754818916E0,3.698480129E0,-2.624015331E0,5.887518732E0
1.603733559E0,4.347272873E0,3.829893112E0,-1.760651112E0,6.055308004E0
1.608531528E0,4.765546322E0,4.053943157E0,-1.047659039E0,6.343695794E0
1.613329496E0,5.164593697E0,4.425651550E0,-4.722179174E-1,6.817800925E0
1.618127413E0,5.372920036E0,5.149864197E0,5.129582286E-1,7.460060128E0
1.622925382E0,5.620617867E0,5.769618988E0,1.273075223E0,8.154788102E0
1.627723350E0,5.757324696E0,6.211596489E0,2.221551657E0,8.755912880E0
1.632521319E0,6.002396584E0,6.505444527E0,2.567380428E0,9.216345018E0
1.637319288E0,6.484363556E0,6.916100502E0,2.537819386E0,9.814272470E0
1.642117257E0,6.908708096E0,7.331132889E0,2.390565395E0,1.035328740E1
1.646915173E0,7.329731941E0,7.517123699E0,2.253860950E0,1.073834290E1
1.651713142E0,7.904049873E0,7.527772427E0,2.021888971E0,1.110087371E1
1.656511111E0,8.392215729E0,7.561826706E0,1.789261103E0,1.143730577E1
1.661309080E0,8.877941132E0,7.659980774E0,2.089784861E0,1.191051405E1
1.666107048E0,9.341965675E0,7.757985592E0,2.429734707E0,1.238395227E1
1.670905017E0,9.788605690E0,7.734846115E0,2.693971157E0,1.276331173E1
1.675702986E0,1.035140991E1,7.832176685E0,2.901304245E0,1.330083626E1
1.680500903E0,1.094151878E1,7.909258842E0,3.075492859E0,1.384672759E1
1.685298871E0,1.149419022E1,7.997610092E0,3.345033884E0,1.439678532E1
1.690096840E0,1.194746304E1,8.187958717E0,3.373480797E0,1.487161436E1
1.694894809E0,1.243264198E1,8.451529503E0,3.260339975E0,1.538274210E1
1.699692778E0,1.291612339E1,8.676149368E0,3.314038277E0,1.590863479E1
1.704490746E0,1.331904507E1,8.890801430E0,3.345639706E0,1.635960319E1
1.709288715E0,1.369572926E1,8.822048187E0,3.186176777E0,1.659979688E1
1.714086684E0,1.403073120E1,8.748749733E0,2.918532848E0,1.679046973E1
1.718884600E0,1.437045479E1,8.538767815E0,2.539867878E0,1.690773360E1
1.723682569E0,1.428669071E1,8.236750603E0,2.422968864E0,1.666806438E1
1.728480538E0,1.393550301E1,7.924563408E0,2.437310219E0,1.621534552E1
1.733278507E0,1.350879860E1,7.816779137E0,2.350447655E0,1.578335452E1
1.738076475E0,1.299784088E1,7.628125668E0,2.296128750E0,1.524481473E1
1.742874444E0,1.276372051E1,7.265036106E0,2.164361715E0,1.484512622E1
1.747672413E0,1.228635979E1,6.948595524E0,1.922515154E0,1.424547932E1
1.752470382E0,1.173422909E1,6.582062244E0,1.523542523E0,1.354019415E1
1.757268350E0,1.112251568E1,6.076585770E0,1.403369308E0,1.275165460E1
1.762066267E0,1.042089367E1,5.511137962E0,1.563390851E0,1.189167177E1
1.766864236E0,9.714002609E0,5.178802490E0,1.709690690E0,1.114023717E1
1.771662205E0,8.919203758E0,5.018877983E0,1.956876040E0,1.041972628E1
1.776460173E0,8.161426544E0,4.756350994E0,2.183354378E0,9.695297538E0
1.781258142E0,7.429518223E0,4.717713356E0,2.247674227E0,9.083314360E0
1.786056111E0,6.638332844E0,4.815611839E0,2.272047520E0,8.509981214E0
1.790854080E0,5.920005798E0,4.905733109E0,2.242562056E0,8.008855758E0
1.795652048E0,5.227110386E0,5.016232967E0,2.181063414E0,7.565865039E0
1.800449965E0,4.576638222E0,5.191942215E0,2.047679186E0,7.217677703E0
1.805247934E0,4.095227718E0,5.491916180E0,1.891155362E0,7.106933375E0
1.810045903E0,3.596764326E0,5.843712807E0,1.950544357E0,7.133744898E0
1.814843871E0,3.370098114E0,6.010801792E0,1.937074661E0,7.158181174E0
1.819641840E0,3.130565166E0,6.103305340E0,1.899213076E0,7.117428232E0
1.824439809E0,3.088155985E0,6.223911285E0,1.840238452E0,7.187506983E0
1.829237778E0,3.158396006E0,6.250889301E0,1.618557334E0,7.188101991E0
1.834035746E0,3.361773014E0,6.230066299E0,1.272277474E0,7.192630525E0
1.838833715E0,3.663401127E0,6.293512821E0,9.037646651E-1,7.337956256E0
1.843631632E0,3.930387497E0,5.974452972E0,7.381210923E-1,7.189357200E0
1.848429600E0,4.321801186E0,5.582670212E0,5.886412859E-1,7.084537440E0
1.853227569E0,4.342999458E0,5.476659298E0,4.646708965E-1,7.005095317E0
1.858025538E0,4.483728886E0,5.293327808E0,2.946146727E-1,6.943337945E0
1.862823507E0,4.614478588E0,5.078598976E0,1.951460838E-1,6.864667668E0
1.867621475E0,4.708849430E0,4.804176331E0,9.390568733E-2,6.727718146E0
1.872419444E0,4.743180752E0,4.498770714E0,-4.047501087E-2,6.537456677E0
1.877217413E0,4.779680729E0,4.114672661E0,-1.936489344E-1,6.309784377E0
1.882015330E0,4.751408100E0,3.728407145E0,-3.008679152E-1,6.047100154E0
1.886813298E0,4.650865555E0,3.411728382E0,-5.236827135E-1,5.791777322E0
1.891611267E0,4.499282837E0,3.059568405E0,-7.060973644E-1,5.486627230E0
1.896409236E0,4.305729389E0,2.386089325E0,-9.009701014E-1,5.004445520E0
1.901207205E0,4.005301952E0,1.664725780E0,-1.023050070E0,4.456499422E0
1.906005173E0,3.688549519E0,6.597704887E-1,-1.102178097E0,3.905827852E0
1.910803142E0,3.361968756E0,-5.678400993E-1,-1.310862899E0,3.652894446E0
1.915601111E0,2.815434933E0,-2.029345036E0,-1.458890200E0,3.764741126E0
1.920399028E0,2.059361696E0,-3.654947758E0,-1.469465971E0,4.445103367E0
1.925196996E0,1.135035038E0,-5.474876404E0,-1.476827621E0,5.783043835E0
1.929994965E0,-2.267026901E-1,-7.428131580E0,-1.389374256E0,7.560350105E0
1.934792934E0,-1.804694653E0,-9.194101334E0,-1.301479816E0,9.459506955E0
1.939590903E0,-3.598098278E0,-1.102834129E1,-1.356627941E0,1.167951464E1
1.944388871E0,-5.658461094E0,-1.277587128E1,-1.402850628E0,1.404311428E1
1.949186840E0,-7.819795609E0,-1.455943584E1,-1.387992144E0,1.658471880E1
1.953984809E0,-1.034952068E1,-1.718129539E1,-1.218832731E0,2.009465210E1
1.958782778E0,-1.255134773E1,-1.868223381E1,-1.979225874E0,2.259379395E1
1.963580694E0,-1.460338783E1,-1.988686943E1,-3.554558992E0,2.492752297E1
1.968378663E0,-1.658013153E1,-2.101124191E1,-5.623453617E0,2.734952063E1
1.973176632E0,-1.869376373E1,-2.219420052E1,-7.306886673E0,2.992373526E1
1.977974600E0,-2.057672310E1,-2.338809586E1,-8.974763870E0,3.241837361E1
1.982772569E0,-2.263740540E1,-2.511522675E1,-9.863748550E0,3.522102033E1
1.987570538E0,-2.371058464E1,-2.666186905E1,-9.853423119E0,3.701536211E1
1.992368507E0,-2.474399567E1,-2.754529953E1,-1.021694374E1,3.841086809E1
1.997166475E0,-2.520349693E1,-2.809104919E1,-8.837190628E0,3.876105314E1
2.001964444E0,-2.465095139E1,-2.803253937E1,-6.230885029E0,3.784595878E1
2.006762361E0,-2.364844322E1,-2.748475647E1,-3.489865065E0,3.642581314E1
2.011560330E0,-2.102545929E1,-2.414270401E1,-4.148700714E0,3.228237620E1
2.016358298E0,-1.803845024E1,-1.918404388E1,-4.788411140E0,2.676456815E1
2.021156267E0,-1.520619011E1,-1.582097054E1,-4.408830643E0,2.238233933E1
2.025954236E0,-1.298966885E1,-1.394546318E1,-3.800743580E0,1.943329853E1
2.030752205E0,-1.124826908E1,-1.289064693E1,-3.761865377E0,1.751696226E1
2.035550173E0,-9.820373535E0,-1.233688068E1,-3.766694069E0,1.621191986E1
2.040348142E0,-8.562925339E0,-1.155446243E1,-3.442039013E0,1.478772887E1
2.045146111E0,-7.445132732E0,-1.064096737E1,-2.783278227E0,1.328182313E1
2.049944028E0,-6.481775284E0,-9.700895309E0,-2.355989933E0,1.190258246E1
2.054741996E0,-5.600894451E0,-8.332819939E0,-1.803356647E0,1.020088241E1
2.059539965E0,-4.685944080E0,-7.031472206E0,-1.770282865E0,8.633282964E0
2.064337934E0,-3.741149902E0,-5.910317421E0,-1.891608596E0,7.246118802E0
2.069135903E0,-2.810618401E0,-4.734375000E0,-1.886790156E0,5.820125388E0
2.073933871E0,-2.066564083E0,-3.575241089E0,-1.643039227E0,4.444391280E0
2.078731840E0,-1.365608215E0,-2.375573158E0,-1.329165101E0,3.045474264E0
2.083529809E0,-6.143527031E-1,-1.183398247E0,-9.925032854E-1,1.662204387E0
2.088327778E0,1.276979446E-1,6.572341919E-2,-4.450567961E-1,4.676557330E-1
2.093125694E0,9.541344643E-1,1.266540527E0,1.278982162E-1,1.590866254E0
2.097923663E0,1.793663502E0,2.514500141E0,7.254334688E-1,3.172726499E0
2.102721632E0,2.632032156E0,3.685407162E0,1.048583746E0,4.648585493E0
2.107519600E0,3.397987843E0,4.681572914E0,1.593375564E0,6.000190998E0
2.112317569E0,4.097362518E0,5.047122002E0,2.298073053E0,6.895140308E0
2.117115538E0,5.088701248E0,5.287394524E0,2.893433571E0,7.888179706E0
2.121913507E0,6.109877586E0,5.289077759E0,2.799582481E0,8.552345277E0
2.126711475E0,7.085723877E0,5.280443192E0,2.672203064E0,9.232076276E0
2.131509392E0,7.788004398E0,5.157448769E0,2.135348797E0,9.581858108E0
2.136307361E0,8.615201950E0,5.212240696E0,1.787250280E0,1.022660360E1
2.141105330E0,9.600548744E0,5.582771778E0,1.539554715E0,1.121196261E1
2.145903298E0,1.051954651E1,5.840665340E0,1.590685487E0,1.213690697E1
2.150701267E0,1.131754684E1,6.162892342E0,1.856025577E0,1.301971350E1
2.155499236E0,1.191345787E1,6.408404350E0,1.736589670E0,1.363869013E1
2.160297205E0,1.239723682E1,6.434813499E0,1.527862787E0,1.405107364E1
2.165095173E0,1.268976021E1,6.503160477E0,1.703141451E0,1.436042482E1
2.169893142E0,1.298497009E1,6.866129398E0,1.758154631E0,1.479338666E1
2.174691059E0,1.315982056E1,7.565229893E0,1.986185074E0,1.530877237E1
2.179489028E0,1.320934677E1,8.161961555E0,2.613541365E0,1.574595367E1
2.184286996E0,1.302757645E1,8.553647041E0,3.197790623E0,1.590938373E1
2.189084965E0,1.267282867E1,8.814568520E0,3.475800514E0,1.582334965E1
2.193882934E0,1.224360085E1,8.932932854E0,3.567579508E0,1.557018544E1
2.198680903E0,1.169497490E1,8.908740997E0,3.714982748E0,1.516374627E1
2.203478871E0,1.119662666E1,8.746885300E0,3.816018105E0,1.471171116E1
2.208276840E0,1.056202126E1,8.588295937E0,3.814518452E0,1.413738558E1
2.213074809E0,9.494657516E0,8.542695045E0,3.382923126E0,1.321250653E1
2.217872778E0,8.990364075E0,8.694755554E0,4.075691223E0,1.315434070E1
2.222670694E0,8.536000252E0,8.873925209E0,4.509034157E0,1.311263657E1
2.227468663E0,7.850244522E0,8.796200752E0,4.791925907E0,1.272643079E1
2.232266632E0,6.971259594E0,8.617641449E0,4.652872086E0,1.202129041E1
2.237064600E0,6.326556206E0,8.414760590E0,4.568806648E0,1.147638895E1
2.241862569E0,5.741391182E0,8.254488945E0,4.697038651E0,1.109785261E1
2.246660538E0,5.163361549E0,7.995923519E0,4.907610893E0,1.070886269E1
2.251458507E0,4.642719269E0,7.787156582E0,4.930740356E0,1.032021561E1
2.256256475E0,4.138475418E0,7.635316849E0,4.831640244E0,9.938299131E0
2.261054392E0,3.655552626E0,7.401932716E0,4.824867249E0,9.561956751E0
2.265852361E0,3.144101858E0,7.345077515E0,4.995606422E0,9.422930739E0
2.270650330E0,2.752111435E0,7.380879879E0,5.011681557E0,9.336404938E0
2.275448298E0,2.214935541E0,7.454024315E0,5.285944939E0,9.402639620E0
2.280246267E0,1.826884270E0,7.609718323E0,5.418857574E0,9.518893659E0
2.285044236E0,1.423495770E0,7.866672039E0,5.634737968E0,9.780651366E0
2.289842205E0,1.105422020E0,8.138464928E0,5.737684250E0,1.001886170E1
2.294640173E0,9.962601662E-1,8.578068733E0,5.912072182E0,1.046558145E1
2.299438142E0,7.597322464E-1,8.518661499E0,6.293140411E0,1.061830509E1
2.304236059E0,8.803462982E-1,8.204707146E0,6.072041988E0,1.024509262E1
2.309034028E0,6.305055618E-1,7.889824867E0,5.733868122E0,9.773644015E0
2.313831996E0,8.028001785E-1,7.459815025E0,5.480010986E0,9.291062843E0
2.318629965E0,1.192784786E0,7.171318531E0,5.550569534E0,9.146549468E0
2.323427934E0,1.353046894E0,6.652406693E0,5.683555603E0,8.853702897E0
2.328225903E0,1.674901724E0,6.238804340E0,5.589287758E0,8.542137497E0
2.333023871E0,2.114327669E0,6.069769859E0,5.807151794E0,8.662303366E0
2.337821840E0,2.658579350E0,6.121137142E0,5.379498482E0,8.571777411E0
2.342619809E0,2.971388340E0,6.058263302E0,5.672396660E0,8.815202027E0
2.347417778E0,3.421113253E0,6.076982975E0,5.426174164E0,8.836124944E0
2.352215694E0,3.697643518E0,6.276935101E0,5.468203545E0,9.108991813E0
2.357013663E0,4.003978252E0,6.779642105E0,5.401813507E0,9.548558953E0
2.361811632E0,4.441024780E0,6.812852859E0,5.468007088E0,9.799835034E0
2.366609600E0,4.325136185E0,5.912181854E0,5.445385456E0,9.127591142E0
2.371407569E0,4.551584244E0,4.375841141E0,4.992794991E0,8.049404117E0
2.376205538E0,4.784833908E0,3.680178881E0,5.232465267E0,7.988557122E0
2.381003507E0,4.649736881E0,3.636076689E0,5.181810856E0,7.854442724E0
2.385801475E0,4.802178383E0,3.718241215E0,4.915995121E0,7.813657465E0
2.390599444E0,4.800221920E0,3.013128996E0,4.360369682E0,7.150797200E0
2.395397361E0,4.940347672E0,1.481180191E0,3.750436783E0,6.377045236E0
2.400195330E0,5.448717117E0,2.678971291E-1,2.808977127E0,6.136011701E0
2.404993298E0,5.062772274E0,-1.034972668E0,2.224334717E0,5.625877394E0
2.409791267E0,4.990091801E0,-2.117174625E0,1.409215808E0,5.600833310E0
2.414589236E0,4.743322849E0,-3.177750587E0,9.777429104E-1,5.792511687E0
2.419387205E0,4.304594040E0,-4.346458912E0,4.013245106E-1,6.130440138E0
2.424185173E0,3.690554857E0,-5.230268478E0,4.530744553E-1,6.417256421E0
2.428983142E0,3.056940079E0,-7.188510895E0,-9.633564949E-2,7.812096523E0
2.433781111E0,2.120625973E0,-9.231640816E0,-4.079263210E-1,9.480857058E0
2.438579080E0,1.017199993E0,-1.130781460E1,-6.130526066E-1,1.137001321E1
2.443377048E0,-5.023651123E-1,-1.379279995E1,-9.913477898E-1,1.383750236E1
2.448174965E0,-1.557271004E0,-1.549373150E1,-1.710688829E0,1.566548004E1
2.452972934E0,-3.453406334E0,-1.720497894E1,-1.171370029E0,1.758719487E1
2.457770903E0,-5.760041237E0,-1.977653313E1,-1.760807991E0,2.067340761E1
2.462568871E0,-8.217467308E0,-2.206870270E1,-3.013139725E0,2.374096499E1
2.467366840E0,-1.080196190E1,-2.406991196E1,-4.511994362E0,2.676567084E1
2.472164809E0,-1.355595398E1,-2.545853424E1,-6.471608162E0,2.955981337E1
2.476962778E0,-1.642151451E1,-2.570997238E1,-8.905043602E0,3.178000347E1
2.481760746E0,-1.914116669E1,-2.389859009E1,-1.314742661E1,3.332239032E1
2.486558715E0,-2.182999229E1,-2.115171051E1,-1.846802711E1,3.556699940E1
2.491356632E0,-2.463715744E1,-1.842383575E1,-2.295235443E1,3.838278031E1
2.496154600E0,-2.580135155E1,-1.648545074E1,-2.267588425E1,3.810086028E1
2.500952569E0,-2.438447952E1,-1.510038090E1,-2.033243561E1,3.515725078E1
2.505750538E0,-2.213170242E1,-1.406831932E1,-1.498583317E1,3.020438803E1
2.510548507E0,-1.872609138E1,-1.401443672E1,-1.011480141E1,2.548293827E1
2.515346475E0,-1.550835514E1,-1.420217514E1,-7.842290401E0,2.244353752E1
2.520144444E0,-1.275182247E1,-1.452319145E1,-6.881505013E0,2.051553503E1
2.524942413E0,-1.057745743E1,-1.467822266E1,-6.765070915E0,1.931577103E1
2.529740382E0,-9.325454712E0,-1.454522610E1,-7.044105053E0,1.865870102E1
2.534538350E0,-8.745332718E0,-1.427479362E1,-7.284415722E0,1.825686966E1
2.539336267E0,-8.536079407E0,-1.403907871E1,-7.048438549E0,1.787850298E1
2.544134236E0,-8.465570450E0,-1.366623306E1,-6.419123650E0,1.731002477E1
2.548932205E0,-8.301721573E0,-1.296806431E1,-5.680770874E0,1.641220371E1
2.553730173E0,-8.087009430E0,-1.209368610E1,-4.874217987E0,1.534323845E1
2.558528142E0,-7.880809307E0,-1.108417702E1,-4.019273281E0,1.418170276E1
2.563326111E0,-7.680339336E0,-1.014785099E1,-3.421617270E0,1.317854153E1
2.568124080E0,-7.323255062E0,-9.050625801E0,-3.084749222E0,1.204406783E1
2.572922048E0,-6.795899391E0,-7.785506248E0,-2.740046501E0,1.069140828E1
2.577720017E0,-6.117345333E0,-6.527183533E0,-2.132956266E0,9.196496139E0
2.582517986E0,-5.227906227E0,-5.278114319E0,-1.639474392E0,7.607717829E0
2.587315903E0,-4.347990036E0,-4.135998726E0,-1.066026807E0,6.094909020E0
2.592113871E0,-3.428401947E0,-3.109593391E0,-6.081575155E-1,4.668336592E0
2.596911840E0,-2.477057934E0,-2.042948723E0,-4.346764088E-2,3.211128295E0
2.601709809E0,-1.573098183E0,-1.017058372E0,4.936804771E-1,1.937205730E0
2.606507778E0,-7.092700005E-1,2.311420441E-2,9.340590239E-1,1.173057739E0
2.611305746E0,6.278181076E-2,1.151197910E0,1.474991202E0,1.872110368E0
2.616103715E0,9.224762917E-1,1.973043919E0,1.826290131E0,2.842393438E0
2.620901684E0,1.623709202E0,2.713856697E0,2.221405506E0,3.864724074E0
2.625699653E0,2.314748287E0,3.517281532E0,2.480479479E0,4.886932315E0
2.630497621E0,2.988343716E0,4.366841316E0,2.759869814E0,5.967946266E0
2.635295538E0,3.500911474E0,5.262915611E0,3.079759121E0,7.031328333E0
2.640093507E0,3.914798498E0,6.105246067E0,3.310348988E0,7.972332610E0
2.644891475E0,4.335246086E0,6.679183006E0,3.491138935E0,8.694474988E0
2.649689444E0,4.660301685E0,7.818269730E0,3.740681171E0,9.840551254E0
2.654487413E0,5.193459511E0,8.491923332E0,3.392516613E0,1.051636594E1
2.659285382E0,5.363407135E0,8.667657852E0,3.461774826E0,1.076467899E1
2.664083350E0,5.610028744E0,8.857573509E0,3.718159676E0,1.112446594E1
2.668881319E0,5.925965309E0,8.705593109E0,4.039427757E0,1.127924611E1
2.673679288E0,6.362989902E0,8.432108879E0,3.975943089E0,1.128699358E1
2.678477257E0,6.948610306E0,8.376728058E0,3.369009972E0,1.139311135E1
2.683275173E0,7.641712189E0,8.364808083E0,3.232489586E0,1.178196793E1
2.688073142E0,8.429490089E0,7.787688732E0,2.741579056E0,1.179918025E1
2.692871111E0,9.129251480E0,7.201245308E0,2.394761801E0,1.187164903E1
2.697669080E0,9.592962265E0,7.269521236E0,2.302427053E0,1.225446997E1
2.702467048E0,1.039348030E1,6.281633377E0,1.163523197E0,1.219988266E1
2.707265017E0,1.104431915E1,5.764266968E0,4.348349571E-2,1.245815596E1
2.712062986E0,1.143384266E1,5.042725563E0,-3.506735861E-1,1.250139236E1
2.716860955E0,1.184557724E1,3.378022671E0,-9.379039407E-1,1.235347729E1
2.721658923E0,1.209076595E1,1.440631390E0,-3.507888913E-1,1.218134200E1
2.726456892E0,1.198620701E1,1.258489132E0,-9.375156760E-1,1.208850235E1
2.731254809E0,1.178563881E1,1.158831120E0,-1.291329265E0,1.191266985E1
2.736052778E0,1.151586342E1,1.573391438E0,-1.595675945E0,1.173187336E1
2.740850746E0,1.133896255E1,1.904286861E0,-1.466864705E0,1.159094786E1
2.745648715E0,1.114054871E1,2.411267281E0,-1.530991793E0,1.150086828E1
2.750446684E0,1.069779205E1,3.882767677E0,-9.731394053E-1,1.142215566E1
2.755244653E0,1.027113914E1,5.149302483E0,-4.121473432E-1,1.149702052E1
2.760042621E0,9.714413643E0,6.290491104E0,-3.288585544E-1,1.157792117E1
2.764840590E0,9.492979050E0,7.359879971E0,-6.592975259E-1,1.202992758E1
2.769638559E0,9.199558258E0,8.282079697E0,-1.171866059E0,1.243374386E1
2.774436475E0,8.967798233E0,9.254016876E0,-1.814635515E0,1.301349821E1
2.779234444E0,8.794946671E0,1.016431427E1,-2.454847574E0,1.366347862E1
2.784032413E0,8.515014648E0,1.079495811E1,-2.798753500E0,1.403102335E1
2.788830382E0,8.018735886E0,1.102208710E1,-2.330008030E0,1.382806807E1
2.793628350E0,7.696441650E0,1.138838100E1,-1.894785523E0,1.387518101E1
2.798426319E0,7.589083672E0,1.178351021E1,-1.715226889E0,1.412045704E1
2.803224288E0,7.338819027E0,1.203989124E1,-1.562005043E0,1.418651140E1
2.808022257E0,7.085336685E0,1.214788532E1,-1.506590247E0,1.414365327E1
2.812820225E0,6.798521042E0,1.219342613E1,-1.500482917E0,1.404104619E1
2.817618194E0,6.517498493E0,1.230773830E1,-1.598159432E0,1.401828529E1
2.822416163E0,6.287640572E0,1.240254593E1,-1.722755075E0,1.401161855E1
2.827214080E0,6.103249073E0,1.233999825E1,-1.656783462E0,1.386615078E1
2.832012048E0,5.901025295E0,1.207095146E1,-1.465395331E0,1.351581859E1
2.836810017E0,5.646444798E0,1.163227654E1,-1.011237144E0,1.296976472E1
2.841607986E0,5.412340164E0,1.121852875E1,-5.703001022E-1,1.246892359E1
2.846405955E0,5.162035942E0,1.085164642E1,-3.265689611E-1,1.202129329E1
2.851203923E0,4.959713936E0,1.056758499E1,-1.455726102E-2,1.167359528E1
2.856001892E0,4.750056744E0,1.032815266E1,3.512503505E-1,1.137352862E1
2.860799861E0,4.664019108E0,1.005229568E1,6.638412476E-1,1.110145972E1
2.865597830E0,4.560204983E0,9.830965996E0,8.928431273E-1,1.087384618E1
2.870395798E0,4.331451416E0,9.635218620E0,1.138727903E0,1.062523461E1
2.875193715E0,4.114302158E0,9.500721931E0,1.344129086E0,1.044020510E1
2.879991684E0,4.037707806E0,9.300748825E0,1.485271454E0,1.024758724E1
2.884789653E0,3.957878113E0,9.056991577E0,1.595777631E0,1.001201288E1
2.889587621E0,3.819846153E0,8.819671631E0,1.792429924E0,9.777046453E0
2.894385590E0,3.687967062E0,8.598417282E0,1.812312126E0,9.529866528E0
2.899183559E0,3.535602570E0,8.386157990E0,1.820840836E0,9.281357266E0
2.903981528E0,3.386635303E0,8.228243828E0,1.906140327E0,9.099816818E0
2.908779496E0,3.207580805E0,8.074394226E0,1.957962990E0,8.906067359E0
2.913577465E0,3.077146053E0,7.924690247E0,2.095114470E0,8.755515289E0
2.918375434E0,2.909000874E0,7.709985256E0,2.001512051E0,8.480106675E0
2.923173350E0,2.818083763E0,7.535396099E0,2.111871243E0,8.317679401E0
2.927971319E0,2.675482750E0,7.345817089E0,2.306059361E0,8.150898504E0
2.932769288E0,2.529382706E0,7.160262108E0,2.413844347E0,7.968298115E0
2.937567257E0,2.380193233E0,6.904479504E0,2.428083897E0,7.696281469E0
2.942365225E0,2.159139633E0,6.552036762E0,2.358639717E0,7.290696195E0
2.947163194E0,1.840627432E0,6.088459969E0,2.220041513E0,6.736901250E0
2.951961163E0,1.523796082E0,5.594634056E0,2.134099960E0,6.178694632E0
2.956759132E0,1.006993532E0,5.000484467E0,2.003540993E0,5.480242457E0
2.961557100E0,1.941075325E-1,4.178177357E0,8.502659202E-1,4.268231003E0
2.966355069E0,-9.586186409E-1,2.946978569E0,-1.391177416E0,3.396911389E0
2.971152986E0,-2.051226616E0,1.393763542E0,-3.738700390E0,4.486422634E0
2.975950955E0,-4.835911751E0,-7.313060760E-1,-8.183482170E0,9.533636844E0
2.980748923E0,-9.299381256E0,-3.863650322E0,-1.471090126E1,1.782741993E1
2.985546892E0,-1.436195183E1,-8.253848076E0,-1.947550964E1,2.556730616E1
2.990344861E0,-1.895260048E1,-1.370890045E1,-2.280841255E1,3.267045607E1
2.995142830E0,-2.201480103E1,-2.052125168E1,-2.189673996E1,3.721881857E1
2.999940798E0,-2.455448723E1,-2.722786331E1,-1.645201874E1,4.018641940E1
3.004738767E0,-2.607061386E1,-3.466174698E1,-1.550049305E1,4.605842915E1
3.009536736E0,-2.555106163E1,-3.866964722E1,-1.648565483E1,4.919324325E1
3.014334705E0,-2.605178642E1,-4.101550674E1,-1.474164772E1,5.077680127E1
3.019132673E0,-2.822508812E1,-4.245302200E1,-1.127376080E1,5.221122829E1
3.023930642E0,-2.733888054E1,-4.194772339E1,-7.767323971E0,5.066909520E1
3.028728559E0,-2.525685883E1,-3.752706909E1,-7.698269844E0,4.588521756E1
3.033526528E0,-2.347336578E1,-3.220170212E1,-7.068609238E0,4.047114722E1
3.038324496E0,-2.127020454E1,-2.836586761E1,-5.357710361E0,3.585734384E1
3.043122465E0,-1.827952385E1,-2.590209579E1,-3.941242933E0,3.194672056E1
3.047920434E0,-1.615292740E1,-2.330518913E1,-3.233958483E0,2.853957588E1
3.052718403E0,-1.438285351E1,-1.908489609E1,-3.732858181E0,2.418747535E1
3.057516371E0,-1.331767082E1,-1.645598602E1,-4.524861813E0,2.164796079E1
3.062314340E0,-1.221782589E1,-1.399171448E1,-4.023560047E0,1.900611425E1
3.067112309E0,-1.198554134E1,-1.293820953E1,-4.066958904E0,1.809946469E1
3.071910278E0,-1.196475697E1,-1.206646442E1,-4.064051151E0,1.747202005E1
3.076708246E0,-1.197723961E1,-1.108366776E1,-3.904440641E0,1.677935089E1
3.081506163E0,-1.137158394E1,-1.004805374E1,-3.079025269E0,1.548407898E1
3.086304132E0,-1.034497547E1,-9.279092789E0,-1.992111444E0,1.403882433E1
3.091102100E0,-8.890441895E0,-7.966289520E0,-1.656653166E0,1.205181420E1
3.095900069E0,-7.439821720E0,-6.829814434E0,-1.705986738E0,1.024244615E1
3.100698038E0,-6.300846577E0,-5.815251350E0,-2.274543047E0,8.870815178E0
3.105496007E0,-5.185595512E0,-4.622599125E0,-2.826607704E0,7.499902306E0
3.110293975E0,-4.193519115E0,-3.794600010E0,-2.918394566E0,6.364088202E0
3.115091944E0,-3.265769005E0,-2.749816418E0,-2.376530170E0,4.886167534E0
3.119889913E0,-2.340653419E0,-1.791792393E0,-1.759900093E0,3.433136576E0
3.124687882E0,-1.294027328E0,-8.078179359E-1,-1.207391500E0,1.945474436E0
3.129485850E0,-3.247961998E-1,1.236672401E-1,-8.860020638E-1,9.517278049E-1
3.134283767E0,6.411089897E-1,1.495319843E0,-6.359272003E-1,1.746827288E0
3.139081736E0,1.384218216E0,2.324587822E0,-2.954342365E-1,2.721589609E0
3.143879705E0,1.935940742E0,2.526934147E0,3.628056049E-1,3.203886803E0
3.148677673E0,2.363158703E0,2.703903675E0,1.090266466E0,3.752904889E0
3.153475642E0,2.849797964E0,3.200011253E0,1.319905043E0,4.483700456E0
3.158273611E0,3.280687571E0,3.690315485E0,1.429618359E0,5.140539657E0
3.163071580E0,3.626502514E0,4.087291718E0,1.708002806E0,5.724923375E0
3.167869548E0,4.027883530E0,4.539567471E0,1.743990421E0,6.314508780E0
3.172667517E0,4.370161057E0,5.011280537E0,1.859942079E0,6.904391705E0
3.177465486E0,4.648831367E0,5.452405930E0,2.171513081E0,7.487044314E0
3.182263455E0,5.059934616E0,5.867807388E0,2.204901218E0,8.055786197E0
3.187061423E0,5.369447708E0,6.259506226E0,2.113651514E0,8.513513352E0
3.191859340E0,5.496734619E0,6.627089977E0,2.165493488E0,8.878162822E0
3.196657309E0,5.710556030E0,7.127567291E0,2.161387920E0,9.385321700E0
3.201455278E0,5.883913994E0,7.894965649E0,2.089583874E0,1.006564887E1
3.206253246E0,6.068855286E0,8.365770340E0,2.299225092E0,1.058789657E1
3.211051215E0,6.328932762E0,8.804349899E0,2.443535328E0,1.111498232E1
3.215849184E0,6.575745583E0,9.031599998E0,2.746520042E0,1.150450350E1
3.220647153E0,6.597136974E0,8.765358925E0,3.063393116E0,1.139026386E1
3.225445121E0,6.738531113E0,8.731454849E0,3.130778790E0,1.146507223E1
3.230243090E0,6.855196476E0,8.727272034E0,3.047274590E0,1.150846985E1
3.235041059E0,6.939425945E0,8.803236961E0,3.064171553E0,1.162074700E1
3.239838975E0,6.893301487E0,8.954351425E0,3.171494484E0,1.173696690E1
3.244636944E0,6.677243233E0,9.174741745E0,3.152307749E0,1.177703305E1
3.249434913E0,6.826373100E0,9.325677872E0,2.838206530E0,1.190054847E1
3.254232882E0,6.897521019E0,9.378843307E0,2.572228909E0,1.192287128E1
3.259030850E0,6.942797184E0,9.403970718E0,2.433699608E0,1.193984890E1
3.263828819E0,7.062036037E0,9.415766716E0,2.205333710E0,1.197466127E1
3.268626788E0,7.238255024E0,9.524116516E0,1.952509642E0,1.212078484E1
3.273424757E0,7.323032379E0,9.575979233E0,1.642746210E0,1.216654415E1
3.278222725E0,7.359215260E0,9.607437134E0,1.377057195E0,1.218019639E1
3.283020694E0,7.439797401E0,9.652056694E0,1.135387421E0,1.223935817E1
3.287818663E0,7.548389435E0,9.800253868E0,1.014432669E0,1.241177798E1
3.292616632E0,7.711613178E0,9.946447372E0,7.860941887E-1,1.261026317E1
3.297414548E0,7.827079296E0,1.008081913E1,5.519658327E-1,1.277461353E1
3.302212517E0,7.833095551E0,1.016262054E1,3.029106855E-1,1.283464051E1
3.307010486E0,7.703602791E0,1.015618134E1,1.202326268E-1,1.274786143E1
3.311808455E0,7.575287819E0,1.024312401E1,-2.955602109E-2,1.273999406E1
3.316606423E0,7.520153046E0,1.030610275E1,-3.033848703E-1,1.276168085E1
3.321404392E0,7.481333733E0,1.035440063E1,-6.025116444E-1,1.278854907E1
3.326202361E0,7.437997818E0,1.053340435E1,-7.979820371E-1,1.291948892E1
3.331000330E0,7.316788197E0,1.066332245E1,-8.259952068E-1,1.295855329E1
3.335798298E0,7.223545074E0,1.073911762E1,-9.593287706E-1,1.297800302E1
3.340596267E0,7.130540848E0,1.083193874E1,-1.045195580E0,1.301030144E1
3.345394184E0,7.132145405E0,1.099357605E1,-1.129448533E0,1.315301739E1
3.350192153E0,7.109761715E0,1.105366516E1,-1.314685345E0,1.320835428E1
3.354990121E0,7.076377869E0,1.109774017E1,-1.354987025E0,1.323143796E1
3.359788090E0,7.040005207E0,1.121848488E1,-1.322901011E0,1.331037728E1
3.364586059E0,7.048886776E0,1.130559158E1,-1.293249846E0,1.338565280E1
3.369384028E0,7.005208015E0,1.133028412E1,-1.171028376E0,1.337234404E1
3.374181996E0,7.038147926E0,1.128539658E1,-9.693512917E-1,1.333549189E1
3.378979965E0,6.991018295E0,1.071308899E1,-5.682530999E-1,1.280498044E1
3.383777934E0,6.828346252E0,9.990685463E0,-2.368243486E-1,1.210356123E1
3.388575903E0,6.687240601E0,9.387133598E0,-2.805258706E-2,1.152554775E1
3.393373871E0,6.571310043E0,8.965173721E0,1.415274143E-1,1.111649610E1
3.398171788E0,6.479876518E0,8.662874222E0,2.524140775E-1,1.082117842E1
3.402969809E0,6.379088879E0,8.475561142E0,3.589993119E-1,1.061399039E1
3.407767725E0,6.311699390E0,8.324430466E0,4.847496748E-1,1.045794789E1
3.412565694E0,6.291676044E0,8.185785294E0,4.814719558E-1,1.033557369E1
3.417363663E0,6.383461952E0,8.095469475E0,4.640030861E-1,1.031990850E1
3.422161632E0,6.414714813E0,7.934052944E0,4.210058749E-1,1.021151351E1
3.426959600E0,6.504737377E0,7.761562824E0,3.888024092E-1,1.013432944E1
3.431757569E0,6.567150116E0,7.578219414E0,3.845793307E-1,1.003517670E1
3.436555538E0,6.616307259E0,7.391226768E0,3.800545335E-1,9.927245153E0
3.441353507E0,6.640301228E0,7.169518471E0,3.993067145E-1,9.780339531E0
3.446151475E0,6.663111210E0,6.934616089E0,4.281523824E-1,9.626487717E0
3.450949444E0,6.627489090E0,6.631509781E0,5.001782775E-1,9.388861056E0
3.455747361E0,6.550539494E0,6.374776840E0,5.698136687E-1,9.158167668E0
3.460545330E0,6.432724476E0,6.087587833E0,6.538451910E-1,8.880663452E0
3.465343298E0,6.260117054E0,5.721920490E0,6.641579866E-1,8.507087954E0
3.470141267E0,6.052360535E0,5.301414967E0,5.512777567E-1,8.064736564E0
3.474939236E0,5.771966457E0,4.787361145E0,4.545183182E-1,7.512723236E0
3.479737205E0,5.381845951E0,4.231629848E0,3.600788414E-1,6.855699365E0
3.484535173E0,4.902390003E0,3.559317589E0,3.011901081E-1,6.065713884E0
3.489333142E0,4.284993172E0,2.666671753E0,2.084904611E-1,5.051313987E0
3.494131111E0,3.631716728E0,1.390216827E0,-2.205946445E-1,3.894962287E0
3.498929080E0,2.762384176E0,-3.449440002E-1,-1.183571100E0,3.024994752E0
3.503727048E0,1.561423779E0,-2.544359684E0,-2.348774195E0,3.798493206E0
3.508525017E0,2.749824524E-2,-5.256316662E0,-3.229393959E0,6.169165774E0
3.513322934E0,-1.884638309E0,-8.933092117E0,-4.662011147E0,1.025116307E1
3.518120955E0,-4.484353065E0,-1.418873596E1,-6.528331757E0,1.624957741E1
3.522918871E0,-7.989764690E0,-2.081565475E1,-9.269985199E0,2.414664466E1
3.527716840E0,-1.204110432E1,-2.789764977E1,-1.466518688E1,3.373921697E1
3.532514809E0,-1.775946617E1,-3.722959900E1,-1.750817108E1,4.481046457E1
3.537312778E0,-2.426650047E1,-4.706801605E1,-1.738948631E1,5.573737897E1
3.542110746E0,-3.295707703E1,-5.905183411E1,-1.325312042E1,6.891250422E1
3.546908715E0,-3.818170547E1,-6.479927826E1,-5.596030235E0,7.541952433E1
3.551706684E0,-4.040426636E1,-6.196633148E1,2.233167887E0,7.400890498E1
3.556504653E0,-4.219691467E1,-5.206731796E1,3.057860374E0,6.708901339E1
3.561302621E0,-4.061961365E1,-3.788006592E1,-2.617188931E0,5.560307622E1
3.566100590E0,-3.448901749E1,-2.490687561E1,-8.508852959E0,4.338485172E1
3.570898559E0,-2.699274063E1,-1.399150372E1,-1.318484688E1,3.313925784E1
3.575696528E0,-2.142720413E1,-4.386954784E0,-1.481680298E1,2.641795033E1
3.580494496E0,-1.851750183E1,-1.331075668E0,-9.950569153E0,2.106379508E1
3.585292413E0,-1.654077530E1,-1.370710373E0,-7.119875431E0,1.806014177E1
3.590090382E0,-1.415441132E1,-2.060007572E0,-6.625560760E0,1.576353534E1
3.594888350E0,-1.338513565E1,-1.939640522E0,-5.827727318E0,1.472706581E1
3.599686319E0,-1.263996887E1,-2.513329983E0,-5.607429504E0,1.405449773E1
3.604484288E0,-1.162360954E1,-3.098575115E0,-3.440886259E0,1.251196087E1
3.609282257E0,-1.004833221E1,-2.337766647E0,-2.927107573E0,1.072390283E1
3.614080225E0,-8.913225174E0,-1.954089642E0,-3.453826904E0,9.756688455E0
3.618878194E0,-9.234497070E0,-4.919400692E0,-1.051493764E0,1.051580137E1
3.623676163E0,-8.775386810E0,-4.976346970E0,-1.365421414E0,1.018016790E1
3.628474132E0,-8.286840439E0,-4.850856781E0,-9.553651810E-1,9.649624791E0
3.633272100E0,-7.871289730E0,-4.035381794E0,1.060217857E0,8.908735609E0
3.638070069E0,-6.227173805E0,-3.386558056E0,1.194163561E-1,7.089480188E0
3.642867986E0,-4.760651112E0,-2.595905304E0,-1.926452398E0,5.754454118E0
3.647665780E0,-3.604772091E0,-1.537238598E0,-2.540534019E0,4.670310208E0
3.652463748E0,-2.700400352E0,-7.744932175E-1,-1.372788668E0,3.126747597E0
3.657261717E0,-1.794770718E0,7.747411728E-2,-5.365697145E-1,1.874862989E0
3.662059686E0,-9.936408997E-1,1.092020512E0,-4.267156124E-2,1.477041603E0
3.666857655E0,-8.527469635E-2,2.332761765E0,-1.076852083E-1,2.336802372E0
3.671655623E0,5.740437508E-1,2.021317482E0,4.276531935E-1,2.144326898E0
3.676453592E0,1.044693470E0,2.087595940E0,8.553006649E-1,2.486157775E0
3.681251561E0,1.589375973E0,2.641295433E0,9.129425883E-1,3.214968385E0
3.686049530E0,2.131813526E0,3.389827251E0,9.410618544E-1,4.113533167E0
3.690847498E0,2.583834648E0,4.021871567E0,9.237806201E-1,4.868780445E0
3.695645415E0,3.086425066E0,4.336723328E0,9.386566877E-1,5.405022228E0
3.700443384E0,3.572544575E0,4.681174278E0,9.554379582E-1,5.965679262E0
3.705241353E0,3.999350548E0,5.093128204E0,8.243415952E-1,6.527962835E0
3.710039321E0,4.426412582E0,5.398209095E0,7.729299664E-1,7.023618050E0
3.714837290E0,4.808190346E0,5.608665466E0,9.347786307E-1,7.446451088E0
3.719635259E0,5.044564724E0,5.824960709E0,1.124920964E0,7.787377459E0
3.724433228E0,5.307992935E0,6.023054123E0,1.190125108E0,8.115932956E0
3.729231196E0,5.555449963E0,6.198237896E0,1.416930795E0,8.443273665E0
3.734029165E0,5.868038654E0,6.410439014E0,1.491982937E0,8.817801262E0
3.738827134E0,6.092787743E0,6.618982315E0,1.630226016E0,9.142790943E0
3.743625103E0,6.301757812E0,6.787803650E0,1.678509235E0,9.412960383E0
3.748423071E0,6.266134262E0,7.124471188E0,1.968328476E0,9.690038456E0
3.753221040E0,6.275817394E0,7.473202229E0,2.240279675E0,1.001266640E1
3.758018957E0,6.361571312E0,7.659646034E0,2.248556852E0,1.020763317E1
3.762816925E0,6.820802212E0,7.617797852E0,1.861611128E0,1.039325661E1
3.767614894E0,7.224744797E0,7.718607426E0,1.542337775E0,1.068422406E1
3.772412863E0,7.348958969E0,7.887757301E0,1.624768138E0,1.090246691E1
3.777210832E0,7.564361572E0,8.082061768E0,1.606078506E0,1.118565048E1
3.782008800E0,7.792485237E0,8.336859703E0,1.548587918E0,1.151625722E1
3.786806769E0,7.901959419E0,8.463229179E0,1.585859418E0,1.168683708E1
3.791604738E0,7.926311016E0,8.514089584E0,1.735771894E0,1.176133631E1
3.796402707E0,7.944396019E0,8.542225838E0,1.873349428E0,1.181492651E1
3.801200675E0,8.082794189E0,8.624096870E0,1.760017633E0,1.195007409E1
3.805998644E0,8.214525223E0,8.721457481E0,1.651967287E0,1.209426480E1
3.810796613E0,8.425767899E0,8.850741386E0,1.375664592E0,1.229722086E1
3.815594530E0,8.413379669E0,9.054479599E0,1.208747029E0,1.241892216E1
3.820392498E0,8.435809135E0,9.191518784E0,1.148364782E0,1.252859270E1
3.825190467E0,8.425861359E0,9.178475380E0,1.160634518E0,1.251345765E1
3.829988436E0,8.383048058E0,9.068477631E0,1.097359180E0,1.239826514E1
3.834786405E0,8.364051819E0,8.969682693E0,1.154700398E0,1.231851872E1
3.839584373E0,8.397199631E0,8.944332123E0,1.020273685E0,1.231076753E1
3.844382342E0,8.422883034E0,8.958569527E0,6.026759148E-1,1.231113905E1
3.849180311E0,8.310733795E0,9.185921669E0,4.311707020E-1,1.239497323E1
3.853978280E0,8.195699692E0,9.317091942E0,3.503224850E-1,1.241371909E1
3.858776248E0,8.030500412E0,9.385309219E0,3.432255983E-1,1.235681067E1
3.863574217E0,7.935422897E0,9.559827805E0,3.501384556E-1,1.242915287E1
3.868372186E0,7.837035656E0,9.672735214E0,2.900561690E-1,1.245251248E1
3.873170155E0,7.858322144E0,9.864376068E0,9.218533337E-2,1.261220204E1
3.877968123E0,7.823032379E0,1.000994682E1,-7.785049826E-2,1.270452406E1
3.882766040E0,7.796544075E0,1.017836952E1,-1.602288634E-1,1.282228447E1
3.887564009E0,7.700713158E0,1.032380676E1,-9.119106829E-2,1.287984026E1
3.892361978E0,7.581530094E0,1.040301895E1,1.113636941E-1,1.287302621E1
3.897159946E0,7.279537678E0,1.044678307E1,3.696174026E-1,1.273827156E1
3.901957915E0,6.867540359E0,1.036614132E1,6.177975535E-1,1.244996668E1
3.906755884E0,6.632863998E0,1.022072220E1,7.146169543E-1,1.220527445E1
3.911553853E0,6.770676613E0,1.005403423E1,5.368872881E-1,1.213317412E1
3.916351821E0,7.071833611E0,9.847526550E0,2.701432705E-1,1.212673027E1
3.921149790E0,7.103200912E0,9.656449318E0,2.513298392E-1,1.199023116E1
3.925947759E0,6.910328865E0,9.323119164E0,3.883369267E-1,1.161137380E1
3.930745728E0,6.789077282E0,8.867302895E0,4.225619435E-1,1.117583060E1
3.935543696E0,6.644948959E0,8.435725212E0,4.494635463E-1,1.074796837E1
3.940341665E0,6.646156788E0,8.007875443E0,4.474468529E-1,1.041622186E1
3.945139582E0,6.778900146E0,7.551516056E0,3.286777437E-1,1.015317246E1
3.949937550E0,6.914871216E0,7.079779148E0,8.129268885E-3,9.896402518E0
3.954735519E0,7.026487350E0,6.667830467E0,-2.835105658E-1,9.690813478E0
3.959533488E0,7.158246040E0,6.237555981E0,-5.716862082E-1,9.511804041E0
3.964331457E0,7.137740612E0,5.834756851E0,-7.885230780E-1,9.252756195E0
3.969129425E0,6.910667419E0,5.437650204E0,-1.021697879E0,8.852639746E0
3.973927394E0,6.695386410E0,5.014787197E0,-1.282196641E0,8.462878827E0
3.978725363E0,6.454181194E0,4.551532745E0,-1.475818753E0,8.034360349E0
3.983523384E0,6.161464691E0,4.009242058E0,-1.659036875E0,7.535918814E0
3.988321352E0,5.841682911E0,3.464125633E0,-1.733104944E0,7.009213821E0
3.993119321E0,5.466949463E0,2.839099884E0,-1.685354948E0,6.386583271E0
3.997917290E0,4.976326466E0,2.097475052E0,-1.648575306E0,5.646328650E0
4.002715207E0,4.368790627E0,1.130756378E0,-1.617049336E0,4.793724031E0
4.007513175E0,3.671836853E0,-8.336925507E-2,-1.583624601E0,3.999650383E0
4.012311144E0,2.967149973E0,-1.619232655E0,-1.829070807E0,3.843357044E0
4.017109113E0,2.304692984E0,-3.701317310E0,-2.756030798E0,5.158203693E0
4.021907082E0,1.522301197E0,-5.077692032E0,-2.818688154E0,6.003778828E0
4.026705050E0,6.738467216E-1,-7.199967384E0,-3.486079693E0,8.027848489E0
4.031503019E0,-4.021754265E-1,-1.015411568E1,-4.622321129E0,1.116394477E1
4.036300988E0,-2.062107086E0,-1.329874992E1,-6.016738415E0,1.474144417E1
4.041098957E0,-4.817196369E0,-1.732056236E1,-8.130765915E0,1.973110782E1
4.045896925E0,-9.337612152E0,-2.187457466E1,-1.127228165E1,2.632018903E1
4.050694894E0,-1.551384163E1,-2.649418259E1,-1.431057739E1,3.387349433E1
4.055492863E0,-2.220982742E1,-3.175725937E1,-1.615904427E1,4.198707740E1
4.060290832E0,-2.741687965E1,-3.569335175E1,-1.527283096E1,4.752851791E1
4.065088800E0,-3.044983292E1,-3.655099487E1,-9.736816406E0,4.855896565E1
4.069886769E0,-3.165932274E1,-3.613904190E1,-2.570330620E0,4.811392382E1
4.074684686E0,-3.251742554E1,-3.574379730E1,1.992717981E0,4.836292934E1
4.079482655E0,-3.396628952E1,-3.377872849E1,1.034704447E0,4.791431869E1
4.084280623E0,-3.438729477E1,-2.810866547E1,-3.505860806E0,4.455192674E1
4.089078592E0,-3.009483147E1,-2.112659836E1,-1.011643410E1,3.813625936E1
4.093876561E0,-2.469132996E1,-1.348716927E1,-1.251796150E1,3.079390962E1
4.098674530E0,-2.054697037E1,-7.552767277E0,-8.540816307E0,2.349825159E1
4.103472498E0,-1.664019585E1,-6.454882145E0,-5.528037071E0,1.868477496E1
4.108270467E0,-1.429112816E1,-7.032282352E0,-6.743683338E0,1.729643328E1
4.113068436E0,-1.357442951E1,-8.491790771E0,-6.938489437E0,1.745045222E1
4.117866405E0,-1.190241814E1,-8.528129578E0,-6.434649467E0,1.599378834E1
4.122664373E0,-1.002195835E1,-8.998586655E0,-4.282542229E0,1.413344894E1
4.127462342E0,-9.090560913E0,-9.373624802E0,-2.471342802E0,1.328949491E1
4.132260311E0,-8.874287605E0,-9.458110809E0,-2.134025335E0,1.314393034E1
4.137058280E0,-8.815322876E0,-8.881416321E0,-1.627405643E0,1.261895092E1
4.141856248E0,-7.883641720E0,-8.554656029E0,-1.697675467E0,1.175653216E1
4.146654165E0,-6.893376827E0,-7.853732586E0,-2.170736313E0,1.067294972E1
4.151452134E0,-5.959686756E0,-7.018168926E0,-2.428010702E0,9.521963940E0
4.156250102E0,-5.041895866E0,-6.060389996E0,-2.635655642E0,8.312383622E0
4.161048071E0,-4.292407036E0,-5.126867294E0,-2.582788467E0,7.168006884E0
4.165846040E0,-3.743818283E0,-4.304008007E0,-2.219891548E0,6.121158285E0
4.170644009E0,-3.410073280E0,-3.655849457E0,-1.563468695E0,5.238155151E0
4.175441977E0,-3.183958054E0,-3.302943707E0,-7.142879963E-1,4.642976778E0
4.180239946E0,-2.702310085E0,-2.737696648E0,-3.385720253E-1,3.861618022E0
4.185037915E0,-2.051423550E0,-1.895770550E0,-2.929459810E-1,2.808576491E0
4.189835884E0,-1.317914963E0,-1.102349281E0,-3.232033253E-1,1.748294648E0
4.194633852E0,-5.840430260E-1,-3.759407997E-1,-2.730187178E-1,7.463088914E-1
4.199431821E0,6.090402603E-2,2.793922424E-1,-1.539171934E-1,3.247457897E-1
4.204229790E0,6.450719833E-1,9.597325325E-1,-4.883229733E-2,1.157406148E0
4.209027759E0,1.151788712E0,1.712863922E0,2.049194574E-1,2.074249753E0
4.213825675E0,1.596174717E0,2.476032257E0,5.018408298E-1,2.988369737E0
4.218623644E0,2.064809799E0,3.088781357E0,7.268602848E-1,3.785807133E0
4.223421613E0,2.478939056E0,3.656308889E0,7.607503533E-1,4.482463010E0
4.228219582E0,2.963209629E0,4.266878128E0,8.401426077E-1,5.262385378E0
4.233017550E0,3.476931810E0,4.738918304E0,9.309383035E-1,5.950886290E0
4.237815519E0,3.924583197E0,5.192099571E0,1.063697100E0,6.594823936E0
4.242613488E0,4.332601547E0,5.698059082E0,1.078326225E0,7.238929542E0
4.247411457E0,4.717714310E0,6.165899754E0,1.058912277E0,7.835588254E0
4.252209425E0,5.132350445E0,6.545592308E0,1.060707569E0,8.385159527E0
4.257007394E0,5.500276089E0,6.985206127E0,1.152786970E0,8.965213856E0
4.261805363E0,5.823917866E0,7.262475491E0,1.215281487E0,9.388209555E0
4.266603332E0,6.093524933E0,7.511639595E0,1.248273611E0,9.752638747E0
4.271401300E0,6.344838142E0,7.666022301E0,1.335129499E0,1.004029082E1
4.276199269E0,6.637628555E0,7.864354610E0,1.494802713E0,1.039906830E1
4.280997186E0,6.855052471E0,8.161260605E0,1.562237024E0,1.077211695E1
4.285795155E0,7.083520889E0,8.343726158E0,1.625485897E0,1.106509100E1
4.290593123E0,7.172451973E0,8.364282608E0,1.989099503E0,1.119650873E1
4.295391092E0,7.337060928E0,8.416788101E0,2.126268864E0,1.136643323E1
4.300189061E0,7.522327900E0,8.563124657E0,2.011742592E0,1.157409302E1
4.304987030E0,7.651823997E0,8.719425201E0,2.025659323E0,1.177633568E1
4.309784998E0,7.573096275E0,8.863801003E0,2.174330711E0,1.185944642E1
4.314582967E0,7.740835667E0,9.086647987E0,2.175733566E0,1.213348775E1
4.319380936E0,7.922569275E0,9.041567802E0,2.049156189E0,1.219492080E1
4.324178905E0,7.826265335E0,8.908502579E0,2.181295395E0,1.205694393E1
4.328976873E0,7.992114067E0,8.885995865E0,2.230410576E0,1.215769473E1
4.333774842E0,8.075545311E0,8.856738091E0,2.137448788E0,1.217476608E1
4.338572811E0,8.191195488E0,8.799272537E0,2.096227646E0,1.220315742E1
4.343370727E0,8.200345039E0,8.787677765E0,2.116088390E0,1.220437501E1
4.348168696E0,8.186989784E0,8.895653725E0,2.048949003E0,1.226204098E1
4.352966665E0,8.064811707E0,8.764740944E0,2.030950785E0,1.208249282E1
4.357764634E0,8.010538101E0,8.629517555E0,1.845250726E0,1.191814768E1
4.362562602E0,7.933695316E0,8.637664795E0,1.452917814E0,1.181794164E1
4.367360571E0,7.674998283E0,8.661589622E0,1.194608212E0,1.163425211E1
4.372158540E0,7.242763042E0,8.626389503E0,1.130695701E0,1.132036594E1
4.376956509E0,7.130114555E0,8.522164345E0,4.916639924E-1,1.112238968E1
4.381754477E0,7.303442001E0,8.370549202E0,-2.864009440E-1,1.111253277E1
4.386552446E0,7.389923096E0,8.346008301E0,-5.168306828E-1,1.115947722E1
4.391350415E0,7.292508125E0,8.550582886E0,-3.874868453E-1,1.124470046E1
4.396148384E0,7.239378452E0,8.787349701E0,-3.700610995E-1,1.139135902E1
4.400946352E0,7.269413948E0,8.914805412E0,-5.191959143E-1,1.151467321E1
4.405744321E0,7.442210674E0,8.801860809E0,-7.790198922E-1,1.155275402E1
4.410542290E0,7.788106918E0,8.559471130E0,-1.152823210E0,1.162962410E1
4.415340259E0,8.150675774E0,8.277188301E0,-1.403068423E0,1.170102400E1
4.420138175E0,8.457288742E0,7.927336216E0,-1.548735380E0,1.169474128E1
4.424936144E0,8.657114029E0,7.656495571E0,-1.628297567E0,1.167128531E1
4.429734113E0,8.830831528E0,7.479621887E0,-1.677613497E0,1.169370412E1
4.434532082E0,8.808357239E0,7.193856716E0,-1.591979980E0,1.148360274E1
4.439330050E0,8.639693260E0,6.959669590E0,-1.198886156E0,1.115879153E1
4.444128019E0,8.627985001E0,6.817818642E0,-6.496402025E-1,1.101575275E1
4.448925988E0,8.631827354E0,6.847017765E0,-2.524641752E-1,1.102060951E1
4.453723957E0,8.438653946E0,6.869833469E0,9.578001499E-2,1.088185031E1
4.458521925E0,8.388006210E0,6.893294334E0,4.218576550E-1,1.086527123E1
4.463319894E0,8.376883507E0,6.938898087E0,5.339033008E-1,1.089061691E1
4.468117863E0,8.402733803E0,6.930311680E0,3.346921206E-1,1.089711770E1
4.472915832E0,8.486843109E0,6.894224644E0,-1.860201359E-2,1.093422084E1
4.477713800E0,8.566749573E0,6.859743595E0,-3.428488076E-1,1.098011046E1
4.482511717E0,8.589752197E0,6.817530155E0,-5.465198755E-1,1.098003844E1
4.487309686E0,8.508185387E0,6.750914097E0,-7.245154381E-1,1.088526446E1
4.492107655E0,8.348464012E0,6.519042015E0,-8.329677582E-1,1.062490449E1
4.496905623E0,8.227596283E0,6.153490067E0,-9.617310166E-1,1.031909430E1
4.501703592E0,8.042823792E0,5.838500977E0,-1.112174869E0,1.000060204E1
4.506501561E0,7.736968994E0,5.509461403E0,-1.163980484E0,9.569206066E0
4.511299530E0,7.289106369E0,5.249621868E0,-1.090689778E0,9.048712926E0
4.516097498E0,6.843010426E0,4.958272934E0,-9.402623177E-1,8.502667546E0
4.520895467E0,6.355963707E0,4.601660728E0,-8.560525179E-1,7.893439176E0
4.525693436E0,5.883266926E0,4.143717289E0,-7.968662381E-1,7.240042713E0
4.530491405E0,5.448741913E0,3.481861115E0,-9.407200813E-1,6.534301763E0
4.535289373E0,5.021110535E0,2.578240395E0,-1.273792863E0,5.786313402E0
4.540087342E0,4.466618538E0,1.789047241E0,-1.433476925E0,5.020580374E0
4.544885311E0,3.708955765E0,8.199973106E-1,-1.642686009E0,4.138498010E0
4.549683280E0,2.746430159E0,-3.723988533E-1,-2.409879446E0,3.672748081E0
4.554481248E0,1.414922237E0,-1.800824642E0,-2.768253565E0,3.592798649E0
4.559279165E0,4.019594193E-2,-3.685947895E0,-3.464663744E0,5.058826194E0
4.564077134E0,-1.452633381E0,-6.135316372E0,-4.575513363E0,7.790222927E0
4.568875102E0,-3.564136982E0,-9.412261963E0,-6.024280548E0,1.172969325E1
4.573673071E0,-6.619159222E0,-1.398027039E1,-8.846332550E0,1.781905801E1
4.578471040E0,-1.006724739E1,-1.940815735E1,-1.247171593E1,2.517081127E1
4.583269009E0,-1.460793972E1,-2.600509071E1,-1.450760937E1,3.316816810E1
4.588066977E0,-1.859842682E1,-3.165389252E1,-1.511976051E1,3.970488068E1
4.592864946E0,-2.065396118E1,-3.463178635E1,-1.185070419E1,4.202839431E1
4.597662915E0,-2.200144196E1,-3.554521561E1,-5.095882416E0,4.211286998E1
4.602460884E0,-2.347247505E1,-3.563059998E1,2.922120094E-1,4.266828011E1
4.607258852E0,-2.517868423E1,-3.541078186E1,2.209583282E0,4.350599809E1
4.612056821E0,-2.731049156E1,-3.369948196E1,8.600044250E-2,4.337655392E1
4.616854790E0,-2.881994057E1,-2.969198608E1,-3.536335707E0,4.152961211E1
4.621652759E0,-2.898671722E1,-2.472311592E1,-6.571121216E0,3.866059842E1
4.626450727E0,-2.634453201E1,-2.032131195E1,-8.248077393E0,3.427857738E1
4.631248696E0,-2.249304962E1,-1.660144424E1,-8.208605766E0,2.913634227E1
4.636046613E0,-1.844664383E1,-1.383693027E1,-7.335126877E0,2.419800393E1
4.640844582E0,-1.548137283E1,-1.217975235E1,-6.082664013E0,2.061596647E1
4.645642550E0,-1.354996872E1,-1.140774632E1,-5.271616936E0,1.848048358E1
4.650440519E0,-1.215964699E1,-1.093558121E1,-4.566917419E0,1.697941948E1
4.655238488E0,-1.118745518E1,-1.057778931E1,-3.918491602E0,1.588720732E1
4.660036457E0,-1.014016151E1,-1.039655876E1,-3.292375326E0,1.489130770E1
4.664834425E0,-9.322803497E0,-1.006116390E1,-2.456556797E0,1.393471763E1
4.669632394E0,-8.871479988E0,-9.407679558E0,-2.348832369E0,1.314247333E1
4.674430363E0,-8.521777153E0,-8.592191696E0,-2.900787592E0,1.244431648E1
4.679228332E0,-8.168148041E0,-7.853558540E0,-3.131407738E0,1.175596608E1
4.684026300E0,-7.880388260E0,-7.398426056E0,-3.185220480E0,1.126866703E1
4.688824269E0,-7.516960621E0,-7.057022095E0,-2.940936327E0,1.072172394E1
4.693622238E0,-7.079764843E0,-6.974155426E0,-2.915694952E0,1.035679445E1
4.698420207E0,-6.482691765E0,-6.763740540E0,-3.321733713E0,9.940190816E0
4.703218175E0,-5.968394279E0,-6.286610603E0,-3.503142834E0,9.349610306E0
4.708016144E0,-5.297838211E0,-5.502234459E0,-3.312621593E0,8.325571186E0
4.712814061E0,-4.394289494E0,-4.614036560E0,-2.876516342E0,6.990955571E0
4.717612030E0,-3.584939480E0,-3.688728333E0,-2.185990810E0,5.589012758E0
4.722409998E0,-2.809846878E0,-2.633049965E0,-1.708078027E0,4.212567168E0
4.727207967E0,-1.990516663E0,-1.635998726E0,-1.498484135E0,2.980621264E0
4.732005936E0,-1.215759754E0,-6.806507111E-1,-1.279076576E0,1.891400026E0
4.736803905E0,-4.549198151E-1,2.212839127E-1,-9.200338125E-1,1.049943248E0
4.741601873E0,2.798209190E-1,1.072198868E0,-6.402549744E-1,1.279779899E0
4.746399842E0,9.046459198E-1,1.876870632E0,-4.457280636E-1,2.130657438E0
4.751197811E0,1.510197163E0,2.556573391E0,-2.972998619E-1,2.984149826E0
4.755995780E0,2.067822933E0,3.221455097E0,-3.254365921E-2,3.828148863E0
4.760793748E0,2.587515593E0,3.845077515E0,2.236632109E-1,4.640030524E0
4.765591717E0,3.055263519E0,4.382122040E0,5.395807028E-1,5.369243529E0
4.770389686E0,3.464195728E0,4.847115517E0,8.208177090E-1,6.014060408E0
4.775187655E0,3.828832388E0,5.266553879E0,1.037893295E0,6.593464166E0
4.779985623E0,4.235313416E0,5.762459755E0,1.125834346E0,7.239566640E0
4.784783592E0,4.629052639E0,6.291537285E0,1.263367295E0,7.912500658E0
4.789581561E0,5.022149563E0,6.748585224E0,1.363981605E0,8.522079240E0
4.794379530E0,5.342726707E0,7.093179226E0,1.377676129E0,8.986429309E0
4.799177446E0,5.619239807E0,7.270770550E0,1.557771206E0,9.320225938E0
4.803975415E0,5.815488338E0,7.466022491E0,1.719567180E0,9.618643758E0
4.808773384E0,6.014956951E0,7.602631569E0,1.760385752E0,9.852850952E0
4.813571352E0,6.284707546E0,7.890841484E0,1.673264861E0,1.022559258E1
4.818369321E0,6.513082504E0,8.341781616E0,1.556458712E0,1.069710839E1
4.823167290E0,6.702890873E0,8.613303185E0,1.801519752E0,1.106179060E1
4.827965259E0,6.725397110E0,8.688900948E0,2.254099607E0,1.121645804E1
4.832763227E0,6.849177361E0,9.036819458E0,2.351588249E0,1.158038444E1
4.837561196E0,7.012606621E0,9.257108688E0,2.328548908E0,1.184452840E1
4.842359165E0,7.204402924E0,9.633631706E0,2.142523766E0,1.221886613E1
4.847157134E0,7.387465477E0,1.005290318E1,1.941914678E0,1.262563032E1
4.851955102E0,7.495813370E0,1.035649776E1,1.938808441E0,1.293070927E1
4.856753071E0,7.594607830E0,1.058241463E1,2.206496239E0,1.321113898E1
4.861551040E0,7.693749905E0,1.085718727E1,2.452435255E0,1.353095494E1
4.866349009E0,7.738287449E0,1.088436031E1,2.704899788E0,1.362596327E1
4.871146977E0,7.685103416E0,1.092229843E1,2.906629562E0,1.366769596E1
4.875944894E0,7.658361912E0,1.102100658E1,2.929533482E0,1.373663932E1
4.880742863E0,7.803592205E0,1.114433479E1,2.736773491E0,1.387739811E1
4.885540832E0,7.947695732E0,1.097231960E1,2.530508995E0,1.378263910E1
4.890338800E0,8.134612083E0,1.062816429E1,2.414392948E0,1.359996630E1
4.895136769E0,8.291255951E0,1.033534431E1,2.410142422E0,1.346748135E1
4.899934738E0,8.418849945E0,9.992009163E0,2.517774582E0,1.330625681E1
4.904732707E0,8.564191818E0,9.520186424E0,2.477121830E0,1.304283189E1
4.909530675E0,8.561509132E0,8.999566078E0,2.396831751E0,1.265055061E1
4.914328644E0,8.565656662E0,8.598081589E0,2.363677979E0,1.236464535E1
4.919126613E0,8.557085037E0,8.423533440E0,2.294626236E0,1.222476705E1
4.923924582E0,8.671348572E0,8.308883667E0,1.852154255E0,1.215155584E1
4.928722550E0,8.557104111E0,8.242033958E0,1.726144075E0,1.200561235E1
4.933520519E0,8.511292458E0,8.237068176E0,1.620471239E0,1.195480316E1
4.938318488E0,8.445761681E0,8.255449295E0,1.544985294E0,1.191093250E1
4.943116405E0,8.356035233E0,8.165575027E0,1.513951540E0,1.178100121E1
4.947914373E0,8.196958542E0,8.082200050E0,1.500911474E0,1.160882519E1
4.952712342E0,8.079078674E0,8.000159264E0,1.491037130E0,1.146722513E1
4.957510311E0,7.942906380E0,7.900151730E0,1.562515974E0,1.131121635E1
4.962308280E0,7.819831371E0,7.798741817E0,1.607084513E0,1.116032514E1
4.967106248E0,7.702934742E0,7.698136330E0,1.593168259E0,1.100612065E1
4.971904217E0,7.601918221E0,7.593474865E0,1.623044133E0,1.086665972E1
4.976702186E0,7.535954952E0,7.425000191E0,1.591014743E0,1.069825092E1
4.981500155E0,7.423951626E0,7.261963367E0,1.604052544E0,1.050828979E1
4.986298123E0,7.394968033E0,7.118824482E0,1.649390817E0,1.039633129E1
4.991096092E0,7.379622936E0,6.945419312E0,1.664178610E0,1.026972125E1
4.995894061E0,7.396761894E0,6.734932899E0,1.602500677E0,1.013111130E1
5.000692030E0,7.434203148E0,6.556970596E0,1.616907477E0,1.004368606E1
5.005489998E0,7.463188171E0,6.390057564E0,1.547113419E0,9.946133584E0
5.010287967E0,7.481253624E0,6.279715061E0,1.531526327E0,9.886837205E0
5.015085936E0,7.428491592E0,6.109007835E0,1.583972216E0,9.747380779E0
5.019883905E0,7.424234390E0,5.878254890E0,1.582598567E0,9.600924698E0
5.024681873E0,7.398877621E0,5.637914658E0,1.492077112E0,9.421027855E0
5.029479790E0,7.314075947E0,5.388098717E0,1.477748513E0,9.203860897E0
5.034277759E0,7.212838650E0,5.102583885E0,1.508657455E0,8.963116144E0
5.039075727E0,7.090440750E0,4.824351311E0,1.511023521E0,8.708151795E0
5.043873696E0,6.966241837E0,4.498135090E0,1.480655074E0,8.423424723E0
5.048671665E0,6.854855061E0,4.181003571E0,1.322522402E0,8.137499263E0
5.053469634E0,6.679968357E0,3.781870127E0,1.216595531E0,7.772041147E0
5.058267602E0,6.468262196E0,3.278947115E0,1.182375908E0,7.347647433E0
5.063065571E0,6.186720848E0,2.695872307E0,1.169402838E0,6.849141942E0
5.067863540E0,5.788105488E0,2.015596867E0,1.303815365E0,6.266157544E0
5.072661509E0,5.366033077E0,1.137581348E0,1.200787306E0,5.615184099E0
5.077459477E0,4.712882996E0,7.132911682E-2,1.200252056E0,4.863841997E0
5.082257446E0,3.896169424E0,-1.338632107E0,1.097005367E0,4.263272555E0
5.087055415E0,2.806058168E0,-3.134940147E0,8.731274009E-1,4.296994721E0
5.091853384E0,1.561287880E0,-5.244837284E0,1.711903214E-1,5.474965215E0
5.096651352E0,-6.732368469E-2,-7.988889217E0,-7.228468060E-1,8.021807210E0
5.101449321E0,-1.710022926E0,-1.121541595E1,-1.277760625E0,1.141675986E1
5.106247238E0,-3.789898396E0,-1.519734097E1,-2.112336159E0,1.580457106E1
5.111045207E0,-6.498738766E0,-1.984310532E1,-2.747450352E0,2.106017373E1
5.115843227E0,-9.935277939E0,-2.466195488E1,-2.891245365E0,2.674473903E1
5.120641144E0,-1.382953262E1,-2.888658524E1,-2.696306705E0,3.213970829E1
5.125439113E0,-1.807288551E1,-3.255432129E1,-2.176799297E0,3.729814312E1
5.130237082E0,-2.201560974E1,-3.502155304E1,-2.434481144E0,4.143818225E1
5.135035050E0,-2.581167603E1,-3.615130234E1,-3.743769646E0,4.457774210E1
5.139833019E0,-2.906281281E1,-3.543657303E1,-4.574268818E0,4.605780858E1
5.144630988E0,-3.038125420E1,-3.156855392E1,-5.077462196E0,4.410640346E1
5.149428957E0,-2.984536743E1,-2.651531982E1,-6.327009201E0,4.042077669E1
5.154226925E0,-2.801551437E1,-2.333718491E1,-6.640058041E0,3.706188899E1
5.159024894E0,-2.543000603E1,-2.167932892E1,-6.024940968E0,3.395553596E1
5.163822863E0,-2.165257645E1,-2.034806061E1,-5.982243061E0,3.030948481E1
5.168620832E0,-1.858690643E1,-1.767790031E1,-5.523724079E0,2.623914591E1
5.173418800E0,-1.661062241E1,-1.462557220E1,-8.004442215E0,2.353489397E1
5.178216769E0,-1.487713432E1,-9.622217178E0,-1.752079964E1,2.491775690E1
5.183014738E0,-1.374699879E1,-5.736068726E0,-2.258783913E1,2.705721598E1
5.187812707E0,-1.315372658E1,-4.905877113E0,-2.019139099E1,2.459228382E1
5.192610675E0,-1.249174786E1,-7.169845581E0,-1.210626888E1,1.881521184E1
5.197408644E0,-1.248804855E1,-9.393181801E0,-6.113657951E0,1.677975073E1
5.202206613E0,-1.326917076E1,-9.645909309E0,-5.036905766E0,1.716056173E1
5.207004530E0,-1.335851479E1,-8.800734520E0,-5.930854797E0,1.706100478E1
5.211802498E0,-1.260820389E1,-7.648070335E0,-5.619824409E0,1.578107130E1
5.216600467E0,-1.144236660E1,-7.402818680E0,-4.769227028E0,1.443866352E1
5.221398436E0,-9.695433617E0,-8.185394287E0,-3.306137562E0,1.311230942E1
5.226196405E0,-8.071452141E0,-8.902133942E0,-1.537159204E0,1.211442061E1
5.230994373E0,-6.822552681E0,-8.810043335E0,-6.476210356E-1,1.116169797E1
5.235792342E0,-5.231731415E0,-8.218246460E0,-4.347249269E-1,9.751901058E0
5.240590311E0,-3.616276264E0,-7.489753723E0,-6.155134439E-1,8.339827435E0
5.245388280E0,-2.246083736E0,-6.717824936E0,-9.098871946E-1,7.141565566E0
5.250186248E0,-9.879674911E-1,-5.742691040E0,-1.280633807E0,5.966121277E0
5.254984217E0,-1.058197021E-2,-4.369743347E0,-1.327260375E0,4.566879569E0
5.259782186E0,7.003593445E-1,-2.976376534E0,-1.227155447E0,3.294727754E0
5.264580155E0,1.307908535E0,-1.700933456E0,-1.108095646E0,2.414886192E0
5.269378123E0,1.772283077E0,-4.979391098E-1,-9.525079727E-1,2.072728178E0
5.274176092E0,2.187720299E0,5.846905708E-1,-7.384204865E-1,2.381858095E0
5.278974061E0,2.569610119E0,1.551530361E0,-3.986208439E-1,3.028042470E0
5.283772030E0,2.909285307E0,2.421511173E0,-3.539848328E-2,3.785354727E0
5.288569998E0,3.255290985E0,3.156209946E0,2.208437920E-1,4.539532200E0
5.293367915E0,3.538848400E0,3.831948757E0,3.983962536E-1,5.231252130E0
5.298165884E0,3.779555798E0,4.603731155E0,3.259187341E-1,5.965367181E0
5.302963852E0,4.021036148E0,5.255928040E0,3.430127501E-1,6.626550310E0
5.307761821E0,4.225833893E0,5.797801018E0,4.699246883E-1,7.189784277E0
5.312559790E0,4.406507492E0,6.305736542E0,6.357250810E-1,7.719052273E0
5.317357759E0,4.639978886E0,6.707903862E0,7.771202326E-1,8.193246862E0
5.322155727E0,4.885902882E0,7.059142113E0,6.835666299E-1,8.612246958E0
5.326953696E0,5.103946686E0,7.390215874E0,5.567059517E-1,8.998637894E0
5.331751665E0,5.411205292E0,7.744107723E0,4.257320762E-1,9.456933696E0
5.336549634E0,5.652192116E0,8.001298904E0,4.747363925E-1,9.807825167E0
5.341347602E0,5.838476181E0,8.147932053E0,6.365574002E-1,1.004399354E1
5.346145571E0,6.082028389E0,8.263279915E0,8.493626714E-1,1.029535241E1
5.350943540E0,6.458796024E0,8.412173271E0,7.983664274E-1,1.063569905E1
5.355741509E0,6.684024334E0,8.501519203E0,9.930018187E-1,1.085992922E1
5.360539477E0,6.843727589E0,8.663006783E0,1.134232759E0,1.109823309E1
5.365337446E0,6.978470325E0,8.746142387E0,1.343729615E0,1.126941276E1
5.370135415E0,7.090577126E0,8.829963684E0,1.449350953E0,1.141688052E1
5.374933332E0,7.271055698E0,8.983613014E0,1.355776429E0,1.163665259E1
5.379731300E0,7.386183262E0,9.096962929E0,1.414031625E0,1.180296247E1
5.384529269E0,7.412389278E0,9.220081329E0,1.518285275E0,1.192722116E1
5.389327238E0,7.639138222E0,9.438810349E0,1.321976900E0,1.221454856E1
5.394125207E0,7.827053070E0,9.590650558E0,1.140672565E0,1.243159168E1
5.398923175E0,7.923636913E0,9.611121178E0,1.062635779E0,1.250147459E1
5.403721144E0,8.115498543E0,9.689052582E0,1.054549217E0,1.268270991E1
5.408519113E0,8.220871925E0,9.750298500E0,1.166228175E0,1.280668358E1
5.413317082E0,8.232719421E0,9.759011269E0,1.208307743E0,1.282481881E1
5.418115050E0,8.220585823E0,9.839414597E0,1.357194304E0,1.289317987E1
5.422913019E0,8.347011566E0,9.929195404E0,1.302423954E0,1.303678763E1
5.427710988E0,8.394142151E0,9.844423294E0,1.152245045E0,1.298853191E1
5.432508957E0,8.416642189E0,9.805426598E0,9.245434999E-1,1.295534782E1
5.437306925E0,8.481307030E0,9.764392853E0,6.471261978E-1,1.294969919E1
5.442104894E0,8.488084793E0,9.670746803E0,1.739131510E-1,1.286861193E1
5.446902863E0,8.502018929E0,9.500250816E0,-2.920193076E-1,1.275242591E1
5.451700832E0,8.492650986E0,9.331373215E0,-7.133520842E-1,1.263758355E1
5.456498800E0,8.427056313E0,9.237831116E0,-8.742043972E-1,1.253463343E1
5.461296769E0,8.356056213E0,9.321889877E0,-9.398559332E-1,1.255406848E1
5.466094686E0,8.347064018E0,9.365479469E0,-9.629506469E-1,1.258224771E1
5.470892655E0,8.290327072E0,9.265706062E0,-9.175667763E-1,1.246694672E1
5.475690623E0,8.269207001E0,9.013515472E0,-6.516976953E-1,1.224940633E1
5.480488592E0,8.216444969E0,8.805336952E0,-4.962949753E-1,1.205363993E1
5.485286561E0,8.172466278E0,8.638936996E0,-3.494166732E-1,1.189716477E1
5.490084530E0,8.084037781E0,8.361892700E0,3.846298903E-2,1.163075216E1
5.494882498E0,8.065205574E0,8.144660950E0,1.407918036E-1,1.146310888E1
5.499680467E0,8.105883598E0,7.920651913E0,2.275987864E-1,1.133551396E1
5.504478436E0,8.162405014E0,7.678462505E0,4.151341319E-1,1.121409731E1
5.509276405E0,8.209951401E0,7.344881058E0,7.142885923E-1,1.103905738E1
5.514074373E0,8.283605576E0,7.006796837E0,9.476646185E-1,1.089088571E1
5.518872342E0,8.425993919E0,6.841423035E0,1.046007156E0,1.090397054E1
5.523670311E0,8.570107460E0,6.705184937E0,1.081208348E0,1.093504725E1
5.528468280E0,8.680105209E0,6.612388611E0,1.058557391E0,1.096304945E1
5.533266248E0,8.727313042E0,6.500880241E0,9.765446186E-1,1.092616475E1
5.538064217E0,8.769493103E0,6.516143799E0,6.982218623E-1,1.094767798E1
5.542862186E0,8.776326180E0,6.573668480E0,3.493975103E-1,1.097082937E1
5.547660155E0,8.774894714E0,6.694200993E0,9.544302523E-2,1.103721947E1
5.552458123E0,8.706067085E0,6.822122574E0,2.205676585E-2,1.106062598E1
5.557256040E0,8.649291992E0,6.923497200E0,1.386027783E-2,1.107904588E1
5.562054061E0,8.599754333E0,6.773724079E0,1.523685455E-2,1.094711581E1
5.566851977E0,8.411330223E0,6.480954647E0,1.883959770E-2,1.061855000E1
5.571649946E0,8.215148926E0,6.182010651E0,4.374796152E-2,1.028143188E1
5.576447915E0,8.027757645E0,5.924848080E0,3.501668572E-2,9.977471811E0
5.581245884E0,7.803848267E0,5.764253616E0,-4.985094070E-3,9.701891175E0
5.586043852E0,7.527161598E0,5.608881950E0,-6.439909339E-2,9.387324736E0
5.590841821E0,7.240952492E0,5.360569000E0,-3.827354312E-2,9.009359459E0
5.595639790E0,6.902284145E0,5.052822590E0,5.135649443E-2,8.554249239E0
5.600437759E0,6.535113811E0,4.733508587E0,1.874917299E-1,8.071491140E0
5.605235727E0,6.089543819E0,4.388028145E0,1.554517150E-1,7.507429664E0
5.610033696E0,5.635365963E0,3.853486061E0,9.477120638E-2,6.827568084E0
5.614831665E0,4.972372055E0,3.167786360E0,5.648666620E-2,5.895977020E0
5.619629634E0,4.171018600E0,2.275194168E0,-3.687685728E-2,4.751343449E0
5.624427602E0,3.160558939E0,8.835158348E-1,-2.150214911E-1,3.288763792E0
5.629225571E0,1.977559090E0,-9.524302483E-1,-8.529359698E-1,2.354859465E0
5.634023540E0,7.656164169E-1,-3.622313976E0,-2.002949953E0,4.209410357E0
5.638821509E0,-6.504721642E-1,-7.281278133E0,-4.060720921E0,8.362390788E0
5.643619477E0,-2.762265682E0,-1.161263275E1,-5.992903709E0,1.335658062E1
5.648417394E0,-5.236708164E0,-1.658654785E1,-7.229129791E0,1.883605584E1
5.653215363E0,-8.314458847E0,-2.248968697E1,-8.150700569E0,2.532489221E1
5.658013332E0,-1.243595886E1,-2.913316345E1,-7.830858231E0,3.262999580E1
5.662811300E0,-1.785212135E1,-3.687247849E1,-7.602809906E0,4.166630083E1
5.667609269E0,-2.478374863E1,-4.502449036E1,-5.954907417E0,5.173876545E1
5.672407238E0,-3.088719368E1,-5.029809189E1,-4.556335449E0,5.920031228E1
5.677205207E0,-3.564331818E1,-5.074741745E1,-2.285676003E0,6.205619085E1
5.682003175E0,-3.768524170E1,-4.553852844E1,4.048497677E-1,5.911090355E1
5.686801144E0,-3.711997986E1,-3.509114456E1,1.762561440E0,5.111152467E1
5.691599113E0,-3.420280457E1,-2.573831558E1,3.677820921E0,4.296299682E1
5.696397082E0,-2.918915558E1,-1.935440063E1,2.556307316E0,3.511601251E1
5.701195050E0,-2.484650421E1,-1.458373928E1,9.750481844E-1,2.882680943E1
5.705993019E0,-2.136602974E1,-1.143224716E1,-1.189284325E-1,2.423257407E1
5.710790988E0,-1.935088730E1,-8.624656677E0,-1.165150881E0,2.121789619E1
5.715588957E0,-1.784161758E1,-6.577193260E0,-2.560695887E0,1.918697351E1
5.720386925E0,-1.626215553E1,-5.269385338E0,-3.138212919E0,1.738023316E1
5.725184894E0,-1.457034206E1,-4.657285213E0,-3.539420843E0,1.570072206E1
5.729982863E0,-1.336282921E1,-4.799492836E0,-4.407662392E0,1.486700453E1
5.734780832E0,-1.271402931E1,-5.480255127E0,-5.357851505E0,1.484541378E1
5.739578800E0,-1.219601822E1,-6.183254242E0,-5.666668892E0,1.480157525E1
5.744376769E0,-1.183466721E1,-6.706824303E0,-5.759946346E0,1.477219760E1
5.749174738E0,-1.154973316E1,-7.034258842E0,-5.690367699E0,1.467165356E1
5.753972707E0,-1.122285652E1,-7.239833832E0,-5.473903656E0,1.443368711E1
5.758770675E0,-1.069897842E1,-7.368291855E0,-5.258983135E0,1.401487666E1
5.763568592E0,-1.003256989E1,-7.281475067E0,-4.927228451E0,1.333978702E1
5.768366561E0,-9.140529633E0,-6.955418587E0,-4.610924721E0,1.237690415E1
5.773164530E0,-7.969875813E0,-6.530299187E0,-4.264299393E0,1.115114242E1
5.777962498E0,-6.669324875E0,-6.104759216E0,-3.901640654E0,9.847374227E0
5.782760467E0,-5.139026165E0,-5.285053253E0,-3.796462059E0,8.291833451E0
5.787558436E0,-3.518465519E0,-4.444973946E0,-3.965182543E0,6.918096963E0
5.792356405E0,-1.846135139E0,-3.477769852E0,-4.290252686E0,5.823174924E0
5.797154373E0,-3.547935486E-1,-2.370759964E0,-4.136321068E0,4.780746097E0
5.801952342E0,5.905900002E-1,-1.329514503E0,-3.453799248E0,3.747683899E0
5.806750311E0,1.209214211E0,-2.300596237E-1,-2.716531038E0,2.982392885E0
5.811548280E0,1.750870705E0,8.028278351E-1,-2.085966349E0,2.839249261E0
5.816346248E0,2.242454052E0,1.797564507E0,-1.545565248E0,3.263220842E0
5.821144217E0,2.750895262E0,2.653989315E0,-1.009898305E0,3.953603244E0
5.825942186E0,3.342861176E0,3.437011719E0,-6.081531048E-1,4.832972232E0
5.830740155E0,3.883965731E0,4.115967751E0,-2.776864767E-1,5.665994185E0
5.835538123E0,4.319028378E0,4.662511349E0,7.258009911E-2,6.355964606E0
5.840336092E0,4.652833939E0,5.174741745E0,2.547984123E-1,6.963600938E0
5.845134061E0,5.009680748E0,5.695643425E0,3.586503863E-1,7.593805721E0
5.849932030E0,5.327581406E0,6.158134460E0,5.325222015E-1,8.160228156E0
5.854729998E0,5.540113449E0,6.643222332E0,7.712752223E-1,8.684476118E0
5.859527967E0,5.810238361E0,7.112339973E0,8.361062407E-1,9.221893697E0
5.864325884E0,6.040316582E0,7.543648720E0,8.850493431E-1,9.704399660E0
5.869123852E0,6.240511894E0,7.967951298E0,1.137006283E0,1.018454809E1
5.873921821E0,6.494823456E0,8.272846222E0,1.447073221E0,1.061681389E1
5.878719790E0,6.774527550E0,8.475265503E0,1.683095336E0,1.097985240E1
5.883517759E0,7.037073135E0,8.950040817E0,1.659370661E0,1.150552650E1
5.888315727E0,7.209137440E0,9.442787170E0,1.527684689E0,1.197796780E1
5.893113696E0,7.398920536E0,9.792946815E0,1.548533201E0,1.237108676E1
5.897911665E0,7.506158352E0,1.001500988E1,1.675693512E0,1.262738234E1
5.902709634E0,7.609750271E0,1.021436024E1,1.717649460E0,1.285269520E1
5.907507602E0,7.673509121E0,1.024071884E1,1.643543243E0,1.290179441E1
5.912305571E0,7.639960766E0,1.017574787E1,1.694276094E0,1.283687722E1
5.917103540E0,7.703591347E0,1.035585785E1,1.647658825E0,1.301168287E1
5.921901509E0,7.822864056E0,1.092278862E1,1.492366314E0,1.351782788E1
5.926699477E0,7.916890144E0,1.117553329E1,1.564899921E0,1.378472364E1
5.931497446E0,7.913661003E0,1.101207829E1,1.813596964E0,1.368141194E1
5.936295415E0,8.089045525E0,1.144304371E1,1.765091658E0,1.412414441E1
5.941093384E0,8.349151611E0,1.206217003E1,1.603904009E0,1.475726216E1
5.945891352E0,8.511329651E0,1.253342438E1,1.637367010E0,1.523845234E1
5.950689321E0,8.657039642E0,1.265132809E1,1.844337225E0,1.544027259E1
5.955487290E0,8.784346581E0,1.215726471E1,2.330570221E0,1.517878083E1
5.960285259E0,9.081654549E0,1.147464561E1,2.677238226E0,1.487654348E1
5.965083175E0,9.212781906E0,1.093910027E1,2.561049938E0,1.452922028E1
5.969881144E0,9.205583572E0,1.039804363E1,1.973585606E0,1.402701395E1
5.974679113E0,9.290557861E0,9.759387970E0,1.496208310E0,1.355724007E1
5.979477082E0,9.463643074E0,9.237288475E0,1.183049083E0,1.327733572E1
5.984275050E0,9.608677864E0,8.720541000E0,8.157393932E-1,1.300153669E1
5.989073019E0,9.588813782E0,8.370031357E0,4.466450810E-1,1.273586536E1
5.993870988E0,9.518925667E0,8.066356659E0,1.086139679E-2,1.247702583E1
5.998668957E0,9.432555199E0,7.773875713E0,-2.464770973E-1,1.222566939E1
6.003466925E0,9.420492172E0,7.440306664E0,-4.634839892E-1,1.201326989E1
6.008264894E0,9.406016350E0,7.039782047E0,-5.778352022E-1,1.176288946E1
6.013062863E0,9.417745590E0,6.689715385E0,-6.709902883E-1,1.157136344E1
6.017860832E0,9.324273109E0,6.404433727E0,-6.501255035E-1,1.133055619E1
6.022658800E0,9.245541573E0,6.154944420E0,-7.020948529E-1,1.112907530E1
6.027456769E0,9.076804161E0,5.969506741E0,-7.576857209E-1,1.089024665E1
6.032254738E0,8.952646255E0,5.892838478E0,-8.552094698E-1,1.075206043E1
6.037052707E0,8.787841797E0,5.890491962E0,-9.568728209E-1,1.062260159E1
6.041850675E0,8.597524643E0,5.947260857E0,-9.129933119E-1,1.049385051E1
6.046648644E0,8.391905785E0,6.057624817E0,-8.634102345E-1,1.038577770E1
6.051446613E0,8.200252533E0,6.151594162E0,-7.353554964E-1,1.027749970E1
6.056244582E0,7.998968601E0,6.269445419E0,-5.827094316E-1,1.017983275E1
6.061042550E0,7.862357140E0,6.367893219E0,-5.114283562E-1,1.013056182E1
6.065840467E0,7.659279346E0,6.489599228E0,-6.605402231E-1,1.006060493E1
6.070638436E0,7.366296291E0,6.684365749E0,-6.246023774E-1,9.966603968E0
6.075436405E0,7.081635952E0,6.820552349E0,-4.147590101E-1,9.840809273E0
6.080234373E0,6.869785786E0,6.869611263E0,-2.877697945E-1,9.719481833E0
6.085032342E0,6.661110878E0,6.846235752E0,-2.248430699E-1,9.554679299E0
6.089830311E0,6.443382263E0,6.765135765E0,-1.186524183E-1,9.343356747E0
6.094628280E0,6.173323631E0,6.609925747E0,-7.560566068E-3,9.044396066E0
6.099426248E0,5.879532337E0,6.442981243E0,8.955873549E-2,8.722896799E0
6.104224217E0,5.657700062E0,6.221228123E0,3.746138513E-2,8.409200479E0
6.109022186E0,5.388473034E0,6.030560017E0,1.856544614E-2,8.087251723E0
6.113820155E0,5.105432987E0,5.672500134E0,5.022895336E-2,7.631856046E0
6.118618123E0,4.868343353E0,5.159144402E0,-2.713680267E-3,7.093486119E0
6.123416092E0,4.662533760E0,4.607921600E0,-2.056817412E-1,6.558541569E0
6.128214061E0,4.373079300E0,3.837306261E0,-3.522032499E-1,5.828618107E0
6.133012030E0,3.909351349E0,2.969316959E0,-5.091690421E-1,4.935496357E0
6.137809998E0,3.309962749E0,2.032547951E0,-6.215354800E-1,3.933625672E0
6.142607967E0,2.709236622E0,9.693074226E-1,-8.724230528E-1,3.006766026E0
6.147405936E0,2.050037861E0,-2.254767418E-1,-1.274205923E0,2.424272206E0
6.152203905E0,1.246368885E0,-1.712010860E0,-1.748963475E0,2.746505019E0
6.157001873E0,3.333873749E-1,-3.511188507E0,-2.411422968E0,4.272534681E0
6.161799842E0,-6.623101234E-1,-5.870126247E0,-3.551474571E0,6.892750430E0
6.166597811E0,-2.085944653E0,-8.714803696E0,-5.229902267E0,1.037549258E1
6.171395727E0,-3.923534393E0,-1.208959007E1,-7.294937134E0,1.465497929E1
6.176193696E0,-5.815485954E0,-1.572975159E1,-8.610216141E0,1.885154593E1
6.180991665E0,-8.104843140E0,-1.965531349E1,-9.151947975E0,2.314687846E1
6.185789634E0,-1.037377930E1,-2.318973160E1,-8.952095985E0,2.693545936E1
6.190587602E0,-1.244861794E1,-2.578414536E1,-8.067056656E0,2.974672492E1
6.195385571E0,-1.553763008E1,-2.732492447E1,-7.660076141E0,3.235345750E1
6.200183540E0,-1.917523575E1,-2.818642807E1,-7.832032204E0,3.497863808E1
6.204981509E0,-2.297587013E1,-2.835152435E1,-8.235207558E0,3.741013479E1
6.209779477E0,-2.630632591E1,-2.769333267E1,-7.312842369E0,3.888985885E1
6.214577446E0,-2.831041145E1,-2.627257919E1,-5.364749908E0,3.899369636E1
6.219375415E0,-2.904961777E1,-2.420747757E1,-3.645975828E0,3.798914848E1
6.224173384E0,-2.792606354E1,-2.181893539E1,-2.694263697E0,3.554138466E1
6.228971352E0,-2.493339920E1,-1.851944542E1,-3.525435209E0,3.125816610E1
6.233769321E0,-2.164692688E1,-1.498253250E1,-4.962780952E0,2.678982863E1
6.238567290E0,-1.813821983E1,-1.279666615E1,-5.876453400E0,2.296263024E1
6.243365259E0,-1.531247139E1,-1.233985233E1,-6.227119446E0,2.062815436E1
6.248163227E0,-1.326419640E1,-1.283218384E1,-6.149930000E0,1.945316136E1
6.252961196E0,-1.207863045E1,-1.331022167E1,-6.069543362E0,1.897089010E1
6.257759165E0,-1.146104813E1,-1.334995556E1,-5.854130745E0,1.854313308E1
6.262557134E0,-1.083806324E1,-1.301224422E1,-5.485851288E0,1.780103028E1
6.267355102E0,-1.011348057E1,-1.237381840E1,-5.057461739E0,1.676221316E1
6.272153071E0,-9.480115891E0,-1.165225315E1,-4.492853642E0,1.567907314E1
6.276951040E0,-8.955818176E0,-1.109368515E1,-3.833339691E0,1.476384173E1
6.281749009E0,-8.506057739E0,-1.058109283E1,-3.355076551E0,1.398460162E1
6.286546925E0,-8.130038261E0,-1.029659176E1,-3.184403419E0,1.350028700E1
6.291344894E0,-7.869250298E0,-9.435572624E0,-2.749822617E0,1.259033977E1
6.296142863E0,-7.459877491E0,-8.752371788E0,-2.758430243E0,1.182635707E1
6.300940832E0,-7.018902302E0,-8.046269417E0,-2.559730768E0,1.097996642E1
6.305738800E0,-6.432264328E0,-7.371744156E0,-2.343177319E0,1.006017476E1
6.310536769E0,-5.758507252E0,-6.828065872E0,-2.093225241E0,9.174120188E0
6.315334738E0,-4.988766670E0,-5.903113842E0,-1.901154995E0,7.959204498E0
6.320132707E0,-4.152712822E0,-5.096547127E0,-1.768176317E0,6.807809037E0
6.324930675E0,-3.337371826E0,-4.381399632E0,-1.449931860E0,5.695350370E0
6.329728644E0,-2.474203110E0,-3.606651783E0,-1.222933769E0,4.541495912E0
6.334526613E0,-1.681075573E0,-2.827089787E0,-1.050136805E0,3.452714736E0
6.339324582E0,-9.751434326E-1,-2.059175968E0,-7.778966427E-1,2.407536826E0
6.344122550E0,-2.779026031E-1,-1.278817177E0,-6.779325008E-1,1.473837068E0
6.348920519E0,3.817963600E-1,-5.671882629E-1,-4.915461540E-1,8.420739918E-1
6.353718488E0,1.008835316E0,2.144722939E-1,-1.807792187E-1,1.047104668E0
6.358516457E0,1.618071079E0,1.065933228E0,5.040097237E-2,1.938274470E0
6.363314425E0,2.164731979E0,1.896211624E0,3.011587858E-1,2.893506468E0
6.368112394E0,2.704545021E0,2.683675289E0,5.701375008E-1,3.852497060E0
6.372910363E0,3.194840670E0,3.363814354E0,8.111138344E-1,4.709581676E0
6.377708332E0,3.630882025E0,3.994218349E0,1.066866636E0,5.502298512E0
6.382506300E0,4.081984520E0,4.517625809E0,1.296809793E0,6.225211338E0
6.387304269E0,4.478629589E0,5.036873817E0,1.444394350E0,6.893075938E0
6.392102238E0,4.832737446E0,5.539971352E0,1.608163357E0,7.525478269E0
6.396900207E0,5.170710564E0,5.902609348E0,1.821601629E0,8.055760507E0
6.401698123E0,5.425717831E0,6.163128853E0,2.039324760E0,8.460580164E0
6.406496144E0,5.660258770E0,6.414766312E0,2.375597477E0,8.878694698E0
6.411294061E0,5.960360527E0,6.731669426E0,2.543400049E0,9.343990298E0
6.416092030E0,6.199426651E0,7.001326084E0,2.676702023E0,9.727085455E0
6.420889998E0,6.327749729E0,7.247542381E0,2.949298382E0,1.006308343E1
6.425687967E0,6.427027225E0,7.386704445E0,3.247677326E0,1.031588530E1
6.430485936E0,6.614319324E0,7.543362617E0,3.418459415E0,1.059893412E1
6.435283905E0,6.822645187E0,7.810480595E0,3.412186146E0,1.091765125E1
6.440081873E0,7.006768227E0,8.037107468E0,3.372704983E0,1.118324802E1
6.444879842E0,7.171555519E0,8.309265137E0,3.395595551E0,1.148935006E1
6.449677811E0,7.383941174E0,8.547995567E0,3.373285770E0,1.178854836E1
6.454475780E0,7.605510712E0,8.650721550E0,3.367654800E0,1.200082811E1
6.459273748E0,7.759710312E0,8.765868187E0,3.332987785E0,1.217219605E1
6.464071717E0,8.001619339E0,8.833769798E0,3.093110800E0,1.231376203E1
6.468869686E0,8.204238892E0,8.938044548E0,2.728240013E0,1.243549234E1
6.473667655E0,8.429538727E0,8.995037079E0,2.437475204E0,1.256618878E1
6.478465623E0,8.599794388E0,9.402799606E0,2.082697868E0,1.291149621E1
6.483263592E0,8.928183556E0,1.034243679E1,1.485406160E0,1.374354000E1
6.488061561E0,9.304838181E0,1.132831001E1,1.014053345E0,1.469486051E1
6.492859530E0,9.548996925E0,1.161174202E1,1.104887962E0,1.507437138E1
6.497657498E0,9.752150536E0,1.216115570E1,1.199545979E0,1.563448300E1
6.502455467E0,9.656993866E0,1.222297001E1,1.592756391E0,1.565871640E1
6.507253436E0,9.725184441E0,1.232821465E1,1.755316496E0,1.580016534E1
6.512051352E0,9.876249313E0,1.183481312E1,1.728842497E0,1.551102828E1
6.516849373E0,9.840315819E0,1.088844681E1,1.898790836E0,1.479849641E1
6.521647290E0,9.798763275E0,9.988966942E0,1.969642520E0,1.413063034E1
6.526445259E0,9.865657806E0,9.145856857E0,1.792898893E0,1.357174963E1
6.531243227E0,9.785444260E0,8.511310577E0,1.507024527E0,1.305635669E1
6.536041196E0,9.624002457E0,8.086118698E0,1.173578501E0,1.262473863E1
6.540839165E0,9.445321083E0,7.794201374E0,9.490714669E-1,1.228268709E1
6.545637134E0,9.277828217E0,7.554614544E0,9.408967495E-1,1.200148258E1
6.550435102E0,9.174242020E0,7.324434280E0,1.116831779E0,1.179242839E1
6.555233071E0,9.087245941E0,7.163161755E0,1.334460855E0,1.164773415E1
6.560031040E0,8.941094398E0,7.048689842E0,1.475805640E0,1.148064457E1
6.564829009E0,8.806091309E0,7.023159027E0,1.493204117E0,1.136229138E1
6.569626977E0,8.630226135E0,6.973587513E0,1.463640809E0,1.119169202E1
6.574424946E0,8.487971306E0,6.868587017E0,1.433172345E0,1.101258950E1
6.579222915E0,8.336565018E0,6.772478580E0,1.440187097E0,1.083692398E1
6.584020884E0,8.214504242E0,6.658747673E0,1.475052118E0,1.067674010E1
6.588818852E0,8.097999573E0,6.563125610E0,1.480461597E0,1.052824683E1
6.593616821E0,8.032641411E0,6.518867016E0,1.406245351E0,1.044013799E1
6.598414790E0,8.008998871E0,6.542465210E0,1.388542414E0,1.043436457E1
6.603212759E0,7.984032154E0,6.559754848E0,1.326505423E0,1.041800220E1
6.608010727E0,7.895661831E0,6.522918701E0,1.265237331E0,1.031943650E1
6.612808696E0,7.767848969E0,6.503731251E0,1.192630887E0,1.020099829E1
6.617606665E0,7.586386681E0,6.518805027E0,1.120551586E0,1.006497480E1
6.622404634E0,7.399248123E0,6.546483040E0,1.053533554E0,9.935554636E0
6.627202602E0,7.161266804E0,6.533940315E0,9.914331436E-1,9.744693836E0
6.632000519E0,6.939642429E0,6.562306881E0,9.504799843E-1,9.598224880E0
6.636798488E0,6.732154846E0,6.526198387E0,8.993887901E-1,9.419239590E0
6.641596457E0,6.431441784E0,6.487664700E0,8.713113666E-1,9.176732543E0
6.646394425E0,6.114261150E0,6.386817455E0,8.970683813E-1,8.887089417E0
6.651192394E0,5.783137798E0,6.276228428E0,9.189749956E-1,8.583719539E0
6.655990363E0,5.411975384E0,6.117523193E0,9.631323218E-1,8.224426512E0
6.660788332E0,5.051385880E0,5.936666012E0,9.221324325E-1,7.849256708E0
6.665586300E0,4.692136765E0,5.704666615E0,9.204248786E-1,7.443557655E0
6.670384269E0,4.308049202E0,5.263761997E0,9.793639183E-1,6.872090801E0
6.675182238E0,3.910979509E0,4.666925907E0,7.641289234E-1,6.136762270E0
6.679980207E0,3.450649023E0,4.000503063E0,5.067375898E-1,5.307333269E0
6.684778175E0,2.893823862E0,3.152172804E0,3.431524634E-1,4.292803693E0
6.689576144E0,2.295786381E0,2.160065174E0,-7.728755474E-2,3.153171424E0
6.694374113E0,1.500755310E0,7.520880699E-1,-8.604477644E-1,1.886338602E0
6.699172082E0,6.444058418E-1,-1.099502087E0,-1.591114879E0,2.038580458E0
6.703970050E0,-3.937988281E-1,-3.271893501E0,-2.410004616E0,4.082705824E0
6.708768019E0,-1.690090179E0,-6.277291298E0,-3.540283918E0,7.402324032E0
6.713565988E0,-3.206720829E0,-9.675762177E0,-4.733083248E0,1.123857238E1
6.718363957E0,-5.379145145E0,-1.368030453E1,-5.574251175E0,1.572126619E1
6.723161925E0,-8.152484894E0,-1.835967255E1,-5.866110802E0,2.092729896E1
6.727959894E0,-1.119413757E1,-2.341640472E1,-5.320096493E0,2.649415318E1
6.732757863E0,-1.492023373E1,-2.868714333E1,-4.048746109E0,3.258769571E1
6.737555832E0,-1.866078949E1,-3.366845703E1,-2.727854967E0,3.859055916E1
6.742353800E0,-2.278736115E1,-3.804946136E1,-1.636919498E0,4.438135694E1
6.747151769E0,-2.736637306E1,-4.101119995E1,-1.345134974E0,4.932186416E1
6.751949738E0,-3.113703918E1,-4.179389572E1,-1.920936584E0,5.215299537E1
6.756747707E0,-3.269894028E1,-3.756445694E1,-3.640641451E0,4.993559242E1
6.761545675E0,-3.188076210E1,-2.963167000E1,-5.554770470E0,4.387794815E1
6.766343592E0,-2.735844421E1,-2.343437195E1,-7.059631348E0,3.670820962E1
6.771141561E0,-2.266274261E1,-1.886283493E1,-7.119859695E0,3.033313117E1
6.775939530E0,-1.867251587E1,-1.530757523E1,-7.420106888E0,2.525950701E1
6.780737498E0,-1.593461418E1,-1.250246620E1,-7.864784241E0,2.172736573E1
6.785535467E0,-1.471118355E1,-1.041283035E1,-8.677017212E0,2.000341433E1
6.790333436E0,-1.402689362E1,-9.085516930E0,-9.131301880E0,1.904418642E1
6.795131405E0,-1.351343155E1,-8.304405212E0,-9.120729446E0,1.829654841E1
6.799929373E0,-1.306022358E1,-7.884562969E0,-8.537202835E0,1.748197945E1
6.804727342E0,-1.269581223E1,-7.822551250E0,-8.219872475E0,1.702769097E1
6.809525311E0,-1.243209553E1,-7.792626858E0,-8.673272133E0,1.704428591E1
6.814323280E0,-1.206934357E1,-7.971908092E0,-8.658752441E0,1.685806533E1
6.819121248E0,-1.166252136E1,-8.121610641E0,-8.068436623E0,1.634241823E1
6.823919217E0,-1.104890251E1,-8.275953293E0,-7.322145462E0,1.562637078E1
6.828717186E0,-1.024839306E1,-8.466535568E0,-6.665363789E0,1.487073836E1
6.833515155E0,-9.193336487E0,-8.366545677E0,-5.972061634E0,1.379065055E1
6.838313123E0,-7.944091320E0,-8.112626076E0,-5.353874207E0,1.255337635E1
6.843111092E0,-6.631318092E0,-7.647024632E0,-4.966898441E0,1.127481465E1
6.847909061E0,-5.300081253E0,-7.103199005E0,-4.807351112E0,1.008250575E1
6.852707030E0,-4.043220997E0,-6.437336445E0,-4.444284916E0,8.805600772E0
6.857504998E0,-2.953154564E0,-5.586592197E0,-4.014314651E0,7.486378055E0
6.862302967E0,-1.988024712E0,-4.619546413E0,-3.557213783E0,6.160050423E0
6.867100936E0,-1.081873894E0,-3.578639984E0,-3.145930290E0,4.886101989E0
6.871898905E0,-2.903800011E-1,-2.575757504E0,-2.774693966E0,3.797074383E0
6.876696873E0,3.840308189E-1,-1.557978630E0,-2.221522808E0,2.740427096E0
6.881494842E0,9.730119705E-1,-5.397496223E-1,-1.561743379E0,1.917582940E0
6.886292811E0,1.534544945E0,3.761677742E-1,-8.164554834E-1,1.778462802E0
6.891090780E0,2.061954975E0,1.266356468E0,-2.239464521E-1,2.430117083E0
6.895888696E0,2.648676395E0,2.200253963E0,1.598939896E-1,3.447052399E0
6.900686665E0,3.215911627E0,3.051185131E0,3.657072783E-1,4.448096234E0
6.905484686E0,3.770808935E0,3.797769070E0,5.181123018E-1,5.376847616E0
6.910282602E0,4.234137535E0,4.382917881E0,6.348071098E-1,6.127060460E0
6.915080571E0,4.658468246E0,4.928560734E0,6.931690574E-1,6.817075667E0
6.919878540E0,5.051050186E0,5.408370495E0,8.130599856E-1,7.444773061E0
6.924676509E0,5.445683479E0,5.922518730E0,9.084895253E-1,8.096730815E0
6.929474477E0,5.677528858E0,6.305924892E0,1.030058980E0,8.547516843E0
6.934272446E0,5.925999165E0,6.620846748E0,1.151701808E0,8.959882523E0
6.939070415E0,6.107604504E0,6.986818314E0,1.449710131E0,9.392556754E0
6.943868384E0,6.309044838E0,7.267404079E0,1.833799005E0,9.797041779E0
6.948666352E0,6.365807056E0,7.431606770E0,2.223537922E0,1.003475957E1
6.953464321E0,6.636281013E0,7.644632339E0,2.275030375E0,1.037575985E1
6.958262290E0,6.838579178E0,7.980039120E0,2.235495806E0,1.074451632E1
6.963060259E0,6.983152866E0,8.365250587E0,2.203239918E0,1.111737862E1
6.967858227E0,7.070703030E0,8.658868790E0,2.339913130E0,1.142129780E1
6.972656196E0,7.178291321E0,9.006629944E0,2.536572456E0,1.179327983E1
6.977454165E0,7.339817524E0,9.295775414E0,2.489597797E0,1.210299380E1
6.982252134E0,7.359849453E0,9.471017838E0,2.473708868E0,1.224690975E1
6.987050102E0,7.449477196E0,9.656325340E0,2.493446827E0,1.244815676E1
6.991848071E0,7.573646545E0,9.944156647E0,2.412612438E0,1.273055663E1
6.996646040E0,7.704470634E0,1.028114891E1,2.331590652E0,1.305745786E1
7.001444009E0,7.823038578E0,1.038282776E1,2.450341225E0,1.322902933E1
7.006241977E0,7.898266792E0,1.037156105E1,2.660149813E0,1.330519801E1
7.011039946E0,8.047226906E0,1.054863739E1,2.669257164E0,1.353353411E1
7.015837915E0,8.272318840E0,1.095191193E1,2.508924961E0,1.395243127E1
7.020635884E0,8.375904083E0,1.122669411E1,2.520783663E0,1.423196332E1
7.025433852E0,8.498694420E0,1.175139523E1,2.458222628E0,1.470938323E1
7.030231769E0,8.711821556E0,1.248582840E1,2.375476599E0,1.540891413E1
7.035029738E0,8.899306297E0,1.219747448E1,2.765997410E0,1.535013935E1
7.039827707E0,9.073931694E0,1.182304764E1,2.952769279E0,1.519340443E1
7.044625675E0,9.320158958E0,1.128233528E1,3.077504158E0,1.495417949E1
7.049423644E0,9.513551712E0,1.037642860E1,2.976675272E0,1.438883360E1
7.054221613E0,9.606479645E0,9.594944954E0,2.819163322E0,1.386705094E1
7.059019582E0,9.849991798E0,8.884593964E0,2.506411076E0,1.349964610E1
7.063817550E0,1.004827499E1,8.297129631E0,2.184068203E0,1.321288554E1
7.068615519E0,1.004728413E1,7.852462292E0,1.785212159E0,1.287618207E1
7.073413488E0,1.001641560E1,7.589119434E0,1.364939690E0,1.264066357E1
7.078211457E0,9.998516083E0,7.363838196E0,1.125441790E0,1.246848251E1
7.083009425E0,9.957778931E0,7.186352253E0,1.081237555E0,1.232761512E1
7.087807394E0,9.880294800E0,7.085175514E0,1.093404174E0,1.220718928E1
7.092605363E0,9.819216728E0,6.964360237E0,1.171136141E0,1.209507712E1
7.097403332E0,9.779803276E0,6.804502487E0,1.202043056E0,1.197458616E1
7.102201300E0,9.745687485E0,6.646028042E0,1.174462080E0,1.185442847E1
7.106999269E0,9.674004555E0,6.474542618E0,1.213024855E0,1.170373853E1
7.111797238E0,9.517552376E0,6.447308064E0,1.162759304E0,1.155437552E1
7.116595207E0,9.338972092E0,6.444308758E0,1.088486195E0,1.139869805E1
7.121393175E0,9.174674988E0,6.431568623E0,1.040322304E0,1.125264443E1
7.126191144E0,9.039476395E0,6.509038448E0,1.067713976E0,1.119016211E1
7.130989113E0,8.874049187E0,6.504157543E0,1.205240846E0,1.106821665E1
7.135787082E0,8.654866219E0,6.567322731E0,1.386988759E0,1.095263324E1
7.140585050E0,8.430308342E0,6.757718086E0,1.471051455E0,1.090416640E1
7.145383019E0,8.220096588E0,6.964693546E0,1.447233915E0,1.087066834E1
7.150180988E0,8.043965340E0,7.190022945E0,1.434455872E0,1.088390886E1
7.154978905E0,7.756812572E0,7.478478432E0,1.600892186E0,1.089305452E1
7.159776873E0,7.493224144E0,7.710015297E0,1.822724223E0,1.090481855E1
7.164574842E0,7.184207439E0,7.860617161E0,2.064713001E0,1.084735813E1
7.169372811E0,6.915991306E0,7.925585270E0,2.301643848E0,1.076770180E1
7.174170780E0,6.656999588E0,7.788430214E0,2.413518906E0,1.052617510E1
7.178968748E0,6.523271084E0,7.433642864E0,2.327373981E0,1.016015657E1
7.183766717E0,6.381976604E0,6.946214676E0,1.780093431E0,9.599388331E0
7.188564686E0,6.181933403E0,6.434709549E0,1.431337476E0,9.037174036E0
7.193362655E0,5.958494186E0,5.937790394E0,1.008320808E0,8.472173191E0
7.198160623E0,5.685207367E0,5.488944530E0,6.111289859E-1,7.926132317E0
7.202958592E0,5.383687973E0,5.066429138E0,3.704235256E-1,7.402027695E0
7.207756561E0,5.001700878E0,4.624396324E0,2.034839988E-1,6.814943784E0
7.212554530E0,4.585283756E0,4.121624947E0,1.777127087E-1,6.167998146E0
7.217352498E0,4.094478607E0,3.574205399E0,2.359164059E-1,5.440161381E0
7.222150467E0,3.534892321E0,2.809261560E0,2.901185453E-1,4.524553349E0
7.226948436E0,2.692375183E0,1.840388775E0,2.501563430E-1,3.270855112E0
7.231746405E0,1.643886566E0,5.454263687E-1,-4.143507481E-1,1.780881666E0
7.236544373E0,2.715020180E-1,-1.289870739E0,-1.582217693E0,2.059342783E0
7.241342342E0,-1.288807392E0,-3.961386204E0,-2.941586971E0,5.099660681E0
7.246140311E0,-3.133251190E0,-7.612012863E0,-4.411655903E0,9.339309967E0
7.250938280E0,-5.431918144E0,-1.212456989E1,-6.094232559E0,1.461679172E1
7.255736248E0,-8.607076645E0,-1.803323174E1,-7.014711380E0,2.117747367E1
7.260534217E0,-1.204573441E1,-2.427819061E1,-7.874010563E0,2.822286837E1
7.265332186E0,-1.545066547E1,-3.006220818E1,-8.140359879E0,3.476672091E1
7.270130155E0,-1.849026871E1,-3.472488403E1,-7.067850590E0,3.997076582E1
7.274928123E0,-2.041838455E1,-3.675303650E1,-4.390956879E0,4.227264626E1
7.279726092E0,-2.113368416E1,-3.629350281E1,-1.497655392E0,4.202492027E1
7.284524061E0,-2.158819962E1,-3.460354996E1,-5.179243088E-1,4.078877637E1
7.289322030E0,-2.215992165E1,-3.126985359E1,-1.629762888E0,3.836042229E1
7.294119998E0,-2.248943710E1,-2.757891846E1,-3.281236887E0,3.573706815E1
7.298917915E0,-2.206803703E1,-2.520844078E1,-4.843744278E0,3.385152292E1
7.303715884E0,-2.113400269E1,-2.365461731E1,-5.240899086E0,3.215049009E1
7.308513852E0,-1.807173920E1,-2.287044907E1,-5.289969444E0,2.962480337E1
7.313311821E0,-1.555570030E1,-2.048231316E1,-3.884722471E0,2.601145964E1
7.318109790E0,-1.375446701E1,-1.768359375E1,-3.814507723E0,2.272543333E1
7.322907759E0,-1.213280296E1,-1.497820854E1,-4.139899254E0,1.971523281E1
7.327705727E0,-1.138590622E1,-1.309176922E1,-4.351810455E0,1.788774821E1
7.332503696E0,-1.103988838E1,-1.152998257E1,-4.567138672E0,1.660356555E1
7.337301665E0,-1.082842922E1,-1.047997379E1,-4.572863579E0,1.574788276E1
7.342099634E0,-1.087408638E1,-9.851695061E0,-4.654559135E0,1.539371855E1
7.346897602E0,-1.112266541E1,-9.349233627E0,-4.869051456E0,1.532414817E1
7.351695571E0,-1.105082417E1,-8.708169937E0,-6.427905560E0,1.546838415E1
7.356493540E0,-1.082688904E1,-7.769075394E0,-8.228382111E0,1.566161968E1
7.361291509E0,-1.059977722E1,-7.370231628E0,-8.837951660E0,1.564560580E1
7.366089477E0,-1.019954109E1,-7.244732857E0,-8.611271858E0,1.518785026E1
7.370887446E0,-9.353042603E0,-7.448939323E0,-7.695397377E0,1.421918576E1
7.375685415E0,-8.288154602E0,-7.516776085E0,-6.518726826E0,1.294948759E1
7.380483384E0,-7.007822514E0,-7.296524048E0,-5.212666035E0,1.138071732E1
7.385281352E0,-5.597632408E0,-6.808162689E0,-4.146073341E0,9.740353789E0
7.390079321E0,-4.226220608E0,-6.063590050E0,-3.432256699E0,8.149138050E0
7.394877290E0,-2.917278290E0,-5.165323257E0,-3.248690128E0,6.763509779E0
7.399675259E0,-1.777903080E0,-4.208682060E0,-3.158012390E0,5.554006329E0
7.404473227E0,-8.497104645E-1,-3.128951073E0,-2.851234436E0,4.317624404E0
7.409271196E0,-9.251546860E-2,-1.949988365E0,-2.534563780E0,3.199222920E0
7.414069165E0,5.151786804E-1,-7.363882065E-1,-2.240305424E0,2.413844455E0
7.418867134E0,1.028374195E0,3.111228943E-1,-1.912596464E0,2.193712874E0
7.423665102E0,1.535330296E0,1.334022999E0,-1.634818912E0,2.609499828E0
7.428463071E0,2.098394394E0,2.260708332E0,-1.309495211E0,3.350945971E0
7.433261040E0,2.555109739E0,3.124963760E0,-8.900465965E-1,4.133541729E0
7.438059009E0,2.958327532E0,3.876890659E0,-3.540618420E-1,4.889513550E0
7.442856925E0,3.322673559E0,4.533481598E0,1.105870008E-1,5.621818608E0
7.447654946E0,3.641015530E0,5.123764038E0,5.292506218E-1,6.307936130E0
7.452452863E0,3.920820951E0,5.702849388E0,9.366760850E-1,6.983744709E0
7.457250832E0,4.157844067E0,6.165504932E0,1.336288929E0,7.555579823E0
7.462048800E0,4.347878933E0,6.566648006E0,1.653011918E0,8.047196136E0
7.466846769E0,4.613059998E0,6.877573013E0,1.803092837E0,8.475404231E0
7.471644738E0,4.867150784E0,7.153320312E0,1.792157650E0,8.835778250E0
7.476442707E0,5.112432003E0,7.405820847E0,1.738322496E0,9.165419167E0
7.481240675E0,5.272681236E0,7.587119579E0,1.804170966E0,9.413850636E0
7.486038644E0,5.407861233E0,7.718696594E0,1.829605579E0,9.600557109E0
7.490836613E0,5.584858418E0,7.793652058E0,2.088672876E0,9.812961343E0
7.495634582E0,5.751284122E0,7.981541634E0,2.165293217E0,1.007327011E1
7.500432550E0,5.883822441E0,8.341343880E0,1.996123314E0,1.040105247E1
7.505230519E0,6.002203465E0,8.662048340E0,1.837449074E0,1.069737103E1
7.510028488E0,6.173856258E0,8.876546860E0,1.970538855E0,1.099056908E1
7.514826457E0,6.258071899E0,9.063748360E0,2.178932667E0,1.122776673E1
7.519624425E0,6.322043419E0,9.197392464E0,2.227682590E0,1.138080976E1
7.524422394E0,6.413888454E0,9.423067093E0,2.119503021E0,1.159415592E1
7.529220363E0,6.574071884E0,9.521034241E0,2.133389950E0,1.176519727E1
7.534018332E0,6.626095772E0,9.691888809E0,2.094527721E0,1.192580816E1
7.538816300E0,6.765957832E0,9.744453430E0,2.024265766E0,1.203454236E1
7.543614269E0,6.957776070E0,9.872352600E0,1.908395767E0,1.222767223E1
7.548412238E0,7.069919586E0,9.984840393E0,1.889845848E0,1.237951202E1
7.553210207E0,7.200321198E0,1.002236366E1,1.912985325E0,1.248807077E1
7.558008175E0,7.315793991E0,1.022607327E1,1.839375973E0,1.270734906E1
7.562806144E0,7.551752090E0,1.086668587E1,1.436238289E0,1.331077014E1
7.567604113E0,7.875059128E0,1.187896347E1,8.510099649E-1,1.427762401E1
7.572402082E0,8.222827911E0,1.254869175E1,4.403590560E-1,1.500927978E1
7.577200050E0,8.403917313E0,1.263491726E1,7.020704150E-1,1.519078218E1
7.581998019E0,8.606471062E0,1.246168804E1,1.203611493E0,1.519255389E1
7.586795988E0,8.754744530E0,1.170546722E1,1.590462685E0,1.470350592E1
7.591593905E0,8.740747452E0,1.047415352E1,1.658447742E0,1.374259826E1
7.596391873E0,8.666297913E0,9.244056702E0,1.415350080E0,1.274992234E1
7.601189842E0,8.729360580E0,8.418844223E0,1.160381556E0,1.218298648E1
7.605987811E0,8.679584503E0,7.939669609E0,1.069564581E0,1.181175300E1
7.610785780E0,8.502323151E0,7.629751205E0,1.024181128E0,1.146959238E1
7.615583748E0,8.307583809E0,7.379185677E0,1.036553979E0,1.115987339E1
7.620381717E0,8.136290550E0,7.204592228E0,1.199705243E0,1.093364833E1
7.625179686E0,8.084589005E0,7.079331398E0,1.435999632E0,1.084156849E1
7.629977655E0,8.095994949E0,7.040925980E0,1.657858372E0,1.085671531E1
7.634775623E0,8.169271469E0,7.069210529E0,1.883302689E0,1.096620093E1
7.639573592E0,8.252517700E0,7.108527184E0,1.994772315E0,1.107313522E1
7.644371561E0,8.374847412E0,7.024661064E0,1.987485647E0,1.111008692E1
7.649169530E0,8.519741058E0,6.905947208E0,1.947824478E0,1.113876630E1
7.653967498E0,8.651326180E0,6.773940086E0,1.849686861E0,1.114239877E1
7.658765467E0,8.712288857E0,6.616699219E0,1.772029161E0,1.108263385E1
7.663563436E0,8.755094528E0,6.448785305E0,1.648087859E0,1.099794098E1
7.668361405E0,8.746028900E0,6.268069267E0,1.461578488E0,1.085900205E1
7.673159373E0,8.692180634E0,6.129681110E0,1.334577918E0,1.071951925E1
7.677957342E0,8.624440193E0,5.976472378E0,1.295459986E0,1.057248350E1
7.682755311E0,8.502061844E0,5.815789700E0,1.217325687E0,1.037257669E1
7.687553280E0,8.358510017E0,5.635776043E0,1.241081595E0,1.015711302E1
7.692351248E0,8.239104271E0,5.486772060E0,1.187196255E0,9.969801491E0
7.697149217E0,7.981326103E0,5.270782471E0,1.303820848E0,9.653116752E0
7.701947186E0,7.642888546E0,5.073779583E0,1.372912765E0,9.275875918E0
7.706745155E0,7.317299843E0,4.864458084E0,1.346845150E0,8.889309383E0
7.711543123E0,6.954530239E0,4.561373711E0,1.312075853E0,8.419807837E0
7.716341092E0,6.592891693E0,4.224293709E0,1.187933207E0,7.919726228E0
7.721139061E0,6.239715099E0,3.869728804E0,1.032782793E0,7.414545558E0
7.725936977E0,5.899798870E0,3.390023947E0,7.997505665E-1,6.851240036E0
7.730734946E0,5.515762806E0,2.818691254E0,6.068289280E-1,6.223897578E0
7.735532915E0,5.097036362E0,2.103294849E0,2.853143811E-1,5.521325311E0
7.740330884E0,4.578753948E0,1.115119934E0,-2.302445769E-1,4.718208638E0
7.745128852E0,3.876984119E0,-5.217933655E-2,-8.926503658E-1,3.978762775E0
7.749926821E0,2.943909883E0,-1.353082180E0,-1.592586279E0,3.610230996E0
7.754724790E0,1.810155392E0,-2.990393639E0,-2.636031628E0,4.378102260E0
7.759522759E0,4.071245193E-1,-5.261314392E0,-3.958229065E0,6.596571597E0
7.764320727E0,-1.168095589E0,-8.119690895E0,-5.408193588E0,9.825598477E0
7.769118696E0,-2.688673973E0,-1.162343693E1,-7.029634476E0,1.384734684E1
7.773916665E0,-4.741758823E0,-1.555739021E1,-8.580150604E0,1.838846517E1
7.778714634E0,-7.340981007E0,-1.993112373E1,-1.005587292E1,2.350021863E1
7.783512602E0,-1.009497833E1,-2.393715858E1,-1.046405220E1,2.800700871E1
7.788310571E0,-1.328220749E1,-2.813633919E1,-9.052499771E0,3.240398696E1
7.793108540E0,-1.680460358E1,-3.160316849E1,-7.970263481E0,3.666987946E1
7.797906509E0,-2.018256378E1,-3.376397705E1,-6.844411850E0,3.992728391E1
7.802704477E0,-2.328868866E1,-3.492730713E1,-5.675481796E0,4.236143171E1
7.807502446E0,-2.563384247E1,-3.497334290E1,-5.576430321E0,4.371870501E1
7.812300415E0,-2.701607895E1,-3.310901642E1,-5.449204445E0,4.307864110E1
7.817098384E0,-2.644238281E1,-2.986391449E1,-5.434378624E0,4.025649598E1
7.821896352E0,-2.483391762E1,-2.555645752E1,-4.217027664E0,3.588369139E1
7.826694321E0,-2.118045235E1,-2.146232605E1,-3.196266413E0,3.032258432E1
7.831492290E0,-1.767216492E1,-1.791226959E1,-2.977943182E0,2.533817200E1
7.836290259E0,-1.449905396E1,-1.478967285E1,-3.482946157E0,2.100209281E1
7.841088227E0,-1.246528339E1,-1.253644562E1,-3.997495651E0,1.812527876E1
7.845886196E0,-1.165517044E1,-1.114527416E1,-4.968132973E0,1.687431419E1
7.850684165E0,-1.102144051E1,-1.028504467E1,-5.308666229E0,1.598237253E1
7.855482134E0,-1.098380470E1,-9.670078278E0,-5.666881561E0,1.569292599E1
7.860280102E0,-1.160085201E1,-8.598282814E0,-6.866012573E0,1.598913267E1
7.865078071E0,-1.243938446E1,-6.964782715E0,-9.070661545E0,1.689743723E1
7.869876040E0,-1.282635307E1,-6.235201836E0,-9.932981491E0,1.737979276E1
7.874674009E0,-1.293852139E1,-5.984622955E0,-1.021218777E1,1.753595810E1
7.879471977E0,-1.256819916E1,-6.053337097E0,-9.532698631E0,1.689600140E1
7.884269946E0,-1.166073227E1,-6.323140144E0,-8.339226723E0,1.566835922E1
7.889067915E0,-1.046896172E1,-6.536185265E0,-7.250187397E0,1.431384276E1
7.893865884E0,-9.230377197E0,-6.481244087E0,-6.255331993E0,1.289711466E1
7.898663800E0,-7.960543633E0,-6.155093193E0,-5.558447838E0,1.149572832E1
7.903461821E0,-6.795003414E0,-5.478038788E0,-5.249132156E0,1.018500706E1
7.908259790E0,-5.631043911E0,-4.692529678E0,-5.022339344E0,8.885515337E0
7.913057759E0,-4.567178249E0,-3.712617874E0,-4.479806423E0,7.396709689E0
7.917855675E0,-3.622761250E0,-2.717516899E0,-3.741539001E0,5.874386033E0
7.922653644E0,-2.759797573E0,-1.775989532E0,-2.909577847E0,4.385916633E0
7.927451613E0,-1.957104206E0,-9.088468552E-1,-2.066930294E0,2.988052931E0
7.932249582E0,-1.121750832E0,1.594638824E-2,-1.274619699E0,1.698009008E0
7.937047550E0,-2.897028923E-1,9.413695335E-1,-5.987273455E-1,1.152639926E0
7.941845519E0,4.861698151E-1,1.705293179E0,-1.640439034E-3,1.773242399E0
7.946643488E0,1.160232067E0,2.398911953E0,4.786405563E-1,2.707399821E0
7.951441457E0,1.751532078E0,3.079908371E0,9.708967209E-1,3.673736604E0
7.956239425E0,2.243291378E0,3.724503517E0,1.336559057E0,4.548700119E0
7.961037394E0,2.640340567E0,4.340033531E0,1.699790716E0,5.356918689E0
7.965835363E0,2.945181131E0,4.921935081E0,2.012122393E0,6.078500914E0
7.970633332E0,3.227223158E0,5.465666294E0,2.263361931E0,6.738789549E0
7.975431300E0,3.458253622E0,5.985543251E0,2.548243284E0,7.367481928E0
7.980229269E0,3.641183615E0,6.443290234E0,2.758198261E0,7.898219090E0
7.985027238E0,3.924473047E0,6.838845730E0,2.790491104E0,8.364098291E0
7.989825207E0,4.181531429E0,7.164954185E0,2.882050276E0,8.782254116E0
7.994623175E0,4.341118336E0,7.524173260E0,3.027941704E0,9.199289245E0
7.999421144E0,4.501975060E0,7.820460796E0,3.180006504E0,9.567644844E0
8.004219113E0,4.690822601E0,8.120719910E0,3.521288395E0,1.001745379E1
8.009017082E0,4.781393528E0,8.410577774E0,3.806553364E0,1.039660479E1
8.013815050E0,4.910216331E0,8.658973694E0,4.061476707E0,1.075098335E1
8.018613019E0,5.067821503E0,8.942382812E0,4.221110344E0,1.111156144E1
8.023410988E0,5.242360115E0,9.241442680E0,4.197174072E0,1.142378539E1
8.028208957E0,5.409723282E0,9.477258682E0,4.109603405E0,1.166071946E1
