"Time (s)","Linear Acceleration x (m/s^2)","Linear Acceleration y (m/s^2)","Linear Acceleration z (m/s^2)","Absolute acceleration (m/s^2)"
1.016145833E-2,5.424482426E-1,-1.226432433E0,-5.297203159E-1,1.441870390E0
2.015245833E-2,7.886280084E-1,-1.109462392E0,2.635749400E-2,1.361446162E0
3.014345833E-2,8.382188290E-1,-1.111396651E0,7.563490391E-2,1.394106868E0
4.013445833E-2,8.364886379E-1,-1.028636330E0,-2.501397926E-1,1.349213051E0
5.012545833E-2,5.000041813E-1,-9.237282184E-1,-8.107731682E-1,1.326887762E0
6.011645833E-2,6.293358207E-2,-9.827877277E-1,-1.314972727E0,1.642858979E0
7.010745833E-2,-4.088729864E-1,-7.216721267E-1,-1.224927360E0,1.479335937E0
8.009945833E-2,-6.858123225E-1,-1.023626144E0,-9.218860531E-1,1.538838172E0
9.009045833E-2,-3.987385923E-1,-1.265462013E0,-3.867529696E-1,1.382014627E0
1.000814583E-1,2.380430728E-2,-1.178212785E0,1.542612433E-1,1.188506854E0
1.100724583E-1,1.990617326E-1,-1.046232064E0,3.575519747E-1,1.123419120E0
1.200634583E-1,-5.479805857E-2,-6.528895748E-1,5.411007518E-1,8.497397529E-1
1.300544583E-1,-9.691792104E-1,-3.387292027E-1,6.991392964E-1,1.242111738E0
1.400454583E-1,-1.046587867E0,-5.953097034E-1,9.824725628E-1,1.554024499E0
1.500364583E-1,-1.073378640E0,-7.858213449E-1,1.443636029E0,1.963094974E0
1.600284583E-1,-5.855752587E-1,2.230914500E-1,7.211043620E-1,9.553322352E-1
1.700194583E-1,6.315106925E-1,4.299241322E-1,9.274590343E-1,1.201590935E0
1.800104583E-1,6.209137836E-1,6.264256614E-1,1.455564934E0,1.701943687E0
1.900014583E-1,1.284653744E-1,4.105134228E-1,3.358324921E-1,5.457179541E-1
1.999924583E-1,-6.723216265E-2,-2.953428626E-2,-1.474316955E-1,1.647074455E-1
2.099834583E-1,3.671452090E-1,-3.254551461E-1,-6.393287122E-2,4.947767867E-1
2.199744583E-1,5.691070144E-1,-4.239240119E-1,3.126418501E-1,7.754606941E-1
2.299654583E-1,6.004020435E-1,-1.973882595E-1,7.354405653E-1,9.696997287E-1
2.399574583E-1,3.877674615E-1,1.364665581E-1,7.970211017E-1,8.967883598E-1
2.499484583E-1,-3.666724616E-1,-1.187832624E-1,8.657036662E-1,9.476291444E-1
2.599394583E-1,-8.441802116E-1,-6.225685456E-1,1.092842267E0,1.514772604E0
2.699304583E-1,-5.705756888E-1,-1.094915251E0,1.314435952E0,1.803368486E0
2.799214583E-1,-1.477435713E-1,-1.537268517E0,1.098093651E0,1.894949161E0
2.899124583E-1,-1.360120833E-1,-1.628027536E0,5.784510112E-1,1.733083529E0
2.999034583E-1,-2.295651218E-1,-1.558308407E0,5.065325975E-1,1.654569584E0
3.098944583E-1,-3.632456278E-1,-1.301481885E0,7.251903963E-1,1.533526522E0
3.198864583E-1,-8.621275822E-1,-5.730648485E-1,8.101785064E-1,1.314555629E0
3.298774583E-1,-1.404198752E0,1.874979866E-1,9.988079292E-1,1.733362891E0
3.398684583E-1,-2.136745092E0,4.445835404E-1,5.969475085E-1,2.262671086E0
3.498594583E-1,-2.232861623E0,4.242805459E-1,1.151280509E0,2.547769970E0
3.598504583E-1,-2.235677350E0,3.709828828E-1,2.281588810E0,3.215824779E0
3.698414583E-1,-1.460672038E0,5.909416871E-1,3.106778288E0,3.483510616E0
3.798324583E-1,-1.362458988E0,1.063670215E0,3.262265693E0,3.691891964E0
3.898234583E-1,-1.523184329E0,1.121537624E0,3.788901018E0,4.234820901E0
3.998154583E-1,-9.994596013E-1,9.338498949E-1,4.407365695E0,4.614744575E0
4.098064583E-1,-8.689918479E-1,9.300964209E-1,4.046756796E0,4.242224269E0
4.197974583E-1,-9.195598845E-1,1.199426337E0,3.330351257E0,3.657246698E0
4.297884583E-1,-1.161698640E0,1.390935952E0,2.801807401E0,3.336820532E0
4.397794583E-1,-1.279858735E0,1.677374236E0,3.387441716E0,3.990787402E0
4.497704583E-1,-1.351662543E0,1.412949988E0,3.366742573E0,3.893375765E0
4.597614583E-1,-1.837815109E0,8.361845827E-1,2.072750241E0,2.893624473E0
4.697524583E-1,-2.231690426E0,3.908188310E-1,1.360610830E0,2.642809744E0
4.797434583E-1,-1.921049054E0,-1.733716983E-1,2.332781183E0,3.026938266E0
4.897354583E-1,-2.530506242E0,-5.866914922E-1,2.531538568E0,3.627169181E0
4.997264583E-1,-3.168439516E0,-1.183676130E0,2.072933258E0,3.967007745E0
5.097174583E-1,-3.219031380E0,-1.713376274E0,2.052019522E0,4.184328549E0
5.197084583E-1,-3.136443552E0,-1.090204880E0,2.206005946E0,3.986513147E0
5.296994583E-1,-2.732129932E0,-2.263360700E-1,2.362696123E0,3.619129033E0
5.396904583E-1,-2.205685227E0,-9.574894568E-1,3.349306176E0,4.123067455E0
5.496814583E-1,-2.725045153E0,-1.816075892E0,4.291163979E0,5.397971010E0
5.596724583E-1,-3.280048830E0,-2.300502214E0,4.488788758E0,6.016664797E0
5.696644583E-1,-3.532073180E0,-2.748538097E0,4.021117340E0,6.016592664E0
5.796554583E-1,-4.118819636E0,-2.646229949E0,2.742580369E0,5.611502046E0
5.896455000E-1,-4.511205229E0,-2.222790964E0,1.548560221E0,5.262110892E0
5.996365000E-1,-4.478318441E0,-2.001763873E0,6.697991377E-1,4.950861092E0
6.096275000E-1,-4.549476424E0,-1.844563819E0,6.601085472E-1,4.953372055E0
6.196185000E-1,-4.302871858E0,-1.666654097E0,7.083492458E-1,4.668425941E0
6.296095000E-1,-4.021807896E0,-1.688218628E0,2.240524399E-1,4.367518791E0
6.396005000E-1,-4.152482057E0,-2.007080746E0,1.147352350E-1,4.613528425E0
6.495915000E-1,-4.086842968E0,-2.242697809E0,5.520581415E-1,4.694331379E0
6.595835000E-1,-4.086540082E0,-2.526372553E0,9.001003508E-1,4.888000487E0
6.695745000E-1,-3.964331521E0,-2.647628018E0,9.345223247E-1,4.857899804E0
6.795655000E-1,-4.108487606E0,-2.475224619E0,1.816127640E-1,4.799936512E0
6.895565000E-1,-4.132390439E0,-2.195465171E0,-8.624397504E-1,4.758205584E0
6.995475000E-1,-3.657379596E0,-2.269224288E0,-8.909143750E-1,4.395399049E0
7.095385000E-1,-2.917154839E0,-2.368291324E0,-6.634379518E-1,3.815592492E0
7.195295000E-1,-2.140270379E0,-2.633180718E0,-5.162456998E-1,3.432332677E0
7.295205000E-1,-2.137233335E0,-2.629282964E0,-5.504101038E-1,3.432760771E0
7.395125000E-1,-2.583860039E0,-2.379778471E0,-1.429396305E0,3.792473081E0
7.495035000E-1,-2.768275373E0,-2.497711841E0,-2.674211800E0,4.588389884E0
7.594945000E-1,-2.457153799E0,-1.802307453E0,-3.382963918E0,4.553060709E0
7.694855000E-1,-2.103996007E0,-1.315387587E0,-3.998578078E0,4.705918651E0
7.794765000E-1,-1.999972871E0,-1.878778509E0,-4.026283355E0,4.872438592E0
7.894675000E-1,-1.924301714E0,-2.333674638E0,-3.048071659E0,4.294148954E0
7.994585000E-1,-7.208535165E-1,-2.761626212E0,-1.730025635E0,3.337543681E0
8.094495000E-1,6.439059126E-1,-1.908238828E0,-8.212940633E-1,2.174974526E0
8.194405000E-1,1.159268975E-2,-2.719054681E-1,-1.358949051E0,1.385932717E0
8.294325000E-1,-4.712475747E-1,-5.223003455E-1,-2.247669697E0,2.355183856E0
8.394235000E-1,-1.523580331E0,-1.019851474E0,-2.022477050E0,2.729799896E0
8.494145000E-1,-3.385364200E0,-1.709321229E0,-1.629677474E0,4.127749811E0
8.594055000E-1,-4.840997547E0,-2.522200857E0,7.409387022E-1,5.508697176E0
8.693965000E-1,-6.214212050E0,-1.988925434E0,4.108752485E0,7.710648660E0
8.793875000E-1,-6.264272402E0,-2.210888518E0,6.354991368E0,9.193206843E0
8.893785000E-1,-3.961980063E0,-1.794105710E0,7.499372163E0,8.669295482E0
8.993695000E-1,-9.474521264E-1,-6.649204402E-1,5.892167877E0,6.004783678E0
9.093605000E-1,2.476392308E-1,1.134021794E-1,2.945292225E0,2.957859283E0
9.193525000E-1,1.386151175E0,1.058587231E0,1.437988788E0,2.260494141E0
9.293435000E-1,1.957948055E0,1.250763428E0,1.086448921E0,2.564827674E0
9.393345000E-1,1.374298577E0,8.710449515E-1,5.686814833E-1,1.723605093E0
9.493255000E-1,4.536000931E-1,9.491463572E-2,6.787330985E-2,4.683680377E-1
9.593165000E-1,7.085027352E-1,6.307093316E-1,8.730197024E-1,1.289160109E0
9.693075000E-1,2.325951928E0,1.412663913E0,3.944672012E-1,2.749777459E0
9.792985000E-1,2.262791474E0,1.542466545E0,-8.138669300E-1,2.856887761E0
9.892895000E-1,1.383013852E0,8.543932508E-1,1.478404158E-1,1.632351656E0
9.992805000E-1,3.881998631E-1,-9.317859739E-2,1.390163827E0,1.446352948E0
1.009272500E0,-1.761265554E0,-1.819252977E-1,2.854680263E0,3.359219042E0
1.019263500E0,-2.053324913E0,-7.837713110E-1,2.961994212E0,3.688339786E0
1.029254500E0,-1.337595896E0,-1.126346520E0,1.124442959E0,2.078988031E0
1.039245500E0,-1.397354148E0,-5.323980483E-1,2.376349372E-1,1.514105895E0
1.049236500E0,-5.074535340E-1,-2.747314274E-3,-9.636562228E-2,5.165297378E-1
1.059227500E0,-1.035566158E0,-3.039397314E-1,-4.202604389E-1,1.158186282E0
1.069218500E0,1.830077635E-1,-4.682111156E-1,-3.593880004E-1,6.179589186E-1
1.079209500E0,1.154092581E0,-1.679153982E0,-2.610727994E0,3.311704764E0
1.089200500E0,1.931085069E0,-1.418231632E0,-2.641052824E0,3.565898278E0
1.099192500E0,2.673558081E0,-1.233007335E0,-2.629171282E0,3.947247336E0
1.109183500E0,2.702216747E0,-7.696584713E-1,-2.319590449E0,3.643466668E0
1.119174500E0,1.978472659E0,-1.166439416E0,-3.583999379E0,4.256757747E0
1.129165500E0,1.320932209E0,-4.416518927E-1,-2.894282286E0,3.211975754E0
1.139156500E0,1.053652473E0,1.895673162E-1,-6.918320310E-1,1.274657154E0
1.149147500E0,6.789239370E-1,6.907426947E-1,1.123185807E-1,9.750275105E-1
1.159138500E0,-4.022439981E-1,2.254984564E-1,2.416920862E0,2.460519507E0
1.169129500E0,-2.143729738E0,-1.193560556E0,3.707612441E0,4.445959289E0
1.179120500E0,-2.163840213E0,-2.249845446E0,1.503606827E0,3.464800497E0
1.189111500E0,-4.628145741E-1,-1.977813093E0,3.290039383E0,3.866561922E0
1.199103500E0,1.107158589E0,-9.234203625E-1,2.156511605E0,2.594040788E0
1.209094500E0,2.119172455E0,-7.039749438E-1,1.156100369E0,2.514565704E0
1.219085500E0,2.553022116E0,-9.082345587E-1,-3.349209112E-1,2.730381650E0
1.229076500E0,2.053610403E0,-1.122293522E0,-1.848958002E0,2.982533174E0
1.239067500E0,9.375238466E-1,-1.232195449E0,-1.611202612E0,2.234553746E0
1.249058500E0,-5.390754955E-1,-2.158280388E0,-1.326166636E0,2.589883119E0
1.259049500E0,-1.524655780E0,-1.919788833E0,-2.841688335E-1,2.467978188E0
1.269040500E0,-1.329751564E0,-1.057300551E0,9.495808053E-1,1.946234154E0
1.279031500E0,-9.860028923E-1,-2.780807126E-1,1.345829653E0,1.691386426E0
1.289023500E0,-2.940004881E-1,9.063201803E-1,9.642193097E-1,1.355570520E0
1.299014500E0,4.836351934E-1,1.004275076E0,1.095920241E-1,1.120036535E0
1.309005500E0,1.134750138E-1,9.696069342E-1,-3.315727955E-1,1.030996947E0
1.318996500E0,-1.166177314E0,6.523136240E-1,-9.532382387E-1,1.641385309E0
1.328987500E0,-2.165830166E0,-1.232265615E-1,-5.958973485E-1,2.249688588E0
1.338978500E0,-1.944344215E0,3.466241133E-1,5.861015081E-1,2.060130501E0
1.348969500E0,-3.358548577E-1,1.205806965E0,1.903756937E0,2.278389650E0
1.358960500E0,1.467437705E0,2.015267433E0,2.569728488E0,3.580248699E0
1.368951500E0,2.236877052E0,1.650793524E0,3.641447103E-1,2.803808049E0
1.378942500E0,3.588827717E0,1.202876925E0,1.903718930E0,4.236831723E0
1.388934500E0,6.341488978E0,2.026298205E0,4.460333283E0,8.013422481E0
1.398925500E0,4.255761134E0,-3.605311310E0,-2.498830998E0,6.111786059E0
1.408916500E0,-7.408246815E-2,-6.897437564E0,-3.893291944E0,7.920723156E0
1.418907500E0,-3.839087962E0,-7.035097978E0,-4.120071233E0,9.011447547E0
1.428898500E0,-7.233941317E0,-5.877787820E0,-4.089927666E0,1.017869368E1
1.438889500E0,-8.667511364E0,-5.043492472E0,-4.247474168E0,1.089052829E1
1.448880500E0,-6.566975155E0,-3.488239528E0,-4.343422299E0,8.611521059E0
1.458871500E0,-2.016048036E0,-1.337703778E0,-3.141600212E0,3.965293554E0
1.468862500E0,-5.342805594E-2,-2.323829681E-1,-2.016737131E0,2.030784345E0
1.478853500E0,3.798889232E-1,1.764180976E-1,-1.815151740E0,1.862851249E0
1.488845500E0,5.464047611E-2,3.129903442E-1,-1.513036632E0,1.546036347E0
1.498836500E0,-7.246056747E-1,4.020557177E-1,-9.391932267E-1,1.252511917E0
1.508827500E0,-1.387954164E0,3.723571247E-1,-7.255079001E-1,1.609791385E0
1.518818500E0,-1.364238442E0,4.986926508E-1,-4.277118382E-1,1.514192294E0
1.528809500E0,-1.070848550E0,8.437771922E-1,4.174005657E-2,1.363971700E0
1.538800500E0,-1.122039753E0,8.223711205E-1,1.661778688E-2,1.391238160E0
1.548791500E0,-1.220324432E0,4.975758326E-1,-4.330447912E-2,1.318578290E0
1.558782500E0,-1.112353548E0,1.654282558E-1,1.007557118E-1,1.129091953E0
1.568773500E0,-9.483327171E-1,4.025398672E-2,1.423811629E-1,9.598060853E-1
1.578764500E0,-7.741207740E-1,9.257487237E-2,1.379533589E-1,7.917475664E-1
1.588757083E0,-6.110609329E-1,1.880680901E-1,1.555289197E-1,6.579926406E-1
1.598748083E0,-2.881095645E-1,4.107727468E-1,2.801304540E-1,5.746428821E-1
1.608739083E0,1.773633000E-1,6.126098603E-1,1.969026482E-1,6.674722721E-1
1.618730083E0,4.265915117E-1,5.910909373E-1,1.177629232E-1,7.384015981E-1
1.628721083E0,4.510545078E-1,3.658006418E-1,2.957492441E-2,5.814937271E-1
1.638712083E0,3.690072548E-1,6.345866203E-2,-1.922447562E-2,3.749172394E-1
1.648703083E0,2.180186981E-1,-1.783108413E-1,7.579160929E-3,2.817522893E-1
1.658694083E0,-1.151822546E-1,-5.167435902E-1,-2.963018060E-2,5.302535596E-1
1.668685083E0,-4.461393383E-1,-5.644130158E-1,-2.060737136E-1,7.483774028E-1
1.678676083E0,-5.648638362E-1,-7.244466305E-2,-3.219172883E-1,6.541789687E-1
1.688668083E0,-4.299495676E-1,5.592516786E-1,-3.864892602E-1,8.043587626E-1
1.698659083E0,-6.269676983E-2,9.252470326E-1,-6.400084510E-1,1.126775831E0
1.708650083E0,2.251558095E-1,1.066949626E0,-9.168501386E-1,1.424672180E0
1.718641083E0,4.789387098E-1,1.176124159E0,-1.043070767E0,1.643364521E0
1.728632083E0,6.816344869E-1,1.280133262E0,-1.088488430E0,1.813332237E0
1.738623083E0,6.577370627E-1,1.279325176E0,-8.511461458E-1,1.671448687E0
1.748614083E0,4.310981070E-1,1.065854443E0,-5.776785940E-1,1.286702696E0
1.758605083E0,2.045070983E-1,8.313389951E-1,-4.550648206E-1,9.695523034E-1
1.768596083E0,6.311338395E-2,6.098757023E-1,-4.477958545E-1,7.592448872E-1
1.778587083E0,6.980698407E-3,3.845731276E-1,-5.360537276E-1,6.597717935E-1
1.788578083E0,1.374025512E-1,2.111540669E-1,-7.235356343E-1,7.661392270E-1
1.798570083E0,3.239031489E-1,1.125670874E-1,-8.575181490E-1,9.235377496E-1
1.808561083E0,4.107357632E-1,8.425954700E-2,-8.327589914E-1,9.323578048E-1
1.818552083E0,5.470157951E-1,1.419031531E-1,-7.958548746E-1,9.760879911E-1
1.828543083E0,5.650835453E-1,1.853772014E-1,-7.574199566E-1,9.630000575E-1
1.838534083E0,5.100521828E-1,3.429263341E-1,-5.325269794E-1,8.132260963E-1
1.848525083E0,4.690015130E-1,7.156951028E-1,-1.967169991E-1,8.779974243E-1
1.858516083E0,4.374142693E-1,1.375900129E0,1.988050398E-1,1.457379790E0
1.868507083E0,3.028175046E-1,2.038603671E0,6.291674209E-1,2.154867748E0
1.878498083E0,-1.395291835E-3,2.526106505E0,1.003322857E0,2.718064160E0
1.888489083E0,-3.214112118E-1,2.965025994E0,1.374804361E0,3.284017561E0
1.898480083E0,-4.958609904E-1,3.452518888E0,1.687583621E0,3.874752026E0
1.908472083E0,-5.678697436E-1,4.006991052E0,2.554868082E0,4.786000862E0
1.918463083E0,-4.153848843E-1,4.717675676E0,3.760699604E0,6.047468057E0
1.928454083E0,-4.001306681E-1,5.705382081E0,3.919268199E0,6.933408430E0
1.938445083E0,-5.821004046E-1,6.710557628E0,3.341332620E0,7.518971222E0
1.948436083E0,-7.757408912E-1,7.374899560E0,2.455897232E0,7.811680271E0
1.958427083E0,-7.413968316E-1,7.422986476E0,2.256654528E0,7.793772331E0
1.968418083E0,-5.667638889E-1,7.535443636E0,1.836240892E0,7.776626050E0
1.978409083E0,-4.524530156E-1,7.928165444E0,1.090329060E0,8.015568507E0
1.988400083E0,8.055504352E-2,8.495095101E0,1.326888767E0,8.598474498E0
1.998391083E0,1.963953292E-1,8.420520297E0,7.358288205E-1,8.454890730E0
2.008383083E0,3.741721004E-1,8.308507526E0,2.981775928E-1,8.322272042E0
2.018374083E0,6.407573332E-1,6.948060418E0,1.075136313E0,7.059888925E0
2.028365083E0,-8.414669573E-2,-1.434958177E1,1.170745305E0,1.439750750E1
2.038356083E0,-2.813159185E0,-5.956278387E1,-1.317092927E0,5.964372406E1
2.048347083E0,-3.814526441E0,-5.240601176E1,2.617973864E0,5.260983243E1
2.058338083E0,-2.209721706E0,-6.700433174E0,6.297644216E0,9.457219328E0
2.068329083E0,-1.465422316E0,3.852498844E0,4.744263550E0,6.284683487E0
2.078320083E0,-1.393648767E0,5.782278814E0,2.926449573E0,6.628809265E0
2.088311083E0,-1.457247032E0,6.525866890E0,1.685923596E0,6.895857158E0
2.098302083E0,-1.636865457E0,5.555258912E0,6.986860641E-1,5.833386008E0
2.108293083E0,-1.653569782E0,2.951943433E0,-3.029607613E-1,3.397064657E0
2.118285083E0,-5.814254532E-1,3.928194559E-1,-5.989829973E-1,9.225742862E-1
2.128276083E0,4.395755464E-1,-3.300589514E-1,4.415583372E-2,5.514665085E-1
2.138267083E0,6.584938386E-1,2.893962443E-2,1.079239889E0,1.264598899E0
2.148258083E0,4.628679299E-1,3.904320377E-1,2.098429458E0,2.184053590E0
2.158249083E0,1.783978187E-1,7.553479958E-1,2.347581071E0,2.472551973E0
2.168240083E0,7.661635906E-2,8.059427834E-1,2.095929188E0,2.246849572E0
2.178231083E0,2.081245514E-1,6.037074745E-1,1.802991285E0,1.912735245E0
2.188222083E0,4.672623318E-1,4.031175721E-1,1.576044474E0,1.692558432E0
2.198213083E0,5.600811061E-1,7.669149578E-2,1.373614452E0,1.485391899E0
2.208204083E0,4.193529510E-1,-2.446568584E-1,1.296244095E0,1.384183019E0
2.218195083E0,3.618700703E-1,-2.710693163E-1,1.393312553E0,1.464837326E0
2.228187083E0,5.220209947E-1,1.924856615E-1,1.417146388E0,1.522452145E0
2.238178083E0,7.752886091E-1,1.313123837E0,2.069964481E0,2.571015284E0
2.248169083E0,1.072897122E0,2.575057640E0,2.913048339E0,4.033346094E0
2.258160083E0,1.197824857E0,3.050230451E0,3.207493070E0,4.585488195E0
2.268151083E0,1.333677677E0,3.157446751E0,3.194373087E0,4.685315950E0
2.278142083E0,1.549169793E0,3.150508445E0,2.646618204E0,4.396614428E0
2.288133083E0,1.498275921E0,2.826769749E0,1.832980485E0,3.687177160E0
2.298124083E0,1.256248848E0,2.332643189E0,1.189273962E0,2.904093313E0
2.308115083E0,1.102521747E0,1.713775054E0,6.481889981E-1,2.138393817E0
2.318106083E0,9.325252081E-1,1.077791533E0,1.681530583E-1,1.435100451E0
2.328097083E0,7.815170632E-1,7.143543363E-1,-2.347814959E-1,1.084524499E0
2.338089083E0,6.382875424E-1,8.279335767E-1,-5.806472254E-1,1.195841208E0
2.348080083E0,4.520346839E-1,1.508236653E0,-8.071146385E-1,1.769335241E0
2.358071083E0,1.146873244E-1,2.590308348E0,-8.799942613E-1,2.738108913E0
2.368062083E0,-2.663070149E-1,3.420172091E0,-8.818992110E-1,3.542067585E0
2.378053083E0,-4.137033713E-1,3.842153950E0,-7.976140094E-1,3.945818744E0
2.388044083E0,-3.672158141E-1,3.957066940E0,-5.523251035E-1,4.012267344E0
2.398035083E0,-2.282517275E-1,3.926265562E0,-3.153801377E-1,3.945519579E0
2.408026083E0,-1.919131095E-1,4.220106275E0,-1.291247211E-1,4.226440678E0
2.418017083E0,-3.336062744E-1,4.692951894E0,1.643542685E-3,4.704794717E0
2.428008083E0,-4.430426529E-1,5.078527234E0,4.946740787E-2,5.098055775E0
2.437999083E0,-4.947878802E-1,5.426626600E0,-4.161229491E-2,5.449295632E0
2.447990083E0,-5.502329332E-1,5.878747932E0,-2.787806974E-1,5.911019558E0
2.457982083E0,-6.177564333E-1,6.270496763E0,-5.700853997E-1,6.326590711E0
2.467973083E0,-6.558913891E-1,6.297382845E0,-7.743782707E-1,6.378627276E0
2.477964083E0,-6.776833771E-1,5.982365856E0,-9.560987697E-1,6.096070936E0
2.487955083E0,-6.887380499E-1,5.538792568E0,-1.058097526E0,5.680858526E0
2.497946083E0,-7.654293995E-1,5.222378680E0,-1.185384979E0,5.409644978E0
2.507937083E0,-1.012130591E0,4.792104299E0,-1.238675918E0,5.052028303E0
2.517928083E0,-1.216696234E0,4.264467346E0,-1.252425061E0,4.608101562E0
2.527919083E0,-1.254810286E0,3.464004573E0,-1.233851380E0,3.885391327E0
2.537910083E0,-1.328905034E0,2.205791354E0,-1.228598096E0,2.853236297E0
2.547901083E0,-1.422033783E0,2.912065423E-1,-1.187244540E0,1.875241566E0
2.557892083E0,-1.576544264E0,-1.810549396E0,-1.218493230E0,2.692267945E0
2.567883083E0,-1.803611236E0,-4.077164072E0,-1.291393976E0,4.641549177E0
2.577875083E0,-1.837490589E0,-6.324666538E0,-1.326014609E0,6.718340065E0
2.587865833E0,-1.754128297E0,-7.960480081E0,-1.086184919E0,8.223503321E0
2.597856833E0,-1.853768798E0,-9.519876947E0,-6.254427445E-1,9.718831950E0
2.607847833E0,-2.107575672E0,-1.203883582E1,-1.329510659E-2,1.222193192E1
2.617838833E0,-2.209204373E0,-1.416403090E1,4.385259712E-1,1.434198942E1
2.627829833E0,-1.917895212E0,-1.338194710E1,4.276700306E-1,1.352544756E1
2.637820833E0,-9.932316589E-1,-1.178418607E1,1.613977700E-2,1.182598033E1
2.647811833E0,-3.277868696E-2,-1.275730308E1,1.899617109E-1,1.275875942E1
2.657802833E0,8.057703636E-1,-1.482039489E1,6.604035392E-1,1.485696818E1
2.667793833E0,1.468160129E0,-1.686120647E1,9.496701215E-1,1.695162680E1
2.677784833E0,1.940094751E0,-1.886877897E1,1.151719343E0,1.900319039E1
2.687776833E0,2.229608232E0,-1.991273033E1,1.266765796E0,2.007716807E1
2.697767833E0,2.504263061E0,-1.999305236E1,1.252119251E0,2.018814699E1
2.707758833E0,2.804341291E0,-2.017101821E1,1.381613297E0,2.041183875E1
2.717749833E0,3.002769478E0,-2.097731885E1,1.512044798E0,2.124501848E1
2.727740833E0,3.276902443E0,-2.146404576E1,1.673335564E0,2.177713025E1
2.737731833E0,3.418420849E0,-2.021573304E1,2.303874742E0,2.063175471E1
2.747722833E0,2.988017830E0,-1.800385298E1,3.160092031E0,1.852169416E1
2.757713833E0,2.601917118E0,-1.686859969E1,4.050327106E0,1.754208591E1
2.767704833E0,2.840772369E0,-1.629054863E1,4.828200915E0,1.722682462E1
2.777695833E0,3.353559440E0,-1.456796358E1,5.438832663E0,1.590763416E1
2.787686833E0,3.809807737E0,-1.110879991E1,5.787247193E0,1.309245205E1
2.797678833E0,4.234007153E0,-6.436934248E0,5.828429718E0,9.660824606E0
2.807669833E0,3.761329934E0,-1.876649830E0,5.214102530E0,6.697483308E0
2.817660833E0,2.903169469E0,1.566247464E0,4.647398576E0,5.699108492E0
2.827651833E0,2.771150741E0,3.735520617E0,4.520613983E0,6.486088305E0
2.837642833E0,3.192391466E0,5.415591735E0,4.706424463E0,7.853052167E0
2.847633833E0,3.550599498E0,7.026765695E0,4.401193959E0,9.019573227E0
2.857624833E0,3.296098267E0,8.344629870E0,3.743182223E0,9.721549497E0
2.867615833E0,1.595590546E0,9.327625174E0,2.470592455E0,9.780303045E0
2.877606833E0,3.431228737E-1,9.972282454E0,1.094149119E0,1.003799347E1
2.887597833E0,-9.833178509E-2,1.021280650E1,3.993273703E-1,1.022108351E1
2.897588833E0,-3.240666151E-1,1.025912697E1,1.105672666E-1,1.026483953E1
2.907579833E0,-5.025515208E-1,1.027662184E1,-8.191247463E-2,1.028922855E1
2.917571833E0,-6.300980052E-1,1.036829917E1,-2.124509794E-1,1.038959992E1
2.927562833E0,-7.392916878E-1,1.050815989E1,-2.844249781E-1,1.053797295E1
2.937553833E0,-8.723185482E-1,1.061238300E1,-3.323545682E-1,1.065335966E1
2.947544833E0,-1.017964212E0,1.064257568E1,-3.090154435E-1,1.069561400E1
2.957535833E0,-1.155563302E0,1.041435067E1,-3.572035171E-1,1.048435123E1
2.967526833E0,-1.308804499E0,1.032078235E1,-4.851908817E-1,1.041474569E1
2.977517833E0,-1.461697494E0,1.022282980E1,-8.233066750E-1,1.035956768E1
2.987508833E0,-1.646406358E0,1.015089267E1,-1.182802849E0,1.035134284E1
2.997499833E0,-1.769771938E0,1.014737499E1,-1.393958085E0,1.039444231E1
3.007490833E0,-1.890648649E0,1.010562002E1,-1.580965490E0,1.040180562E1
3.017481833E0,-2.041277895E0,1.012624432E1,-1.672821740E0,1.046451012E1
3.027472833E0,-2.200686880E0,1.018289331E1,-1.737003118E0,1.056179525E1
3.037464833E0,-2.358005487E0,1.024570527E1,-1.795849496E0,1.066582120E1
3.047455833E0,-2.451210835E0,1.021605404E1,-1.767454832E0,1.065364216E1
3.057446833E0,-2.493426709E0,1.020937185E1,-1.565511884E0,1.062540718E1
3.067437833E0,-2.602913775E0,1.025139812E1,-1.460922153E0,1.067710715E1
3.077428833E0,-2.709776319E0,1.024813889E1,-1.387882828E0,1.069081181E1
3.087419833E0,-2.769295712E0,1.022076690E1,-1.205312290E0,1.065766637E1
3.097410833E0,-2.807845235E0,1.022492076E1,-1.012669339E0,1.065168994E1
3.107401833E0,-2.863313093E0,1.051395331E1,-7.576500446E-1,1.092317763E1
3.117392833E0,-2.870589952E0,1.066920039E1,-5.173791826E-1,1.106073257E1
3.127383833E0,-2.812470091E0,1.029933009E1,-3.826423770E-1,1.068328617E1
3.137374833E0,-2.813216195E0,1.015718545E1,-3.486367249E-1,1.054533779E1
3.147365833E0,-2.746472275E0,9.982484676E0,-3.235024685E-1,1.035846340E1
3.157356833E0,-2.697612941E0,9.978841860E0,-2.319660616E-1,1.033964258E1
3.167348833E0,-2.624608992E0,9.947327707E0,-1.617462641E-1,1.028902633E1
3.177339833E0,-2.557966813E0,9.915593698E0,-5.779855728E-2,1.024038736E1
3.187330833E0,-2.475366999E0,9.894688733E0,4.392779231E-2,1.019971747E1
3.197321833E0,-2.403386312E0,9.914640602E0,1.450284898E-1,1.020281320E1
3.207312833E0,-2.344399308E0,9.903042065E0,1.959250120E-1,1.017864612E1
3.217303833E0,-2.309577677E0,9.875472443E0,2.204201496E-1,1.014434276E1
3.227294833E0,-2.273754711E0,9.826662226E0,2.526593943E-1,1.008945428E1
3.237285833E0,-2.236547123E0,9.774753569E0,2.954890430E-1,1.003171292E1
3.247276833E0,-2.187899020E0,9.693870789E0,3.190299698E-1,9.942827219E0
3.257267833E0,-2.192622547E0,9.605600052E0,2.986114927E-1,9.857196093E0
3.267258833E0,-2.218690019E0,9.530502507E0,1.756363980E-1,9.786925543E0
3.277249833E0,-2.224279080E0,9.441155882E0,4.106616497E-2,9.699717947E0
3.287241833E0,-2.052654968E0,9.447369719E0,-1.482853524E-1,9.668928357E0
3.297232833E0,-1.484233979E0,9.776274430E0,-3.656426573E-1,9.895058705E0
3.307223833E0,1.721450255E0,-9.579506852E0,-1.168681823E0,9.802864873E0
3.317214833E0,2.029656495E1,-6.808060066E1,-8.090961868E0,7.150092586E1
3.327205833E0,2.136897471E1,-6.385908872E1,-6.958579559E0,6.769813972E1
3.337196833E0,-9.980305418E-2,-1.235179751E1,2.685186439E0,1.264069177E1
3.347187833E0,-2.975622903E0,8.324717177E0,6.363796105E0,1.089280261E1
3.357178833E0,-2.766219492E0,7.125187199E0,7.587485025E0,1.076987427E1
3.367169833E0,-1.309151385E0,-1.304348336E0,7.532034709E0,7.755433501E0
3.377160833E0,1.511377046E0,-1.612791534E1,4.435172714E0,1.679478106E1
3.387151833E0,3.441852981E0,-1.404211178E1,2.115219737E0,1.461168743E1
3.397143833E0,2.063936148E0,-1.322125626E0,1.059887432E0,2.670432542E0
3.407134833E0,5.856433057E-1,2.525501318E0,5.049235169E-1,2.641227508E0
3.417125833E0,-1.809128523E-1,3.383624654E0,1.025963787E-1,3.390010513E0
3.427116833E0,-5.645676747E-1,3.601449809E0,-4.999556494E-1,3.679556093E0
3.437107833E0,-7.136904580E-1,3.253636957E0,-1.074093170E0,3.499883377E0
3.447098833E0,-8.041693959E-1,3.082762604E0,-1.594282524E0,3.562562345E0
3.457089833E0,-7.526582766E-1,3.367766420E0,-2.480232174E0,4.249693728E0
3.467080833E0,-7.979426229E-1,4.271306834E0,-6.110126933E0,7.497628001E0
3.477071833E0,-6.877918974E-1,5.386867872E0,-9.124276555E0,1.061808956E1
3.487062833E0,-6.837440161E-1,5.796277633E0,-5.799050383E0,8.227595373E0
3.497053833E0,-1.070526368E0,6.166109930E0,-2.867093318E0,6.883833414E0
3.507044833E0,-1.331160451E0,6.482063643E0,-1.355720218E0,6.754784566E0
3.517036833E0,-1.441449317E0,6.533261864E0,-8.547477382E-1,6.744766891E0
3.527027833E0,-1.391007142E0,6.364381412E0,-7.319848609E-1,6.555612363E0
3.537018833E0,-1.188710583E0,6.357993329E0,-6.994223017E-1,6.505866858E0
3.547009833E0,-1.010132524E0,6.480946825E0,-7.113324952E-1,6.597653627E0
3.557000833E0,-9.649661453E-1,6.692370449E0,-6.816420883E-1,6.795852987E0
3.566991833E0,-1.005616866E0,7.003104352E0,-5.910272026E-1,7.099580903E0
3.576982833E0,-1.137679593E0,7.380840331E0,-5.081159505E-1,7.485272250E0
3.586974333E0,-1.298394847E0,7.750231163E0,-4.659780639E-1,7.872042163E0
3.596965333E0,-1.447814157E0,8.103662605E0,-4.544608033E-1,8.244516242E0
3.606956333E0,-1.534683024E0,8.433315759E0,-4.329260927E-1,8.582743832E0
3.616947333E0,-1.556696037E0,8.738305943E0,-4.116755569E-1,8.885424586E0
3.626938333E0,-1.509687347E0,8.982496778E0,-3.479929465E-1,9.115124977E0
3.636930333E0,-1.404703660E0,9.019302077E0,-2.407145926E-1,9.131207250E0
3.646921333E0,-1.232843467E0,8.535687642E0,-1.144159770E-1,8.625019278E0
3.656912333E0,-1.074497505E0,7.031789623E0,2.286904514E-2,7.113447349E0
3.666903333E0,-9.565234968E-1,3.934911255E0,1.047422703E-1,4.050856049E0
3.676894333E0,-3.117257376E-1,-3.090528291E-1,1.638277998E-1,4.685361615E-1
3.686885333E0,7.590003128E-1,-4.429345964E0,3.655446068E-1,4.508748163E0
3.696876333E0,1.350765434E0,-7.274854285E0,7.892097332E-1,7.441164164E0
3.706867333E0,1.301435253E0,-9.133426278E0,1.179598648E0,9.300788261E0
3.716858333E0,1.066075906E0,-1.147254117E1,1.408443393E0,1.160773154E1
3.726849333E0,1.094191512E0,-1.426084910E1,1.362116488E0,1.436747832E1
3.736840333E0,1.605867759E0,-1.554483217E1,1.035334974E0,1.566181780E1
3.746831333E0,2.310085216E0,-1.510295925E1,7.048461789E-1,1.529485796E1
3.756823333E0,2.585181802E0,-1.500785429E1,3.970715145E-1,1.523405793E1
3.766814333E0,2.642352076E0,-1.616204671E1,1.210104668E-1,1.637707000E1
3.776805333E0,2.907948106E0,-1.846858617E1,-1.595459569E-1,1.869679899E1
3.786796333E0,3.423785377E0,-2.142925482E1,-4.423880571E-1,2.170555173E1
3.796787333E0,3.749146968E0,-2.336045450E1,-5.941870379E-1,2.366685437E1
3.806778333E0,3.411124986E0,-2.287345628E1,-5.773412097E-1,2.313361404E1
3.816769333E0,2.845009553E0,-2.088404172E1,-4.265532124E-1,2.108125295E1
3.826760333E0,2.884116024E0,-2.033373921E1,-1.492735684E-1,2.053780315E1
3.836751333E0,3.210507894E0,-2.072893147E1,1.097407261E-2,2.097608355E1
3.846742333E0,3.719389903E0,-1.998963758E1,4.376815967E-1,2.033742946E1
3.856733333E0,3.995485193E0,-1.840551460E1,1.251346250E0,1.887571818E1
3.866724333E0,3.919437184E0,-1.563591074E1,2.321137623E0,1.628592559E1
3.876716333E0,3.686550770E0,-1.139496148E1,3.443592528E0,1.246170667E1
3.886707333E0,3.337646828E0,-6.377828254E0,4.163046806E0,8.315499882E0
3.896698333E0,2.711045750E0,-1.359777017E0,4.269598278E0,5.237196965E0
3.906689333E0,1.700347215E0,3.014505717E0,3.960072994E0,5.259334890E0
3.916680333E0,5.155853299E-1,6.219259366E0,3.144284669E0,6.987956881E0
3.926671333E0,-1.991727566E-1,8.217221380E0,2.107890837E0,8.485611397E0
3.936662333E0,-3.795231798E-1,9.290646797E0,1.224397017E0,9.378662155E0
3.946653333E0,-6.028279071E-1,9.854876211E0,4.997977746E-1,9.885938723E0
3.956644333E0,-6.390407369E-1,1.006226759E1,-8.727554083E-2,1.008291720E1
3.966635333E0,-5.708699499E-1,1.009176095E1,-4.286032462E-1,1.011697743E1
3.976626333E0,-5.223572462E-1,1.011638708E1,-6.151329339E-1,1.014852370E1
3.986617333E0,-5.067895827E-1,1.015196973E1,-9.077024621E-1,1.020505996E1
3.996609333E0,-4.776080662E-1,1.012098767E1,-1.043858972E0,1.018587956E1
4.006600333E0,-4.227797483E-1,1.003730466E1,-1.070039880E0,1.010302989E1
4.016591333E0,-3.985361690E-1,1.006105371E1,-1.097877889E0,1.012862127E1
4.026582333E0,-3.670921455E-1,1.008315736E1,-1.085136806E0,1.014802152E1
4.036573333E0,-3.284793261E-1,1.018081521E1,-1.068476334E0,1.024199877E1
4.046564333E0,-2.759834808E-1,1.020196459E1,-8.996765739E-1,1.024527532E1
4.056555333E0,-2.490397851E-1,1.008052260E1,-6.919665170E-1,1.010731292E1
4.066546333E0,-1.811528805E-1,1.000020291E1,-5.518204888E-1,1.001705448E1
4.076537333E0,-1.170324598E-1,9.944014674E0,-5.019764837E-1,9.957364352E0
4.086528333E0,-7.019114614E-2,9.943162150E0,-5.034517727E-1,9.956147048E0
4.096519333E0,-2.290559024E-2,9.947154629E0,-4.940382671E-1,9.959441937E0
4.106510333E0,-1.557946756E-2,9.935107026E0,-5.795543808E-1,9.952008723E0
4.116501333E0,-1.754909302E-2,9.994332304E0,-7.525875252E-1,1.002264307E1
4.126493333E0,-1.391840151E-2,1.007702129E1,-8.977178297E-1,1.011693872E1
4.136484333E0,2.684968337E-2,1.016353552E1,-1.060793678E0,1.021877969E1
4.146475333E0,4.958851833E-2,1.012321312E1,-1.179630807E0,1.019183162E1
4.156466333E0,-1.896686923E-2,1.036508554E1,-1.301937529E0,1.044654963E1
4.166457333E0,2.053542137E-2,1.038543385E1,-1.306527593E0,1.046731447E1
4.176448333E0,6.782260353E-2,1.011848506E1,-1.304551819E0,1.020246026E1
4.186439333E0,3.068432394E-2,1.009347886E1,-1.167548048E0,1.016082799E1
4.196430333E0,-3.481459608E-2,1.017519370E1,-9.260317290E-1,1.021730462E1
4.206421333E0,-1.367261928E-1,1.010507272E1,-5.507802325E-1,1.012099539E1
4.216412333E0,-3.233932717E-1,1.000039002E1,-8.268547654E-2,1.000595926E1
4.226403333E0,-5.957007359E-1,9.967473704E0,4.306415856E-1,9.994540689E0
4.236394333E0,-9.946458811E-1,1.001749546E1,1.007228504E0,1.011701760E1
4.246386333E0,-1.491138371E0,1.011049426E1,1.772004551E0,1.037234727E1
4.256377333E0,-1.948621454E0,1.020698033E1,2.588252467E0,1.070881058E1
4.266368333E0,-2.347253627E0,1.031171449E1,3.368764540E0,1.109908239E1
4.276359333E0,-2.562626460E0,1.042630589E1,3.892623607E0,1.142048280E1
4.286350333E0,-2.397522140E0,1.040796200E1,4.024247940E0,1.141351641E1
4.296341333E0,-2.044035442E0,1.030568017E1,3.679832904E0,1.113221877E1
4.306332333E0,-1.717578229E0,1.018348505E1,3.101012349E0,1.078284380E1
4.316323333E0,-1.437131294E0,9.975429425E0,2.601275678E0,1.040870663E1
4.326314333E0,-1.192689906E0,9.583839054E0,1.857313088E0,9.834739048E0
4.336305333E0,-1.310048055E0,9.207688256E0,9.328016353E-1,9.347078036E0
4.346296333E0,-1.504910025E0,9.095325821E0,1.403590204E0,9.325222326E0
4.356287333E0,-1.277757246E0,8.767193527E0,2.018681915E0,9.086881896E0
4.366278333E0,-7.630207121E-1,7.459910474E0,5.248356689E0,9.153016597E0
4.376270333E0,-1.202470397E0,8.630734717E0,2.209937614E0,8.989957790E0
4.386261333E0,-1.094471739E0,9.139544805E0,3.523777735E-1,9.211586059E0
4.396252333E0,9.513177207E-1,-8.701621681E-1,-3.727608749E-1,1.342064929E0
4.406243333E0,2.425968610E1,-6.231393625E1,-2.194458163E1,7.037843195E1
4.416234333E0,3.322936636E1,-6.617467967E1,-3.518403442E1,8.198289637E1
4.426225333E0,1.965559083E-1,-1.328982188E1,-5.000949301E0,1.420096805E1
4.436216333E0,-1.097085445E0,6.194579439E0,1.197653607E0,6.403966353E0
4.446207333E0,9.561197466E-1,9.919380355E-1,1.902098082E0,2.348634316E0
4.456198333E0,2.994253009E0,-7.126941363E0,8.054083478E-1,7.772227923E0
4.466189333E0,4.229301899E0,-8.570512488E0,-1.024565280E0,9.611993179E0
4.476180333E0,2.708225053E0,-1.288225808E0,-2.816005902E-1,3.012193148E0
4.486172333E0,1.514679115E0,2.615984057E0,1.587905697E-1,3.027018310E0
4.496163333E0,1.018717552E0,3.642495509E0,-8.126701511E-2,3.783141989E0
4.506154333E0,4.965160248E-1,3.458863117E0,-4.437299931E-1,3.522379668E0
4.516145333E0,-1.971716201E-1,2.043555093E0,-2.203602741E0,3.011786696E0
4.526136333E0,-3.142447181E-1,9.351276577E-2,-4.375738106E0,4.388003914E0
4.536127333E0,2.330591986E-1,-6.689021748E-1,-3.628059318E0,3.696560716E0
4.546118333E0,1.770326400E-1,-4.196593451E-1,-2.082572393E0,2.131797902E0
4.556109333E0,-1.965161473E-1,1.855841929E-1,-8.679806451E-1,9.090932235E-1
4.566100333E0,-6.694654079E-1,1.093803549E0,-1.470914606E-1,1.290823781E0
4.576091333E0,-1.010583783E0,2.310192220E0,4.209773076E-1,2.556460359E0
4.586082333E0,-1.217977579E0,3.635383540E0,1.108700062E0,3.991077385E0
4.596073083E0,-1.246673740E0,4.680123687E0,1.597039486E0,5.099832180E0
4.606064083E0,-1.203355885E0,5.374384067E0,1.744334357E0,5.777090257E0
4.616056083E0,-1.094115059E0,5.867692017E0,1.657726568E0,6.194752194E0
4.626047083E0,-9.960381762E-1,6.158985683E0,1.430807823E0,6.400969279E0
4.636038083E0,-8.834012876E-1,6.272516976E0,1.156678659E0,6.439159306E0
4.646029083E0,-7.327850524E-1,6.337343302E0,9.559390676E-1,6.450791700E0
4.656020083E0,-5.706170944E-1,6.346963726E0,7.552415764E-1,6.417159983E0
4.666011083E0,-5.195247453E-1,6.456080371E0,7.158132166E-1,6.516384602E0
4.676002083E0,-6.233248830E-1,6.743862784E0,9.469051194E-1,6.838482907E0
4.685993083E0,-6.745950240E-1,6.980353421E0,8.954104453E-1,7.069807083E0
4.695984083E0,-7.062065336E-1,7.384114771E0,4.580755520E-1,7.431938633E0
4.705975083E0,-7.777188581E-1,7.681053339E0,8.278772973E-2,7.720769446E0
4.715966083E0,-8.467854385E-1,7.915848868E0,-1.572912705E-1,7.962565506E0
4.725958083E0,-8.819026463E-1,7.942630870E0,-2.671353827E-1,7.995905123E0
4.735949083E0,-8.926533370E-1,7.597007216E0,-3.747626692E-1,7.658446035E0
4.745940083E0,-8.989814861E-1,6.529104493E0,-5.227668071E-1,6.611403658E0
4.755931083E0,-8.919070861E-1,4.551135280E0,-5.824920950E-1,4.674144587E0
4.765922083E0,-7.988863635E-1,1.926446473E0,-5.293805927E-1,2.151664297E0
4.775913083E0,-5.706014165E-1,-1.060876708E0,-4.084017009E-1,1.271942340E0
4.785904083E0,-3.040259778E-1,-4.189268644E0,-2.413239455E-1,4.207212951E0
4.795895083E0,-2.511016595E-1,-7.142095592E0,-3.319113493E-2,7.146585418E0
4.805886083E0,-7.257175228E-1,-9.628948569E0,2.633299416E-1,9.659847779E0
4.815877083E0,-1.539878275E0,-1.169849395E1,8.015854383E-1,1.182660243E1
4.825868083E0,-2.157120885E0,-1.472161320E1,1.239130831E0,1.493032186E1
4.835859083E0,-2.201358872E0,-1.898543326E1,1.307597634E0,1.915730849E1
4.845850083E0,-1.697539675E0,-2.320366492E1,1.374820733E0,2.330626179E1
4.855842083E0,-7.090103466E-1,-2.536703882E1,1.533987206E0,2.542326633E1
4.865833083E0,3.019428342E-1,-2.385263569E1,1.761439217E0,2.391949136E1
4.875824083E0,4.901288918E-1,-2.138791267E1,1.650018768E0,2.145706403E1
4.885815083E0,9.630729631E-3,-2.138184326E1,1.143308415E0,2.141239053E1
4.895806083E0,-1.434126849E-1,-2.230326387E1,5.430016816E-1,2.231033387E1
4.905797083E0,5.467716008E-1,-2.168199721E1,1.765204422E-1,2.168960861E1
4.915788083E0,1.322231460E0,-1.961413758E1,-1.060614387E-1,1.965894041E1
4.925779083E0,1.574095597E0,-1.660099485E1,-3.454406003E-1,1.667903283E1
4.935770083E0,1.417938394E0,-1.329284021E1,-3.408365027E-1,1.337259584E1
4.945761083E0,1.282210485E0,-9.404286264E0,1.220781684E-1,9.492079169E0
4.955752083E0,1.009639311E0,-5.227622463E0,7.669347652E-1,5.379181823E0
4.965743083E0,4.989414498E-1,-1.243996300E0,1.278448094E0,1.852268580E0
4.975735083E0,-7.050046384E-2,2.168447526E0,1.560165775E0,2.672312151E0
4.985726083E0,-3.679904240E-1,4.781579896E0,1.633934247E0,5.066425207E0
4.995717083E0,-2.896994224E-1,6.772380239E0,1.445134671E0,6.930907161E0
5.005708083E0,-1.173240897E-1,8.230054264E0,1.276903260E0,8.329348118E0
5.015699083E0,4.045105616E-2,9.174771940E0,9.418349987E-1,9.223075930E0
5.025690083E0,1.589621489E-1,9.663313825E0,4.680035394E-1,9.675945967E0
5.035681083E0,2.105345910E-1,9.886041870E0,9.564254098E-3,9.888288029E0
5.045672083E0,3.463651182E-1,9.941426697E0,-2.862645121E-1,9.951576806E0
5.055663083E0,5.095107672E-1,1.003715380E1,-6.453571916E-1,1.007077671E1
5.065654083E0,6.492434704E-1,1.017866929E1,-9.319877759E-1,1.024184684E1
5.075645083E0,7.818390986E-1,1.032405212E1,-9.599030413E-1,1.039801608E1
5.085636083E0,8.680759547E-1,1.040800761E1,-9.536961488E-1,1.048759813E1
5.095628083E0,9.347283659E-1,1.039048116E1,-8.950152466E-1,1.047076254E1
5.105619083E0,9.918825600E-1,1.019455032E1,-6.986387017E-1,1.026648836E1
5.115610083E0,1.069626920E0,1.001179911E1,-3.875499451E-1,1.007623035E1
5.125601083E0,1.173218531E0,1.000604077E1,-1.733114719E-3,1.007458667E1
5.135592083E0,1.231353011E0,1.016745550E1,3.536892674E-1,1.024785234E1
5.145583083E0,1.293718244E0,1.035973884E1,5.650708276E-1,1.045548664E1
5.155574083E0,1.315453953E0,1.044395746E1,8.189563465E-1,1.055828376E1
5.165565083E0,1.296573878E0,1.048349867E1,1.466375266E0,1.066466618E1
5.175556083E0,1.314197094E0,1.056676302E1,1.592962807E0,1.076666732E1
5.185547083E0,1.439586248E0,1.046562256E1,1.076707460E0,1.061889651E1
5.195538083E0,1.571869269E0,1.035237369E1,9.300265467E-1,1.051224826E1
5.205529083E0,1.712275828E0,1.030869382E1,8.693400496E-1,1.048602923E1
5.215520083E0,1.854481135E0,1.033339129E1,7.430372679E-1,1.052474134E1
5.225512083E0,1.970281587E0,1.038274647E1,5.232158732E-1,1.058098240E1
5.235503083E0,2.079666473E0,1.028713748E1,3.672799873E-1,1.050167152E1
5.245494083E0,2.205023468E0,1.023046392E1,2.723685676E-1,1.046894002E1
5.255485083E0,2.295062988E0,1.019059994E1,1.616579711E-1,1.044709408E1
5.265476083E0,2.497880241E0,1.015401976E1,5.152799408E-2,1.045687229E1
5.275467083E0,3.145685954E0,1.010914589E1,-8.628035386E-2,1.058761612E1
5.285458083E0,3.796234596E0,1.012323066E1,-2.406088310E-1,1.081430020E1
5.295449083E0,3.712541644E0,1.024535093E1,-3.856279653E-1,1.090407677E1
5.305440083E0,3.241983164E0,1.093583927E1,-5.236544144E-1,1.141828575E1
5.315431083E0,2.767550318E0,1.147675818E1,-5.216277695E-1,1.181725047E1
5.325422083E0,2.496120813E0,1.143501958E1,-5.299056727E-1,1.171627466E1
5.335413083E0,2.434322468E0,1.065328895E1,-6.259204620E-1,1.094578767E1
5.345404083E0,2.396722679E0,9.972180712E0,-7.541265124E-1,1.028384046E1
5.355396083E0,2.188961897E0,9.706515977E0,-7.531897885E-1,9.978742479E0
5.365387083E0,2.020669822E0,9.551571779E0,-7.785228503E-1,9.793963846E0
5.375378083E0,1.852809124E0,9.443149198E0,-7.186029232E-1,9.649992673E0
5.385369083E0,1.743729609E0,9.328267198E0,-7.044666946E-1,9.515956872E0
5.395360083E0,1.732542277E0,9.266672629E0,-6.656967312E-1,9.450718305E0
5.405351083E0,2.877885523E0,8.926497994E0,-5.298126289E-1,9.393896579E0
5.415342083E0,2.219224016E0,2.864317060E-1,6.559698880E-2,2.238593603E0
5.425333083E0,-9.077978302E0,-6.188018512E1,-1.332300366E0,6.255671047E1
5.435324083E0,-3.856334032E0,-6.534032410E1,1.259713615E0,6.546614502E1
5.445315083E0,-2.489292727E-1,-1.358385145E1,2.434274229E0,1.380248808E1
5.455306083E0,-1.890600702E0,8.753319254E0,3.549014318E0,9.632781094E0
5.465297083E0,-2.438228993E0,6.760898062E0,6.023410971E0,9.377429443E0
5.475289083E0,-3.128145769E0,-1.814056556E0,4.634194393E0,5.878082580E0
5.485280083E0,-4.236578466E0,-1.522442814E1,2.612114954E0,1.601733292E1
5.495271083E0,-2.965822092E0,-1.312566130E1,5.678605342E-1,1.346853930E1
5.505262083E0,-2.498146874E0,-4.739149575E0,-2.886611323E0,6.085458194E0
5.515253083E0,-4.308763805E0,-4.437440264E-1,-8.236497311E0,9.306032573E0
5.525244083E0,-6.587980692E0,1.960112987E0,-1.928563516E1,2.047386764E1
5.535235083E0,-4.398615337E0,3.259535043E0,-1.569680481E1,1.662414109E1
5.545226083E0,-1.897504217E0,3.722043954E0,-6.957206633E0,8.115223816E0
5.555217083E0,-1.303863017E0,3.162611597E0,-2.689363689E0,4.351419071E0
5.565208083E0,-1.484221553E0,1.909634559E0,-1.627161418E0,2.915008069E0
5.575199083E0,-2.137166384E0,9.610395938E-1,-9.006303278E-1,2.510420730E0
5.585190083E0,-2.640948744E0,1.307994075E0,-1.394934424E-1,2.950409664E0
5.595182000E0,-2.395776892E0,2.533603220E0,5.158975712E-1,3.524917374E0
5.605173000E0,-1.288420813E0,3.737668884E0,6.880137992E-1,4.012924104E0
5.615164000E0,-4.698933595E-1,4.747699959E0,5.921849513E-1,4.807508469E0
5.625155000E0,2.294530745E-1,5.647852496E0,4.724550978E-1,5.672221818E0
5.635146000E0,8.642056096E-1,6.278330278E0,4.469389451E-1,6.353269775E0
5.645137000E0,1.364661488E0,6.695883456E0,1.039689907E0,6.912171246E0
5.655128000E0,1.686401752E0,7.032075552E0,1.475716778E0,7.380499810E0
5.665119000E0,1.894449778E0,7.392485645E0,1.166748660E0,7.720044457E0
5.675110000E0,2.079605224E0,7.822274707E0,9.606963623E-1,8.150808364E0
5.685101000E0,2.117531434E0,8.459915328E0,7.048103647E-1,8.749335082E0
5.695092000E0,2.037135581E0,8.988186704E0,2.711820213E-1,9.220138897E0
5.705083000E0,1.955367240E0,9.321969162E0,-1.540485509E-1,9.526085296E0
5.715075000E0,1.855677330E0,9.546663626E0,-5.265464473E-1,9.739588077E0
5.725066000E0,1.814434140E0,9.662625023E0,-7.808352779E-1,9.862464059E0
5.735057000E0,1.802966142E0,9.697241124E0,-9.094940490E-1,9.905268888E0
5.745048000E0,1.766342692E0,9.689175475E0,-9.809920478E-1,9.897597349E0
5.755039000E0,1.732017782E0,9.667964700E0,-1.012930928E0,9.873978737E0
5.765030000E0,1.703557337E0,9.613077471E0,-1.011583511E0,9.815124414E0
5.775021000E0,1.651477356E0,9.561388085E0,-9.705477512E-1,9.751383620E0
5.785012000E0,1.537206098E0,9.379752517E0,-8.301730603E-1,9.541066354E0
5.795003000E0,1.214047153E0,8.598200809E0,-5.538213694E-1,8.701131291E0
5.804994000E0,3.080702046E-1,6.001888540E0,2.690175283E-1,6.015807820E0
5.814985000E0,-9.773278901E-1,2.176158249E-1,1.740571089E0,2.008012492E0
5.824976000E0,-1.761371828E0,-9.630492234E0,2.573408725E0,1.012280810E1
5.834968000E0,-2.007769548E0,-2.300169273E1,2.712463700E0,2.324793467E1
5.844959000E0,-1.096492391E0,-2.706213962E1,2.937725344E0,2.724319964E1
5.854950000E0,-1.625007011E-1,-1.558350799E1,3.000282365E0,1.587053314E1
5.864941000E0,-3.539689471E-1,-7.722628212E0,2.986061937E0,8.287390808E0
5.874932000E0,-1.134294932E0,-7.841222025E0,2.529859833E0,8.316945269E0
5.884923000E0,-1.603793751E0,-1.124388931E1,1.823833686E0,1.150319827E1
5.894914000E0,-1.798335001E0,-1.522275817E1,1.212593755E0,1.537650021E1
5.904905000E0,-2.508283899E0,-1.820280333E1,9.019482172E-1,1.839693039E1
5.914896000E0,-3.090761888E0,-1.919821227E1,7.438582170E-1,1.945963742E1
5.924887000E0,-2.932200310E0,-1.751520819E1,6.734426109E-1,1.777171465E1
5.934878000E0,-3.359515414E0,-1.576209833E1,7.664565361E-1,1.613435909E1
5.944870000E0,-4.191667172E0,-1.536470284E1,6.619697160E-1,1.593996145E1
5.954861000E0,-3.900523780E0,-1.475882605E1,5.177007063E-1,1.527432637E1
5.964852000E0,-3.364873218E0,-1.440486836E1,5.223141595E-1,1.480187205E1
5.974843000E0,-3.517557467E0,-1.446099695E1,4.778981247E-1,1.489033344E1
5.984834000E0,-3.715307085E0,-1.380584801E1,3.122956219E-1,1.430043617E1
5.994825000E0,-3.687637183E0,-1.291605499E1,7.701484680E-2,1.343238906E1
6.004816000E0,-3.473861809E0,-1.199609150E1,-1.214490811E-1,1.248954271E1
6.014807000E0,-3.062817752E0,-1.074934350E1,-1.055914322E-1,1.117767363E1
6.024798000E0,-2.386339924E0,-9.454294576E0,1.168975353E-1,9.751511124E0
6.034789000E0,-1.563876272E0,-8.054836600E0,4.287037452E-1,8.216440138E0
6.044781000E0,-6.097397545E-1,-6.215041185E0,7.357404544E-1,6.288070731E0
6.054772000E0,2.693999362E-1,-4.018770268E0,1.091525547E0,4.173070669E0
6.064763000E0,8.904334415E-1,-1.571616377E0,1.041646897E0,2.085156591E0
6.074754000E0,1.293029734E0,9.103161675E-1,5.679809137E-1,1.680239190E0
6.084745000E0,1.788874645E0,3.168212060E0,8.250523612E-2,3.639292138E0
6.094736000E0,2.241346956E0,5.151670640E0,-2.791309456E-1,5.625056501E0
6.104727000E0,2.507718473E0,6.851683686E0,-5.417762513E-1,7.316265631E0
6.114718000E0,2.568109101E0,8.149456244E0,-7.307885206E-1,8.575714156E0
6.124709000E0,2.570747950E0,8.976061333E0,-8.509406161E-1,9.375634485E0
6.134700000E0,2.636722084E0,9.408148935E0,-9.136147280E-1,9.813269669E0
6.144691000E0,2.692558316E0,9.496090474E0,-9.636275715E-1,9.917367728E0
6.154682000E0,2.722921152E0,9.503424051E0,-1.071031567E0,9.943665165E0
6.164674000E0,2.768470670E0,9.489491306E0,-1.144380795E0,9.951104587E0
6.174665000E0,2.817733169E0,9.471394174E0,-1.127982352E0,9.945816809E0
6.184656000E0,2.842428300E0,9.476069022E0,-1.083734643E0,9.952374769E0
6.194647000E0,2.899899413E0,9.487428993E0,-1.020175409E0,9.973037821E0
6.204638000E0,2.955531577E0,9.484674370E0,-9.247032416E-1,9.977439095E0
6.214629000E0,2.970253989E0,9.490840259E0,-8.615603292E-1,9.982021027E0
6.224620000E0,2.944963320E0,9.572724667E0,-8.169244391E-1,1.004874281E1
6.234611000E0,2.851306420E0,9.736097041E0,-7.818879229E-1,1.017511094E1
6.244602000E0,2.705780040E0,9.880525607E0,-7.733001173E-1,1.027346217E1
6.254593000E0,2.543148800E0,9.875368363E0,-8.410477120E-1,1.023219758E1
6.264584000E0,2.433686291E0,9.924521227E0,-9.581434679E-1,1.026338100E1
6.274576000E0,2.357631265E0,9.958715744E0,-1.080502887E0,1.029086638E1
6.284567000E0,2.306547942E0,9.991351393E0,-1.190583154E0,1.032302060E1
6.294558000E0,2.207225968E0,1.005784710E1,-1.313731363E0,1.038065628E1
6.304549000E0,2.118952454E0,1.012307981E1,-1.409142281E0,1.043802597E1
6.314540000E0,2.029464034E0,1.016660999E1,-1.368397128E0,1.045711211E1
6.324531000E0,1.966293932E0,1.012480240E1,-1.423165074E0,1.041169219E1
6.334522000E0,1.985402048E0,1.012710152E1,-1.393714987E0,1.041357038E1
6.344513000E0,2.110954778E0,1.019539115E1,-1.342940544E0,1.049788646E1
6.354504000E0,2.324232554E0,1.021441916E1,-1.376348026E0,1.056554540E1
6.364495000E0,2.423980937E0,1.018999885E1,-1.402203390E0,1.056777813E1
6.374486000E0,2.417697226E0,1.019720262E1,-1.439398698E0,1.057828293E1
6.384478000E0,2.436114201E0,1.023541768E1,-1.466900492E0,1.062309863E1
6.394469000E0,2.443390184E0,1.028736902E1,-1.518168295E0,1.068199195E1
6.404460000E0,2.317107868E0,1.072526233E1,-1.618926930E0,1.109149067E1
6.414451000E0,2.142216040E0,1.111482255E1,-1.659931553E0,1.144044328E1
6.424442000E0,2.117913550E0,1.091034074E1,-1.625883509E0,1.123230119E1
6.434433000E0,1.988205057E0,1.064538936E1,-1.653752216E0,1.095500664E1
6.444424000E0,1.750902096E0,1.020793343E1,-1.536836700E0,1.047040735E1
6.454415000E0,1.447759193E0,9.938460989E0,-1.316531010E0,1.012927773E1
6.464406000E0,1.272138071E0,9.719505567E0,-1.203179226E0,9.875969015E0
6.474397000E0,1.220623371E0,9.626538346E0,-1.176735705E0,9.774705564E0
6.484388000E0,1.222295090E0,9.602634929E0,-1.249105597E0,9.760372311E0
6.494380000E0,1.331728508E0,9.506585641E0,-1.013743472E0,9.652789607E0
6.504371000E0,2.018861570E0,9.184898733E0,-5.765377291E-1,9.421813123E0
6.514362000E0,3.971186212E-1,1.185914737E0,-4.203382069E-1,1.319386665E0
6.524353000E0,-1.320917591E1,-6.108109527E1,-6.481833848E0,6.282831128E1
6.534344000E0,-6.999632860E0,-6.532022839E1,-5.520550425E0,6.592574287E1
6.544335000E0,9.514916754E-1,-1.222583328E1,3.365674871E0,1.271629282E1
6.554326000E0,-1.234046385E0,9.191572160E0,5.231697972E0,1.064793562E1
6.564317000E0,-1.008193149E0,7.929316176E0,3.841206701E0,8.868222897E0
6.574308000E0,-2.922515566E0,4.632938996E0,2.955771021E0,6.224291390E0
6.584299000E0,-6.873094436E0,-5.792434258E0,-1.484663018E0,9.110211087E0
6.594289583E0,-8.659041672E0,-1.590367345E1,-6.645585122E0,1.928910660E1
6.604281583E0,-5.822335750E0,-1.161976236E1,-4.433885157E0,1.373236354E1
6.614272583E0,-4.005071119E0,-2.227501481E0,-2.033053493E0,5.013548047E0
6.624263583E0,-3.363578644E0,1.258415533E0,-2.131720580E0,4.176302621E0
6.634254583E0,-2.720267101E0,1.923341017E0,-2.541067775E0,4.190002292E0
6.644245583E0,-1.862608327E0,3.138139830E0,-2.112308993E0,4.216524713E0
6.654236583E0,-1.392244266E0,4.974076082E0,-1.549436134E0,5.392636582E0
6.664227583E0,-1.015782396E0,6.534980360E0,-1.252525194E0,6.731017869E0
6.674218583E0,-1.911788088E-1,7.608854844E0,-1.302897934E0,7.721966356E0
6.684209583E0,6.515529013E-1,8.266512823E0,-1.083860943E0,8.362685572E0
6.694200583E0,1.072334619E0,8.549723883E0,-7.710384142E-1,8.651137511E0
6.704191583E0,1.395827440E0,8.506378473E0,-5.623220515E-1,8.638461383E0
6.714183583E0,1.603119421E0,8.368999311E0,-4.612821651E-1,8.533634781E0
6.724174583E0,1.682848253E0,8.270947936E0,-3.201047245E-1,8.446480038E0
6.734165583E0,1.822706635E0,8.270224051E0,-1.209450511E-1,8.469562742E0
6.744156583E0,2.076393056E0,8.390753877E0,-3.479444146E-2,8.643920950E0
6.754147583E0,2.334385074E0,8.690940573E0,2.611234948E-2,8.999026812E0
6.764138583E0,2.504882866E0,8.986434878E0,1.128208566E-1,9.329693379E0
6.774129583E0,2.669213600E0,9.267540940E0,1.619858538E-1,9.645634024E0
6.784120583E0,2.814672444E0,9.470945692E0,2.197423111E-1,9.882787054E0
6.794111583E0,2.868581726E0,9.542991575E0,1.665175921E-1,9.966201755E0
6.804102583E0,2.888608148E0,9.586712376E0,8.280709863E-2,1.001279023E1
6.814094583E0,2.883228124E0,9.600866146E0,2.153346799E-2,1.002447499E1
6.824085583E0,2.817911510E0,9.593584024E0,-4.003932081E-2,9.998954087E0
6.834076583E0,2.781218185E0,9.595529977E0,-7.379646622E-2,9.990736512E0
6.844067583E0,2.750348687E0,9.586590169E0,-1.741792718E-1,9.974841722E0
6.854058583E0,2.722893086E0,9.584320865E0,-3.603265516E-1,9.970114765E0
6.864049583E0,2.676187281E0,9.595779653E0,-4.168697117E-1,9.970694353E0
6.874040583E0,2.607435135E0,9.588158977E0,-3.876861852E-1,9.943933383E0
6.884031583E0,2.496138063E0,9.501252396E0,-2.936220270E-1,9.828057601E0
6.894022583E0,2.398292510E0,9.359240484E0,-1.510158925E-1,9.662815077E0
6.904013583E0,2.329665787E0,9.222748929E0,8.332048416E-2,9.512800996E0
6.914004583E0,2.257609671E0,8.852611992E0,5.522579701E-1,9.152624180E0
6.923995583E0,1.134477950E0,3.251906766E0,8.457770862E-1,3.546445645E0
6.933987583E0,-1.882740144E0,-1.725762781E1,-3.610370614E-2,1.736006140E1
6.943978583E0,-4.997162644E0,-3.975782474E1,-1.942350315E0,4.011768921E1
6.953969583E0,-8.074654568E0,-3.692172400E1,-1.953064753E0,3.784479108E1
6.963960583E0,-7.342661521E0,-2.100622748E1,-2.541819727E-1,2.225400817E1
6.973951583E0,-5.340154467E0,-1.754740646E1,9.708108759E-1,1.836766717E1
6.983942583E0,-3.002017819E0,-1.833018609E1,1.829103635E0,1.866422924E1
6.993933583E0,-3.705753319E-1,-1.883197075E1,3.349666364E0,1.913114510E1
7.003924583E0,2.322588609E-1,-1.939704567E1,3.768261516E0,1.976105057E1
7.013915583E0,-6.609941080E-1,-1.834470356E1,3.547469484E0,1.869624565E1
7.023906583E0,-1.913758307E0,-1.741419754E1,3.073751460E0,1.778664372E1
7.033898583E0,-2.037293456E0,-1.738717288E1,2.496499128E0,1.768323650E1
7.043889583E0,-1.231187535E0,-1.723757069E1,1.860089346E0,1.738130025E1
7.053880583E0,-1.140938393E0,-1.702902039E1,1.551848111E0,1.713760510E1
7.063871583E0,-1.495754601E0,-1.627573179E1,1.299368847E0,1.639588626E1
7.073862583E0,-1.842550477E0,-1.553371310E1,1.120665731E0,1.568270151E1
7.083853583E0,-2.239922721E0,-1.504129334E1,1.004831731E0,1.524032303E1
7.093844583E0,-2.550953078E0,-1.436182233E1,1.061650879E0,1.462519760E1
7.103835583E0,-2.743034112E0,-1.332574717E1,1.215147234E0,1.365929561E1
7.113826583E0,-2.711646844E0,-1.175674625E1,1.524959105E0,1.216139841E1
7.123817583E0,-2.416696037E0,-9.556574657E0,1.715930922E0,1.000564630E1
7.133808583E0,-1.963263905E0,-6.921998209E0,1.772845965E0,7.410225852E0
7.143800583E0,-1.470604850E0,-4.230858135E0,1.810800827E0,4.831339236E0
7.153791583E0,-8.846189703E-1,-1.507608077E0,1.774382029E0,2.490755793E0
7.163782583E0,-1.409456715E-2,1.173286505E0,1.556226506E0,1.949010215E0
7.173773583E0,9.194775850E-1,3.665275092E0,1.261105253E0,3.983725265E0
7.183764583E0,1.680308807E0,5.733801888E0,1.021550674E0,6.061640666E0
7.193755583E0,2.116587401E0,7.452047138E0,8.181038225E-1,7.789880785E0
7.203746583E0,2.459117002E0,8.678774271E0,6.121263321E-1,9.041187860E0
7.213737583E0,2.759707448E0,9.387886578E0,3.824558143E-1,9.792582502E0
7.223728583E0,2.975371180E0,9.568346272E0,1.933902989E-1,1.002214966E1
7.233719583E0,3.057504387E0,9.563653881E0,1.625806435E-1,1.004182459E1
7.243710583E0,3.122914850E0,9.560937849E0,2.521541401E-1,1.006119831E1
7.253702583E0,3.213264856E0,9.579062464E0,4.036905992E-1,1.011169990E1
7.263693583E0,3.322298179E0,9.565356005E0,5.754531437E-1,1.014223087E1
7.273684583E0,3.412597607E0,9.600042858E0,7.619799078E-1,1.021700830E1
7.283675583E0,3.489358393E0,9.733692082E0,9.694777107E-1,1.038557993E1
7.293666583E0,3.553853766E0,9.965497345E0,1.103769543E0,1.063763701E1
7.303657583E0,3.552633452E0,1.031034858E1,1.106886694E0,1.096128143E1
7.313648583E0,3.581056767E0,1.023317235E1,9.151635092E-1,1.088022556E1
7.323639583E0,3.591965918E0,1.018780731E1,5.897279513E-1,1.081856812E1
7.333630583E0,3.526328583E0,1.020133543E1,5.099578965E-1,1.080566032E1
7.343621583E0,3.469786885E0,1.013213714E1,3.431456047E-1,1.071528689E1
7.353612583E0,3.427466492E0,1.002377187E1,9.975466847E-2,1.059403039E1
7.363603583E0,3.345776796E0,9.769296362E0,-9.447689854E-2,1.032677586E1
7.373595583E0,3.332006311E0,9.653661826E0,-3.380304605E-1,1.021810732E1
7.383586583E0,3.416927763E0,9.579753020E0,-5.891361400E-1,1.018794114E1
7.393577583E0,3.751150224E0,9.461739251E0,-8.494201939E-1,1.021357686E1
7.403568583E0,3.834252900E0,9.438441605E0,-1.130935122E0,1.025010680E1
7.413559583E0,3.721894558E0,9.670895324E0,-1.349488256E0,1.044987244E1
7.423550583E0,3.824214107E0,1.043394703E1,-1.630923370E0,1.123173073E1
7.433541583E0,4.017843484E0,1.136143939E1,-2.121815250E0,1.223631772E1
7.443532583E0,4.100013529E0,1.163311623E1,-2.493338124E0,1.258396755E1
7.453523583E0,3.969882575E0,1.142655983E1,-2.638996943E0,1.238105577E1
7.463514583E0,3.618004446E0,1.126054335E1,-2.578970597E0,1.210540714E1
7.473505583E0,3.361002654E0,1.101774239E1,-2.380565214E0,1.176240099E1
7.483497583E0,3.158634320E0,1.071423799E1,-2.184395222E0,1.138171555E1
7.493488583E0,2.890114975E0,1.014327024E1,-1.958150661E0,1.072721072E1
7.503479583E0,2.676370884E0,9.625058416E0,-1.482337580E0,1.009960570E1
7.513470583E0,2.612626293E0,9.574501635E0,-1.162330066E0,9.992392551E0
7.523461583E0,2.565148656E0,9.571034237E0,-1.018863221E0,9.961062506E0
7.533452583E0,2.525783154E0,9.573414053E0,-8.482310164E-1,9.937269898E0
7.543443583E0,2.500435474E0,9.571520725E0,-6.569592369E-1,9.914523790E0
7.553434583E0,2.479911747E0,9.538622535E0,-4.674919081E-1,9.866804489E0
7.563425583E0,2.468702635E0,9.472927313E0,-3.009608857E-1,9.793948235E0
7.573416583E0,2.405350392E0,9.435434382E0,-1.805883318E-1,9.738877996E0
7.583407583E0,2.297875206E0,9.412746601E0,-9.270175695E-2,9.689614164E0
7.593400375E0,2.167499839E0,9.409599629E0,-7.022505999E-2,9.656270102E0
7.603391375E0,2.022938688E0,9.437920033E0,-2.021288896E-1,9.654401669E0
7.613382375E0,1.916622274E0,9.456817650E0,-3.272739226E-1,9.654633562E0
7.623373375E0,1.885580429E0,9.432866870E0,-2.290167260E-1,9.622205547E0
7.633364375E0,1.982114890E0,9.328790524E0,8.918524146E-2,9.537455954E0
7.643355375E0,-1.188716284E0,-1.345001804E1,2.253996384E-1,1.350432659E1
7.653346375E0,-1.746077646E1,-6.936114557E1,-1.386232159E0,7.153858308E1
7.663337375E0,-5.988853927E0,-6.011408275E1,2.426934804E0,6.046039471E1
7.673328375E0,2.637706755E0,-1.163138078E1,3.512316023E0,1.243313635E1
7.683319375E0,1.358277791E0,3.758259854E0,4.169506810E0,5.775311483E0
7.693310375E0,-1.311165605E0,-2.555598106E0,6.458577132E0,7.068483253E0
7.703302375E0,-5.060346487E0,-1.419443175E1,3.640387588E0,1.550294878E1
7.713293375E0,-6.885299914E0,-1.373392609E1,5.083943510E-1,1.537161493E1
7.723284375E0,-4.193991733E0,-3.491635591E0,3.938473964E-1,5.471398498E0
7.733275375E0,-3.467005072E0,1.672584343E-1,-3.051603377E-1,3.484425689E0
7.743266375E0,-3.838881555E0,1.577258356E0,-1.642426744E0,4.463442744E0
7.753257375E0,-3.793230004E0,2.915593632E0,-3.209129705E0,5.760884790E0
7.763248375E0,-2.857718184E0,4.053331990E0,-4.634234739E0,6.787649450E0
7.773239375E0,-1.798305034E0,4.092406009E0,-5.991293385E0,7.475110993E0
7.783230375E0,-1.263223991E0,4.084485371E0,-6.610935692E0,7.872942672E0
7.793221375E0,-3.466755688E-1,5.747998343E0,-4.898665127E0,7.560197678E0
7.803212375E0,9.523143786E-1,8.052079053E0,-3.089008600E0,8.676684498E0
7.813203375E0,1.852572458E0,9.222259517E0,-2.274734265E0,9.677629425E0
7.823195375E0,2.272798691E0,9.773906892E0,-1.759905492E0,1.018784262E1
7.833186375E0,2.501678007E0,1.001541035E1,-1.514434701E0,1.043361633E1
7.843177375E0,2.721293872E0,9.961080358E0,-1.318230211E0,1.040991321E1
7.853168375E0,2.876416995E0,9.746586946E0,-1.069399610E0,1.021828495E1
7.863159375E0,2.909329510E0,9.586245768E0,-8.226301521E-1,1.005171759E1
7.873150375E0,2.916458436E0,9.374794078E0,-6.234944522E-1,9.837745633E0
7.883141375E0,2.882471787E0,9.121993217E0,-4.942370725E-1,9.579335788E0
7.893132375E0,2.825190708E0,8.806685037E0,-4.443661702E-1,9.259420348E0
7.903123375E0,2.695366441E0,8.341560082E0,-5.269154797E-1,8.782042176E0
7.913114375E0,2.338783935E0,7.547502349E0,-6.415115509E-1,7.927561988E0
7.923105375E0,1.911487249E0,6.463148485E0,-7.354890972E-1,6.779897939E0
7.933097375E0,1.536350065E0,5.439146658E0,-8.216163911E-1,5.711369484E0
7.943088375E0,1.133156480E0,4.633600316E0,-7.907154644E-1,4.835237992E0
7.953079375E0,7.744967499E-1,4.042635094E0,-6.785262533E-1,4.171707276E0
7.963070375E0,3.792065531E-1,3.244084361E0,-6.231276856E-1,3.325081813E0
7.973061375E0,-4.211062387E-1,1.597092111E0,-7.259423482E-1,1.804169052E0
7.983052375E0,-1.844234621E0,-1.837800930E0,-1.003733624E0,2.790375384E0
7.993043375E0,-4.016818175E0,-7.443370455E0,-1.363221027E0,8.567202784E0
8.003034375E0,-6.159727110E0,-1.371046706E1,-1.346620781E0,1.509080954E1
8.013025375E0,-7.346291472E0,-1.801796816E1,-8.595670865E-1,1.947701288E1
8.023016375E0,-7.073155165E0,-1.899145355E1,-1.164882302E-1,2.026618863E1
8.033007375E0,-5.796930767E0,-1.791600909E1,5.003175920E-1,1.883714697E1
8.042999375E0,-5.436707200E0,-1.864190817E1,1.137449505E0,1.945179469E1
8.052990375E0,-6.314233351E0,-2.106604684E1,1.798633355E0,2.206542440E1
8.062981375E0,-7.623969312E0,-2.314571667E1,1.960598305E0,2.444776174E1
8.072972375E0,-8.458680981E0,-2.360712748E1,1.875131308E0,2.514680634E1
8.082963375E0,-8.322592299E0,-2.247839968E1,2.296713218E0,2.407942869E1
8.092954375E0,-6.931422751E0,-2.050379027E1,2.934347992E0,2.184171319E1
8.102945375E0,-5.023519553E0,-1.872336456E1,3.028993363E0,1.962077802E1
8.112936375E0,-3.733076773E0,-1.731119649E1,2.814571288E0,1.793140256E1
8.122927375E0,-3.495195376E0,-1.606277268E1,2.290677137E0,1.659747748E1
8.132918375E0,-3.591192331E0,-1.451354354E1,2.211979462E0,1.511398232E1
8.142909375E0,-3.276454254E0,-1.219608031E1,2.337153146E0,1.284296742E1
8.152901375E0,-2.334394138E0,-8.886612382E0,2.230568930E0,9.454983520E0
8.162892375E0,-1.210051751E0,-5.311300796E0,1.742736897E0,5.719377001E0
8.172883375E0,-1.659074351E-1,-1.822328027E0,1.088833416E0,2.129310434E0
8.182874375E0,7.378145349E-1,1.359706850E0,4.537264661E-1,1.612154060E0
8.192865375E0,1.590073991E0,3.876361331E0,-2.860574841E-2,4.189908203E0
8.202856375E0,2.337557481E0,5.833989251E0,-3.742510378E-1,6.296004240E0
8.212847375E0,2.908777241E0,7.206006244E0,-6.027912158E-1,7.794284334E0
8.222838375E0,3.304993052E0,8.118432671E0,-7.374052298E-1,8.796345525E0
8.232829375E0,3.553071701E0,8.772146704E0,-8.505272180E-1,9.502540337E0
8.242820375E0,3.703672003E0,9.105989973E0,-1.000190869E0,9.881124504E0
8.252811375E0,3.809958303E0,9.194309242E0,-1.344024618E0,1.004278382E1
8.262803375E0,3.933190127E0,9.201823499E0,-1.675571101E0,1.014648110E1
8.272794375E0,4.038236526E0,9.190805590E0,-1.850434424E0,1.020795617E1
8.282785375E0,4.209797926E0,9.209417862E0,-2.088351635E0,1.033909998E1
8.292776375E0,4.406744429E0,9.169817594E0,-2.291891604E0,1.042869686E1
8.302767375E0,4.596931842E0,9.098752874E0,-2.389207399E0,1.047031032E1
8.312758375E0,4.908534057E0,9.028624878E0,-2.443433307E0,1.056315010E1
8.322749375E0,5.303816945E0,8.916124449E0,-2.394531873E0,1.064713728E1
8.332740375E0,5.586778328E0,8.832531484E0,-2.432190135E0,1.073038925E1
8.342731375E0,5.719572104E0,8.908796133E0,-2.680439669E0,1.092084751E1
8.352722375E0,5.801494519E0,9.064149052E0,-3.218291708E0,1.123269951E1
8.362713375E0,5.761087335E0,9.212558987E0,-3.387516561E0,1.138141638E1
8.372705375E0,5.771060931E0,9.380379338E0,-3.025745235E0,1.142154959E1
8.382696375E0,5.830348774E0,9.643209343E0,-2.251295117E0,1.149142215E1
8.392687375E0,5.888498164E0,9.881619036E0,-1.654869180E0,1.162150582E1
8.402678375E0,5.501506044E0,9.983173478E0,-1.272252384E0,1.146947896E1
8.412669375E0,5.112730522E0,1.009291987E1,-9.975094087E-1,1.135790781E1
8.422660375E0,4.916177537E0,1.019829488E1,-8.423832891E-1,1.135269262E1
8.432651375E0,4.756755542E0,1.029020609E1,-8.159766785E-1,1.136577682E1
8.442642375E0,4.638563140E0,1.037880311E1,-7.372019660E-1,1.139207131E1
8.452633375E0,4.445551814E0,1.029084812E1,-7.348348669E-1,1.123407621E1
8.462624375E0,4.175067804E0,1.014147632E1,-7.124156188E-1,1.099037165E1
8.472615375E0,3.985061362E0,1.006323472E1,-6.569874497E-1,1.084347913E1
8.482607375E0,3.867896317E0,1.008730771E1,-6.489428504E-1,1.082291669E1
8.492598375E0,3.812325549E0,1.031957198E1,-6.559878682E-1,1.102078545E1
8.502589375E0,3.792940567E0,1.080694910E1,-6.891124179E-1,1.147394539E1
8.512580375E0,3.851911783E0,1.128540688E1,-6.606592818E-1,1.194295204E1
8.522571375E0,3.778857256E0,1.135902566E1,-6.747979224E-1,1.199010335E1
8.532562375E0,3.629210050E0,1.085285559E1,-4.674310970E-1,1.145312760E1
8.542553375E0,3.465572796E0,1.025531927E1,-2.200219542E-1,1.082728857E1
8.552544375E0,3.298478084E0,9.521034111E0,1.883751054E-1,1.007797268E1
8.562535375E0,3.208384478E0,9.506053544E0,6.773519862E-1,1.005572427E1
8.572526375E0,3.126654729E0,9.560491122E0,1.113287641E0,1.012019613E1
8.582517375E0,3.086209246E0,9.538340700E0,1.406241331E0,1.012334656E1
8.592509083E0,3.046998695E0,9.508365533E0,1.577330861E0,1.010847114E1
8.602500083E0,3.007459530E0,9.376336573E0,1.634389161E0,9.981569430E0
8.612491083E0,3.074737009E0,9.122669156E0,1.541419601E0,9.749516633E0
8.622482083E0,3.159594141E0,9.038525383E0,6.856293046E-1,9.599378302E0
8.632473083E0,3.553927149E0,8.830701306E0,-7.018997669E-3,9.519019540E0
8.642464083E0,4.297138956E0,8.269111910E0,4.838208425E-1,9.331543152E0
8.652455083E0,3.668446037E0,8.265492484E0,7.534581757E-1,9.074335323E0
8.662446083E0,-3.776123975E0,-2.097769541E1,2.413331841E0,2.145103698E1
8.672437083E0,-4.134111508E1,-7.070914863E1,-4.458663318E0,8.202896546E1
8.682428083E0,-1.590464175E1,-5.349579710E1,-2.095989414E0,5.584936086E1
8.692420083E0,3.521984394E0,-5.768023303E0,2.424971309E0,7.180177765E0
8.702411083E0,2.081102403E0,2.647577147E0,2.206168499E0,4.025895107E0
8.712402083E0,-5.735016355E-1,-3.937000465E0,2.538595573E0,4.719464405E0
8.722393083E0,-6.730891321E0,-1.307328662E1,7.095936795E-1,1.472138730E1
8.732384083E0,-8.625475731E0,-1.485211955E1,-1.236932863E0,1.721959028E1
8.742375083E0,-6.859756937E0,-7.190262616E0,-2.568821000E0,1.026425755E1
8.752366083E0,-7.020365918E0,1.592257048E0,-3.535101453E0,8.019835560E0
8.762357083E0,-7.236945616E0,3.666512947E0,-5.465082568E0,9.781811004E0
8.772348083E0,-6.343230863E0,4.349491124E0,-5.151859505E0,9.257229995E0
8.782339083E0,-5.328521431E0,5.551699128E0,-4.065892979E0,8.703217196E0
8.792330083E0,-4.186069048E0,6.679183808E0,-3.740162137E0,8.724877261E0
8.802322083E0,-2.924348668E0,7.445168474E0,-3.874810649E0,8.887997879E0
8.812313083E0,-1.569320468E0,8.103736864E0,-3.425797112E0,8.936968376E0
8.822304083E0,-1.904215944E-1,8.606769903E0,-2.696429465E0,9.021279311E0
8.832295083E0,7.741234052E-1,9.001673307E0,-2.010555893E0,9.255902137E0
8.842286083E0,1.440593138E0,9.178848619E0,-1.464413233E0,9.405906478E0
8.852277083E0,1.982685578E0,9.133770679E0,-1.075569592E0,9.408169794E0
8.862268083E0,2.394531873E0,9.128659043E0,-8.092966001E-1,9.472125411E0
8.872259083E0,2.728826548E0,9.122595481E0,-7.267152040E-1,9.549678404E0
8.882250083E0,3.028941908E0,9.033436552E0,-6.852527440E-1,9.552331461E0
8.892241083E0,3.235790670E0,8.886020644E0,-7.065120506E-1,9.483188463E0
8.902233083E0,3.426006735E0,8.659971964E0,-7.425648129E-1,9.342592738E0
8.912224083E0,3.570338529E0,8.321062667E0,-7.328455710E-1,9.084297648E0
8.922215083E0,3.690893497E0,7.808220924E0,-6.404104471E-1,8.660319529E0
8.932206083E0,3.732416330E0,7.248981525E0,-6.286049187E-1,8.177640794E0
8.942197083E0,3.701124955E0,6.702420058E0,-7.455312516E-1,7.692631372E0
8.952188083E0,3.579479773E0,6.186127288E0,-8.483282264E-1,7.197256912E0
8.962179083E0,3.475432079E0,5.907668846E0,-9.560456331E-1,6.920491498E0
8.972170083E0,3.361805476E0,5.760845845E0,-1.081369152E0,6.757102941E0
8.982161083E0,3.266485336E0,5.611716703E0,-1.018052870E0,6.572497429E0
8.992152083E0,3.196660226E0,5.507295957E0,-9.384735806E-1,6.436589005E0
9.002144083E0,3.172807094E0,5.469356298E0,-8.051826453E-1,6.374078934E0
9.012135083E0,3.072862391E0,5.349180813E0,-7.325847852E-1,6.212318337E0
9.022126083E0,2.798895780E0,4.875327135E0,-9.942507555E-1,5.708867385E0
9.032117083E0,2.210051050E0,3.908438571E0,-1.562517671E0,4.754122336E0
9.042108083E0,1.155114236E0,2.270317717E0,-1.369344377E0,2.892012355E0
9.052099083E0,-1.846691036E-1,-2.355849034E-1,-1.219410000E0,1.255612868E0
9.062090083E0,-1.841057829E0,-3.888194341E0,-9.884918328E-1,4.414143775E0
9.072081083E0,-3.873653485E0,-8.592348915E0,-3.834218840E-1,9.432956246E0
9.082072083E0,-5.782592810E0,-1.347195212E1,2.396223692E-1,1.466251317E1
9.092063083E0,-7.350137186E0,-1.754505939E1,9.668277526E-1,1.904700453E1
9.102054083E0,-8.072002856E0,-1.931537176E1,1.485107406E0,2.098681396E1
9.112046083E0,-7.493957641E0,-1.789304591E1,2.724306650E0,1.958934250E1
9.122037083E0,-6.757757522E0,-1.634244969E1,3.573746871E0,1.804202359E1
9.132028083E0,-6.708167287E0,-1.706288162E1,2.583743094E0,1.851532246E1
9.142019083E0,-7.195215792E0,-1.837532659E1,1.272824242E0,1.977482843E1
9.152010083E0,-8.056009551E0,-1.929493691E1,3.825412202E-1,2.091268079E1
9.162001083E0,-8.826873719E0,-1.939659777E1,-6.786315031E-3,2.131060184E1
9.171992083E0,-8.821369150E0,-1.879990929E1,-1.204573202E-1,2.076698469E1
9.181983083E0,-8.287189747E0,-1.779704047E1,-7.558929563E-2,1.963206248E1
9.191974083E0,-7.723469626E0,-1.629219404E1,5.275802350E-1,1.803790205E1
9.201966083E0,-7.461509103E0,-1.492857657E1,1.506463192E0,1.675726552E1
9.211957083E0,-7.349280569E0,-1.418264610E1,2.171809675E0,1.612067407E1
9.221948083E0,-6.991891147E0,-1.303528322E1,2.350469595E0,1.497764527E1
9.231939083E0,-6.372529507E0,-1.100785826E1,2.236478126E0,1.291448451E1
9.241930083E0,-5.343302023E0,-8.494499270E0,1.933581830E0,1.021988909E1
9.251921083E0,-3.614785846E0,-5.422961565E0,1.470978194E0,6.681239833E0
9.261912083E0,-1.609853659E0,-2.357114956E0,8.404664256E-1,2.975567766E0
9.271903083E0,8.123536706E-2,1.704574460E-1,2.834285760E-1,3.405681774E-1
9.281894083E0,1.389454560E0,2.210132911E0,-2.504705988E-2,2.610727641E0
9.291885083E0,2.456462073E0,3.875945594E0,-2.144502155E-1,4.593816394E0
9.301877083E0,3.444056212E0,5.305644200E0,-3.594669378E-1,6.335660980E0
9.311868083E0,4.286608413E0,6.539993763E0,-4.109551068E-1,7.830415966E0
9.321859083E0,4.939875133E0,7.482757300E0,-4.318842651E-1,8.976666817E0
9.331850083E0,5.328768768E0,8.072817957E0,-4.421494907E-1,9.683060597E0
9.341841083E0,5.563675395E0,8.360957635E0,-4.856627520E-1,1.005464891E1
9.351832083E0,5.702508175E0,8.382415162E0,-4.916678059E-1,1.015013402E1
9.361823083E0,5.817337550E0,8.341208664E0,-4.562015194E-1,1.017965117E1
9.371814083E0,5.926499804E0,8.299236766E0,-4.197576149E-1,1.020670991E1
9.381805083E0,6.037873474E0,8.269238210E0,-3.531636759E-1,1.024504472E1
9.391797083E0,6.174335209E0,8.230236697E0,-2.910235244E-1,1.029290562E1
9.401788083E0,6.336514751E0,8.182857878E0,-1.568620849E-1,1.035061293E1
9.411779083E0,6.527156786E0,8.126255661E0,-4.564453483E-2,1.042314205E1
9.421770083E0,6.650291546E0,8.064324292E0,-3.643743597E-2,1.045280018E1
9.431761083E0,6.741723288E0,8.028902444E0,-6.009888846E-2,1.048416517E1
9.441752083E0,6.863207379E0,7.997771283E0,-1.244948226E-1,1.053961384E1
9.451743083E0,7.158064923E0,7.926984891E0,-1.668198931E-1,1.068189177E1
9.461734083E0,7.313533031E0,7.825181358E0,-3.346911887E-1,1.071602757E1
9.471725083E0,7.256146703E0,7.764378501E0,-6.159289592E-1,1.064502734E1
9.481716083E0,7.214930264E0,7.678941325E0,-8.967746007E-1,1.057476067E1
9.491708083E0,7.270931388E0,7.584009440E0,-1.205804626E0,1.057533012E1
9.501699083E0,7.445266122E0,7.472392525E0,-1.504936484E0,1.065520866E1
9.511690083E0,7.579822834E0,7.405321453E0,-1.823845380E0,1.075262349E1
9.521681083E0,7.532602474E0,7.351698393E0,-2.158802690E0,1.074467302E1
9.531672083E0,7.417142184E0,7.303303328E0,-2.378737667E0,1.067757606E1
9.541663083E0,7.306308796E0,7.292317579E0,-2.589820690E0,1.064270713E1
9.551654083E0,7.157630475E0,7.351836387E0,-2.839392718E0,1.064628213E1
9.561645083E0,6.887103780E0,7.622306364E0,-3.175119960E0,1.075235507E1
9.571636083E0,6.596262104E0,7.944443507E0,-3.604421364E0,1.093694243E1
9.581627083E0,6.250440229E0,8.001760839E0,-3.922989075E0,1.088512852E1
9.591622875E0,5.886054613E0,8.132906869E0,-3.908743503E0,1.077349009E1
9.601613875E0,5.579588007E0,8.242715240E0,-3.770737520E0,1.064390052E1
9.611604875E0,5.411240237E0,8.339163893E0,-3.534645370E0,1.055068212E1
9.621595875E0,5.272498673E0,8.546368166E0,-3.272437509E0,1.056165225E1
9.631586875E0,5.142746619E0,8.710274976E0,-3.036096561E0,1.056099499E1
9.641577875E0,4.949162850E0,8.764965738E0,-2.822314171E0,1.045391288E1
9.651568875E0,4.788162399E0,8.755098562E0,-2.584341264E0,1.030810699E1
9.661559875E0,4.654590066E0,8.792540038E0,-2.318216938E0,1.021509172E1
9.671550875E0,4.504517476E0,8.856177624E0,-2.062258143E0,1.014768291E1
9.681542875E0,4.328537919E0,8.856257147E0,-1.902239731E0,1.003932504E1
9.691533875E0,4.143651299E0,8.798915257E0,-1.818169634E0,9.894265845E0
9.701524875E0,4.005201219E0,8.773804974E0,-1.751382737E0,9.802480911E0
9.711515875E0,3.925648389E0,8.725147369E0,-1.659722954E0,9.710488771E0
9.721506875E0,3.868060039E0,8.561261609E0,-1.550458374E0,9.521607530E0
9.731497875E0,3.704053241E0,8.268231905E0,-9.118319120E-1,9.105773261E0
9.741488875E0,3.762630355E0,7.963584952E0,-6.310432807E-1,8.830305097E0
9.751479875E0,5.235722610E-1,-5.817762643E0,-1.107655164E0,5.945367107E0
9.761470875E0,-4.091538165E1,-6.640659428E1,2.229615834E0,7.803124634E1
9.771462875E0,-5.091361989E1,-6.679625273E1,1.114977252E1,8.472457434E1
9.781453875E0,-6.403256040E0,-2.355601813E1,8.438332086E0,2.582814602E1
9.791444875E0,1.185024206E0,3.331626534E-1,8.581409944E0,8.669248892E0
9.801435875E0,5.269998989E-1,-9.951849943E-1,7.560104853E0,7.643514078E0
9.811426875E0,-4.498664120E0,-5.457787582E0,4.880633483E0,8.593369965E0
9.821417875E0,-8.890758643E0,-9.511595535E0,1.600268465E0,1.311780843E1
9.831408875E0,-8.319177525E0,-7.711605626E0,-1.802307161E0,1.148589949E1
9.841399875E0,-5.938960805E0,1.715456128E-2,-1.444289163E0,6.112079917E0
9.851390875E0,-5.250526591E0,3.743902600E0,-1.332661139E0,6.584893460E0
9.861382875E0,-5.085563774E0,3.947648245E0,-2.474264506E0,6.897018951E0
9.871373875E0,-5.243469002E0,4.869604465E0,-3.265854714E0,7.865927906E0
9.881364875E0,-5.217793293E0,5.971944948E0,-3.342490076E0,8.605912690E0
9.891355875E0,-4.516185594E0,7.020347791E0,-3.504174360E0,9.053201278E0
9.901346875E0,-3.177057143E0,7.668744950E0,-3.955180044E0,9.194932864E0
9.911337875E0,-1.545247774E0,8.009333568E0,-4.074198364E0,9.117911339E0
9.921328875E0,1.729936758E-1,8.240733619E0,-4.074916987E0,9.194811898E0
9.931319875E0,1.726023801E0,7.977520037E0,-3.845344191E0,9.022563718E0
9.941310875E0,2.649081636E0,7.569505422E0,-3.242023802E0,8.650188678E0
9.951301875E0,3.125481777E0,7.235869144E0,-2.582170193E0,8.294217354E0
9.961293875E0,3.324773598E0,6.927605104E0,-2.003575341E0,7.941041877E0
9.971284875E0,3.452216586E0,6.596931610E0,-1.732756724E0,7.644589714E0
9.981275875E0,3.599195415E0,6.103477480E0,-1.532842906E0,7.249569115E0
9.991266875E0,3.747217972E0,5.769633626E0,-1.174955959E0,6.979314881E0
1.000125787E1,3.876602821E0,5.580724706E0,-8.971769623E-1,6.854010809E0
1.001124887E1,4.289829644E0,5.324411423E0,-6.725490832E-1,6.870539837E0
1.002123988E1,4.695394276E0,5.132137431E0,-3.817675605E-1,6.966441594E0
1.003123087E1,4.958351165E0,5.084499580E0,-2.674089593E-1,7.106960659E0
1.004122287E1,5.116562787E0,4.903648708E0,-3.212029047E-1,7.094234047E0
1.005121387E1,5.084206050E0,4.634945760E0,-4.713148908E-1,6.895941639E0
1.006120488E1,5.038599522E0,4.614875193E0,-5.767564881E-1,6.856909379E0
1.007119587E1,5.075567374E0,4.791459351E0,-6.830179381E-1,7.013271732E0
1.008118687E1,4.681436387E0,4.752226288E0,-8.148141789E-1,6.720373761E0
1.009117787E1,3.860239972E0,4.543634471E0,-9.172819555E-1,6.032203001E0
1.010116888E1,3.271510433E0,4.121162615E0,-9.641626648E-1,5.349427209E0
1.011115987E1,2.641340800E0,3.492408593E0,-9.643163004E-1,4.483693224E0
1.012115087E1,2.133209573E0,2.826970308E0,-9.396628312E-1,3.664056556E0
1.013114187E1,1.741865370E0,2.288237679E0,-8.794821183E-1,3.007260454E0
1.014113388E1,1.415944201E0,1.824296785E0,-7.352775011E-1,2.423548997E0
1.015112487E1,9.484534621E-1,1.039533201E0,-5.716992678E-1,1.518892129E0
1.016111587E1,1.531882793E-1,-2.453637868E-1,-4.900177217E-1,5.690232019E-1
1.017110687E1,-1.176159242E0,-2.369174838E0,-4.630176187E-1,2.685279369E0
1.018109787E1,-3.296824492E0,-5.666941316E0,-4.747997947E-1,6.573333283E0
1.019108887E1,-6.672171242E0,-1.085207674E1,-3.205309135E-1,1.274316204E1
1.020107987E1,-1.126315237E1,-1.776571343E1,-2.980314124E-1,2.103730015E1
1.021107088E1,-1.568409413E1,-2.401266696E1,-4.246171993E-1,2.868412947E1
1.022106287E1,-1.617461004E1,-2.403354386E1,2.788607311E-1,2.897079571E1
1.023105387E1,-1.236236577E1,-1.814179932E1,1.679154274E0,2.201755048E1
1.024104487E1,-1.114024390E1,-1.609444939E1,2.214470376E0,1.969873636E1
1.025103588E1,-1.242127179E1,-1.636202499E1,1.704313674E0,2.061330977E1
1.026102687E1,-1.328949560E1,-1.605883634E1,9.493726444E-1,2.086619817E1
1.027101787E1,-1.427089462E1,-1.658155052E1,5.661344361E-1,2.188439533E1
1.028100887E1,-1.458627472E1,-1.701684766E1,6.435451394E-1,2.242201295E1
1.029099988E1,-1.345263058E1,-1.668718866E1,9.819533300E-1,2.145692818E1
1.030099087E1,-1.145033929E1,-1.524924606E1,1.339521677E0,1.911659210E1
1.031098287E1,-9.402468950E0,-1.303671345E1,1.402570449E0,1.613473036E1
1.032097387E1,-7.439486734E0,-1.048788759E1,1.297005987E0,1.292377551E1
1.033096488E1,-5.213465184E0,-7.834479600E0,1.213483774E0,9.488510563E0
1.034095587E1,-2.776022349E0,-5.079556344E0,9.725059837E-1,5.869749622E0
1.035094687E1,-5.410329241E-1,-2.401492984E0,6.333715689E-1,2.541858517E0
1.036093788E1,1.271025639E0,1.673426342E-1,3.797813344E-1,1.337065291E0
1.037092887E1,2.670459056E0,2.445109119E0,1.712906377E-1,3.624810431E0
1.038091987E1,3.748856362E0,4.227181406E0,-6.737750251E-2,5.650444795E0
1.039091087E1,4.702899762E0,5.612607234E0,-2.860873049E-1,7.328060595E0
1.040090288E1,5.497728742E0,6.656490179E0,-5.056899407E-1,8.648098354E0
1.041089387E1,6.052849948E0,7.340424376E0,-6.889529351E-1,9.539050197E0
1.042088487E1,6.379607561E0,7.773384967E0,-8.649775151E-1,1.009322013E1
1.043087587E1,6.564522833E0,7.892264709E0,-1.077840650E0,1.032194472E1
1.044086688E1,6.815773011E0,7.825539792E0,-1.327459456E0,1.046212136E1
1.045085787E1,7.146789152E0,7.718020606E0,-1.605295755E0,1.064055505E1
1.046084887E1,7.593092505E0,7.614614351E0,-1.913528219E0,1.092240796E1
1.047083988E1,8.191083741E0,7.478765990E0,-2.143579903E0,1.129693447E1
1.048083087E1,8.654713563E0,7.316378871E0,-1.883414036E0,1.148828599E1
1.049082287E1,8.832517451E0,7.211244764E0,-1.603879559E0,1.151467955E1
1.050081387E1,8.710764973E0,7.241588890E0,-1.444751093E0,1.141951583E1
1.051080488E1,8.482910673E0,7.404411042E0,-1.378153792E0,1.134391397E1
1.052079587E1,8.120829445E0,7.582856369E0,-1.431801411E0,1.120257278E1
1.053078687E1,7.708163955E0,7.723109438E0,-1.548242279E0,1.102085591E1
1.054077787E1,7.362083048E0,7.842257566E0,-1.694369899E0,1.088908444E1
1.055076888E1,6.998480374E0,7.983495306E0,-1.776454428E0,1.076432604E1
1.056075987E1,6.598596897E0,8.152630112E0,-1.900209578E0,1.065915828E1
1.057075087E1,6.198097708E0,8.292858038E0,-2.065284516E0,1.055714496E1
1.058074287E1,5.897059658E0,8.435500864E0,-2.172123671E0,1.051908307E1
1.059073388E1,5.699816701E0,8.527920200E0,-2.266558542E0,1.050479038E1
1.060072100E1,5.530805272E0,8.613027593E0,-2.300591822E0,1.049127133E1
1.061071200E1,5.342589832E0,8.729742111E0,-2.325114606E0,1.049560962E1
1.062070300E1,5.093553409E0,8.758833178E0,-2.306389775E0,1.039138483E1
1.063069400E1,4.820048435E0,8.755382736E0,-2.274590424E0,1.025004173E1
1.064068500E1,4.632313636E0,8.800475879E0,-2.231939517E0,1.019255902E1
1.065067600E1,4.479456017E0,8.843817780E0,-2.161444608E0,1.014645169E1
1.066066700E1,4.391351341E0,8.930226179E0,-2.103047150E0,1.017131818E1
1.067065800E1,4.247756296E0,9.030691869E0,-2.057750524E0,1.018975792E1
1.068065000E1,4.111693927E0,9.117372163E0,-2.013801097E0,1.020234762E1
1.069064100E1,3.986583977E0,9.201774967E0,-2.009199193E0,1.022753126E1
1.070063200E1,3.886640151E0,9.244592957E0,-2.030316119E0,1.023184510E1
1.071062300E1,3.802528831E0,9.285380210E0,-2.035235821E0,1.023814905E1
1.072061400E1,3.717538967E0,9.366486354E0,-2.003397585E0,1.027447149E1
1.073060500E1,3.669601154E0,9.509157246E0,-1.940039057E0,1.037563471E1
1.074059600E1,3.693152277E0,9.936622624E0,-1.866593204E0,1.076382892E1
1.075058700E1,3.742626446E0,1.056466855E1,-1.822183601E0,1.135516743E1
1.076057800E1,3.636483694E0,1.078706740E1,-1.814866103E0,1.152729698E1
1.077057000E1,3.390838364E0,1.054584753E1,-1.831610629E0,1.122797767E1
1.078056100E1,3.023741687E0,9.833007624E0,-1.814379323E0,1.044619668E1
1.079055200E1,2.721232184E0,9.182553415E0,-1.787548935E0,9.742675352E0
1.080054300E1,2.614604406E0,9.025385520E0,-1.711330333E0,9.551041383E0
1.081053400E1,2.658112661E0,8.854949709E0,-1.570925821E0,9.377819853E0
1.082052500E1,2.997184803E0,8.471392828E0,-8.220109320E-1,9.023486862E0
1.083051600E1,3.144584338E0,8.021013966E0,-5.354482484E-1,8.632020651E0
1.084050700E1,-5.407405633E0,-2.835141558E1,1.478224064E0,2.890031051E1
1.085049900E1,-3.034347542E1,-7.124455244E1,9.114721620E0,7.797173144E1
1.086049000E1,-7.663070812E0,-4.300711312E1,7.185670213E0,4.427152911E1
1.087048100E1,8.805436072E-1,1.009350459E0,7.182378230E0,7.306209854E0
1.088047200E1,-7.729229718E-2,4.575832749E0,7.970325623E0,9.190773089E0
1.089046300E1,-1.099682339E0,-7.775019264E-1,6.523070751E0,6.660650308E0
1.090045400E1,-4.988881817E0,-1.024696710E1,3.642009313E0,1.196467753E1
1.091044500E1,-7.845940143E0,-1.546146724E1,1.339830995E-1,1.733879170E1
1.092043600E1,-6.026501809E0,-8.987390898E0,-1.669981163E0,1.094900709E1
1.093042700E1,-4.077230145E0,-2.374306355E0,-2.671845431E0,5.422166941E0
1.094041900E1,-4.416574768E0,-7.680610120E-1,-3.785106175E0,5.867118471E0
1.095041000E1,-5.219665571E0,2.440382230E-1,-4.357131096E0,6.803606009E0
1.096040100E1,-5.038363295E0,2.249688156E0,-3.900441334E0,6.757192027E0
1.097039200E1,-3.694571981E0,4.966561825E0,-3.964208729E0,7.350615575E0
1.098038300E1,-2.516595716E0,6.989404911E0,-4.794701925E0,8.841617587E0
1.099037400E1,-1.384691418E0,8.049907397E0,-5.047842801E0,9.602036053E0
1.100036500E1,-8.417066932E-3,8.674377165E0,-5.049400499E0,1.003699833E1
1.101035600E1,1.452391942E0,8.946505412E0,-4.401075845E0,1.007565730E1
1.102034700E1,2.407217700E0,8.865250749E0,-3.091251007E0,9.692430071E0
1.103033900E1,2.682790542E0,8.668484926E0,-2.203013488E0,9.337733367E0
1.104033000E1,2.834233135E0,8.339503616E0,-1.736172959E0,8.977443655E0
1.105032100E1,2.849085063E0,7.958120729E0,-1.485951744E0,8.582367029E0
1.106031200E1,2.761798412E0,7.520623283E0,-1.283866124E0,8.113915039E0
1.107030300E1,2.630860250E0,7.019809263E0,-1.156994555E0,7.585366447E0
1.108029400E1,2.536391465E0,6.570074764E0,-1.019725247E0,7.116108743E0
1.109028500E1,2.572026443E0,6.297465876E0,-9.224264820E-1,6.864711727E0
1.110027600E1,2.686309396E0,6.170108841E0,-8.886072830E-1,6.787939613E0
1.111026700E1,2.711054228E0,6.044261557E0,-8.781548003E-1,6.682369988E0
1.112025800E1,2.771240496E0,5.985982944E0,-8.577356654E-1,6.651877642E0
1.113025000E1,2.969987356E0,6.079390460E0,-8.181182943E-1,6.815359917E0
1.114024100E1,3.123617100E0,6.218619681E0,-8.287411503E-1,7.008211357E0
1.115023200E1,3.134094433E0,6.220651004E0,-8.531591228E-1,7.017615501E0
1.116022300E1,3.015728662E0,5.996830114E0,-8.398461822E-1,6.764756639E0
1.117021400E1,2.837729478E0,5.573172442E0,-7.402254881E-1,6.297689531E0
1.118020500E1,2.545813668E0,5.133165371E0,-5.260523576E-1,5.753893034E0
1.119019600E1,1.983818768E0,4.599299964E0,-2.627446353E-1,5.015788254E0
1.120018700E1,1.139189344E0,3.540815937E0,-8.040805914E-2,3.720429453E0
1.121017800E1,-3.959792912E-2,1.718481477E0,-1.254666299E-1,1.723510505E0
1.122017000E1,-1.534515209E0,-1.683699315E0,1.134446814E-1,2.280887987E0
1.123016100E1,-3.700254305E0,-6.939907646E0,3.689950488E-1,7.873395544E0
1.124015200E1,-6.143946644E0,-1.349098831E1,5.160904562E-1,1.483311145E1
1.125014300E1,-7.790568180E0,-1.825528910E1,5.325106072E-1,1.985527890E1
1.126013400E1,-7.842636466E0,-1.941355820E1,8.200281411E-1,2.095389308E1
1.127012500E1,-6.992907393E0,-1.886462394E1,1.269156868E0,2.015900665E1
1.128011600E1,-6.979565216E0,-1.982143424E1,1.539962475E0,2.107071594E1
1.129010700E1,-7.985503825E0,-2.198840534E1,1.969843923E0,2.347633971E1
1.130009900E1,-8.966990547E0,-2.337001586E1,2.723062363E0,2.517895211E1
1.131009000E1,-9.038059945E0,-2.336127779E1,2.939356717E0,2.522054015E1
1.132008100E1,-8.221455349E0,-2.187401276E1,2.742111422E0,2.352836452E1
1.133007200E1,-7.536051162E0,-2.010847406E1,2.356665890E0,2.160316343E1
1.134006300E1,-6.934651583E0,-1.838214094E1,1.908050548E0,1.973912751E1
1.135005400E1,-6.254284773E0,-1.640815836E1,1.533242855E0,1.762653035E1
1.136004500E1,-5.718522529E0,-1.419246474E1,1.331546659E0,1.535905505E1
1.137003600E1,-5.273027846E0,-1.194103061E1,1.353899395E0,1.312349337E1
1.138002700E1,-4.733608169E0,-9.533146618E0,1.374825411E0,1.073210490E1
1.139001800E1,-3.798205985E0,-6.844411504E0,1.263644114E0,7.929005864E0
1.140001000E1,-2.507779577E0,-3.968146244E0,9.307158604E-1,4.785538113E0
1.141000100E1,-1.209000714E0,-1.189757527E0,4.443064555E-1,1.753457706E0
1.141999200E1,-4.470254838E-2,1.166673889E0,-1.524708990E-1,1.177443696E0
1.142998300E1,8.935232565E-1,3.074356647E0,-6.330161313E-1,3.263550525E0
1.143997400E1,1.826436574E0,4.831903957E0,-9.110956013E-1,5.245308533E0
1.144996500E1,2.722970269E0,6.470042353E0,-1.140293591E0,7.111700542E0
1.145995600E1,3.432141926E0,7.730604399E0,-1.261983504E0,8.551867921E0
1.146994700E1,3.936750205E0,8.471243139E0,-1.323973346E0,9.434663105E0
1.147993800E1,4.286269859E0,8.868204178E0,-1.236135303E0,9.926992753E0
1.148993000E1,4.512462965E0,9.001599047E0,-1.083481459E0,1.012743993E1
1.149992100E1,4.651560039E0,8.954236600E0,-1.124892171E0,1.015286887E1
1.150991200E1,4.762557441E0,8.918260437E0,-1.209743383E0,1.018237701E1
1.151990300E1,4.864743090E0,8.885813652E0,-1.237972352E0,1.020568396E1
1.152989400E1,4.975138521E0,8.873719856E0,-1.268518353E0,1.025202644E1
1.153988500E1,5.084100800E0,8.871887339E0,-1.188132001E0,1.029417911E1
1.154987600E1,5.168123535E0,8.871897279E0,-1.117440333E0,1.032805573E1
1.155986700E1,5.281102851E0,8.873577769E0,-1.103947299E0,1.038504354E1
1.156985800E1,5.412732446E0,8.852983291E0,-1.128991508E0,1.043779706E1
1.157985000E1,5.555047243E0,8.828810901E0,-1.248000473E0,1.050542512E1
1.158984100E1,5.660680702E0,8.736549439E0,-1.532112150E0,1.052226068E1
1.159983550E1,5.665754916E0,8.563995767E0,-1.930345981E0,1.044839882E1
1.160982650E1,5.674275479E0,8.397905606E0,-2.271798232E0,1.038668802E1
1.161981750E1,5.827309976E0,8.216046674E0,-2.861460695E0,1.047133811E1
1.162980850E1,6.054996461E0,8.024728117E0,-4.263374501E0,1.091950574E1
1.163979950E1,6.411378992E0,7.878563513E0,-5.283356953E0,1.144951546E1
1.164979050E1,6.700833709E0,7.768663926E0,-4.851205616E0,1.134845838E1
1.165978150E1,6.777465563E0,7.727586651E0,-3.458507313E0,1.084485628E1
1.166977250E1,6.798350063E0,7.725776938E0,-2.327867329E0,1.055102645E1
1.167976450E1,6.735857361E0,7.791310192E0,-1.879565398E0,1.046943432E1
1.168975550E1,6.496246650E0,7.908187262E0,-1.875863087E0,1.040478297E1
1.169974650E1,6.164204907E0,8.134165190E0,-1.886529432E0,1.037887560E1
1.170973750E1,5.780220010E0,8.355544868E0,-1.955298682E0,1.034646154E1
1.171972850E1,5.418691344E0,8.492357435E0,-2.056649494E0,1.028164179E1
1.172971950E1,5.166812589E0,8.643169405E0,-2.168463606E0,1.030060989E1
1.173971050E1,4.974182501E0,8.792454668E0,-2.251765087E0,1.034988873E1
1.174970150E1,4.830599443E0,8.943447318E0,-2.272305917E0,1.041553240E1
1.175969250E1,4.758746518E0,9.111075296E0,-2.206442880E0,1.051312283E1
1.176968350E1,4.651869649E0,9.216410547E0,-2.162790345E0,1.054797500E1
1.177967550E1,4.522356161E0,9.282499872E0,-2.038865187E0,1.052489812E1
1.178966650E1,4.401092802E0,9.300350252E0,-1.891632882E0,1.046156812E1
1.179965750E1,4.296267136E0,9.310755372E0,-1.727141350E0,1.039861020E1
1.180964850E1,4.108910652E0,9.351843756E0,-1.481110250E0,1.032152198E1
1.181963950E1,3.910878322E0,9.319980524E0,-1.238904690E0,1.018292154E1
1.182963050E1,3.727237159E0,9.153057720E0,-1.157243646E0,9.950375637E0
1.183962150E1,3.518165870E0,9.005038964E0,-1.211313872E0,9.743484958E0
1.184961250E1,3.342442422E0,9.014747681E0,-1.253750625E0,9.695848994E0
1.185960350E1,3.236978532E0,8.899963329E0,-1.177552049E0,9.543270200E0
1.186959550E1,3.667804012E0,8.309078214E0,-3.664543605E-1,9.089986570E0
1.187958650E1,4.413870138E0,7.225716623E0,6.851719062E-1,8.494862615E0
1.188957750E1,3.300906725E0,5.098091433E0,7.357667669E-1,6.117832476E0
1.189956850E1,-2.082204019E1,-5.332861351E1,4.094567140E0,5.739567803E1
1.190955950E1,-4.244052728E1,-7.045540754E1,8.941564515E0,8.273520643E1
1.191955050E1,-4.328873549E0,-3.262817202E1,5.939567746E0,3.344570557E1
1.192954150E1,2.538752278E0,6.991621006E-1,6.106432078E0,6.650007782E0
1.193953250E1,1.782127835E0,2.766785502E-2,4.751793594E0,5.075065270E0
1.194952350E1,-2.901977806E0,-8.592272902E0,2.492047058E0,9.405260621E0
1.195951450E1,-8.111035359E0,-1.483845811E1,3.812255967E-1,1.691490664E1
1.196950650E1,-6.624095435E0,-1.220678773E1,-1.817059686E0,1.400664174E1
1.197949750E1,-3.126057143E0,-6.053797781E0,-2.470367922E0,7.247304224E0
1.198948850E1,-1.976604474E0,-1.298923874E-1,-2.069498019E0,2.864726746E0
1.199947950E1,-2.364495311E0,3.250280070E0,-1.785382980E0,4.398039449E0
1.200947050E1,-2.741386952E0,4.769266829E0,-1.925355383E0,5.828216010E0
1.201946150E1,-2.839438326E0,5.897445574E0,-2.793278067E0,7.116507336E0
1.202945250E1,-2.422835906E0,7.061863607E0,-4.385384842E0,8.658617190E0
1.203944350E1,-1.392951779E0,7.804289256E0,-5.022907934E0,9.384926722E0
1.204943450E1,2.977530849E-1,8.160561860E0,-4.600744227E0,9.372847711E0
1.205942550E1,1.731241271E0,8.291415530E0,-3.186808544E0,9.049890415E0
1.206941750E1,2.563412325E0,8.387943705E0,-1.556294918E0,8.907903020E0
1.207940850E1,2.899023793E0,8.410164878E0,-6.903538549E-1,8.922544518E0
1.208939950E1,3.005528487E0,8.188889281E0,-2.395242456E-1,8.726309702E0
1.209939050E1,2.955906091E0,7.887948879E0,9.229482729E-2,8.424110438E0
1.210938150E1,2.852653618E0,7.619360536E0,2.903130512E-1,8.141042275E0
1.211937250E1,2.872335931E0,7.334806371E0,3.747480512E-1,7.886072172E0
1.212936350E1,3.007286745E0,7.038620340E0,3.402740371E-1,7.661705834E0
1.213935450E1,3.120792310E0,6.748460450E0,2.283688545E-1,7.438629942E0
1.214934550E1,3.258619369E0,6.601002442E0,1.367967796E-1,7.362781186E0
1.215933650E1,3.451395637E0,6.634912199E0,6.335337561E-2,7.479184808E0
1.216932850E1,3.623589122E0,6.713622154E0,1.571695022E-3,7.629097130E0
1.217931950E1,3.811868881E0,6.837234632E0,-2.462839924E-2,7.828073092E0
1.218931050E1,4.046358601E0,7.044780382E0,-5.858910084E-2,8.124369590E0
1.219930150E1,4.227471428E0,7.224115655E0,-1.183312726E-1,8.370983453E0
1.220929250E1,4.247247296E0,7.284158959E0,-1.645535854E-1,8.433573336E0
1.221928350E1,4.155567048E0,7.173230261E0,-2.705775654E-1,8.294406675E0
1.222927450E1,4.140294120E0,6.997975175E0,-2.919450456E-1,8.136272111E0
1.223926550E1,4.031962171E0,6.666166152E0,-2.667312670E-1,7.795231599E0
1.224925650E1,3.641474000E0,5.830321877E0,-2.503128701E-1,6.878636683E0
1.225924750E1,2.851135681E0,4.681223549E0,-1.780312713E-1,5.484024409E0
1.226923950E1,1.963900813E0,3.228555910E0,-1.213326484E-1,3.780899533E0
1.227923050E1,9.747986770E-1,1.457277583E0,-6.008131027E-2,1.754280531E0
1.228922150E1,7.431811094E-3,-7.991933423E-1,5.725893237E-2,8.012763665E-1
1.229921250E1,-1.370981451E0,-3.689193712E0,2.620939133E-1,3.944418031E0
1.230920350E1,-3.817551790E0,-7.644840363E0,4.650980214E-1,8.557663350E0
1.231919450E1,-7.095748222E0,-1.211693941E1,5.337273397E-1,1.405185854E1
1.232918550E1,-1.026091856E1,-1.661459430E1,6.902328175E-1,1.953989803E1
1.233917650E1,-1.258834896E1,-1.968944153E1,9.638643837E-1,2.338952056E1
1.234916750E1,-1.339141608E1,-2.052867135E1,1.083048180E0,2.453424882E1
1.235915850E1,-1.257160370E1,-1.983104472E1,1.198776857E0,2.351069162E1
1.236915050E1,-1.049168711E1,-1.762942068E1,1.628522649E0,2.057970014E1
1.237914150E1,-9.404956355E0,-1.545388458E1,1.649818794E0,1.816583757E1
1.238913250E1,-1.051670033E1,-1.542758965E1,1.347948099E0,1.871973483E1
1.239912350E1,-1.226686904E1,-1.603262561E1,8.655107081E-1,2.020569892E1
1.240911450E1,-1.312169221E1,-1.621921143E1,5.222382188E-1,2.086898077E1
1.241910550E1,-1.303428686E1,-1.611130106E1,2.428594974E-1,2.072500028E1
1.242909650E1,-1.210803995E1,-1.518511380E1,1.613907168E-1,1.942211007E1
1.243908750E1,-1.066093360E1,-1.337473631E1,2.021849497E-1,1.710496873E1
1.244907850E1,-9.554720505E0,-1.165397325E1,1.921851877E-1,1.507132083E1
1.245906950E1,-8.656689922E0,-1.018786462E1,1.129495684E-1,1.336950349E1
1.246906150E1,-7.394963695E0,-8.740190501E0,9.218062386E-3,1.144886470E1
1.247905250E1,-5.753564308E0,-7.001618575E0,2.444311559E-2,9.062381717E0
1.248904350E1,-4.178968774E0,-4.974522225E0,6.665533483E-2,6.497237437E0
1.249903450E1,-2.435297492E0,-2.730634507E0,1.432883584E-1,3.661634913E0
1.250902550E1,-5.030903417E-1,-2.354334605E-1,2.623511177E-1,6.142938346E-1
1.251901650E1,1.456808637E0,2.126371547E0,1.112830389E-1,2.579947921E0
1.252900750E1,3.159520758E0,3.998476921E0,-1.930411470E-1,5.099769995E0
1.253899850E1,4.580914564E0,5.441321238E0,-4.637011582E-1,7.127957198E0
1.254898950E1,5.672382150E0,6.444870089E0,-8.237322792E-1,8.625010411E0
1.255898050E1,6.339329601E0,7.041752109E0,-1.074319895E0,9.535593101E0
1.256897250E1,6.739431764E0,7.327737672E0,-1.165703251E0,1.002369912E1
1.257896350E1,6.896479790E0,7.336458794E0,-1.237201835E0,1.014473901E1
1.258895450E1,7.087144044E0,7.198224185E0,-1.254011410E0,1.017912505E1
1.259894196E1,7.292097139E0,7.079054421E0,-1.299640158E0,1.024581655E1
1.260893296E1,7.471297926E0,7.009116459E0,-1.388522075E0,1.033808492E1
1.261892396E1,7.675933517E0,6.943035906E0,-1.420596830E0,1.044719093E1
1.262891496E1,7.913326380E0,6.837490155E0,-1.440615212E0,1.055686403E1
1.263890596E1,8.132178891E0,6.754966646E0,-1.492066178E0,1.067652422E1
1.264889696E1,8.492524080E0,6.575110386E0,-1.522427991E0,1.084771076E1
1.265888796E1,8.778921872E0,6.444588838E0,-1.517092845E0,1.099562482E1
1.266887896E1,8.781693453E0,6.435244988E0,-1.467893350E0,1.098568290E1
1.267887096E1,8.723565697E0,6.424339346E0,-1.420311486E0,1.092657399E1
1.268886196E1,8.875414379E0,6.405667432E0,-1.500217927E0,1.104790521E1
1.269885296E1,8.841119875E0,6.556903911E0,-1.593369774E0,1.112192505E1
1.270884396E1,8.490483987E0,6.666487749E0,-1.806427694E0,1.094502436E1
1.271883496E1,8.103353287E0,6.832905938E0,-2.097689931E0,1.080524137E1
1.272882596E1,7.688055965E0,6.989653417E0,-2.377373511E0,1.065895700E1
1.273881696E1,7.423091142E0,7.103371822E0,-2.673612460E0,1.061642016E1
1.274880796E1,7.294923683E0,7.296042255E0,-2.904940298E0,1.071852706E1
1.275879896E1,7.197499714E0,7.353957172E0,-3.189881549E0,1.077311619E1
1.276878996E1,7.200330936E0,7.564925882E0,-3.422243467E0,1.099020562E1
1.277878096E1,7.155479869E0,7.766157224E0,-3.462283445E0,1.111312273E1
1.278877296E1,6.939469104E0,7.688003924E0,-3.534274364E0,1.094315910E1
1.279876396E1,6.770436625E0,7.801662102E0,-3.447387371E0,1.088986792E1
1.280875496E1,6.635370621E0,7.832607906E0,-3.352613653E0,1.079897718E1
1.281874596E1,6.458889958E0,7.876884778E0,-3.279520242E0,1.070130022E1
1.282873696E1,6.258424017E0,8.161835968E0,-3.223034384E0,1.077828317E1
1.283872796E1,5.978132472E0,8.466894565E0,-3.100867923E0,1.081858370E1
1.284871896E1,5.720793588E0,8.787462316E0,-3.019722311E0,1.091172287E1
1.285870996E1,5.532078211E0,8.642933178E0,-2.928449613E0,1.067145728E1
1.286870096E1,5.354968972E0,8.483650931E0,-2.805049974E0,1.041711722E1
1.287869196E1,5.032177525E0,8.709144709E0,-2.718766413E0,1.041939072E1
1.288868296E1,4.821085146E0,8.677484375E0,-2.654472769E0,1.027559355E1
1.289867496E1,4.617277229E0,8.700810088E0,-2.604417095E0,1.018853933E1
1.290866596E1,4.350105667E0,8.757354417E0,-2.506709536E0,1.009446722E1
1.291865696E1,3.998860206E0,8.739035676E0,-2.406740860E0,9.907271524E0
1.292864796E1,3.619169796E0,8.707579994E0,-2.332115478E0,9.713861332E0
1.293863896E1,3.353476118E0,8.723194984E0,-2.207507658E0,9.602761210E0
1.294862996E1,3.743063233E0,8.125380918E0,-2.540536848E0,9.299820692E0
1.295862096E1,4.287564725E0,7.360525934E0,-2.264221556E0,8.814037245E0
1.296861196E1,4.077653484E0,6.484473281E0,1.147065836E0,7.745412300E0
1.297860296E1,3.620758192E0,6.155034134E0,9.348855829E-1,7.201968213E0
1.298859396E1,-3.116160731E0,-2.855333631E1,1.770997660E0,2.877742005E1
1.299858496E1,-4.199117578E1,-7.109815219E1,4.259552761E0,8.268222226E1
1.300857596E1,-2.006103677E1,-5.644318205E1,3.981542215E0,6.003441242E1
1.301856796E1,8.613743877E-1,-1.334830222E1,5.501467452E0,1.446323899E1
1.302855896E1,5.793316019E-1,-3.096412345E0,5.368101819E0,6.224139430E0
1.303854996E1,-3.862021619E-1,-7.418475350E0,2.680113394E0,7.897210674E0
1.304854096E1,-3.709339416E0,-9.253074929E0,1.432428525E0,1.007126834E1
1.305853196E1,-2.839780973E0,-5.528932993E0,3.996206447E-2,6.215710176E0
1.306852296E1,-1.361737588E0,-2.188231580E0,-6.405181821E-1,2.655739115E0
1.307851396E1,-4.241751498E-1,-5.585985446E-1,-1.053329122E0,1.265487705E0
1.308850496E1,-1.245936406E-1,1.774829341E0,-7.390003502E-1,1.926568006E0
1.309849596E1,-2.880414444E-1,3.948979656E0,-1.033296561E0,4.092078931E0
1.310848696E1,4.695021808E-2,5.290365425E0,-1.071017534E0,5.397893035E0
1.311847896E1,3.938304394E-1,6.094216075E0,-9.994961464E-1,6.188179420E0
1.312846996E1,6.908654863E-1,6.798516709E0,-9.286711621E-1,6.896343574E0
1.313846096E1,1.054297713E0,7.369982636E0,-1.050583270E0,7.518770706E0
1.314845196E1,1.567236228E0,7.891336756E0,-1.362076727E0,8.159943517E0
1.315844296E1,2.070073970E0,8.462380514E0,-1.572860080E0,8.852738505E0
1.316843396E1,2.376609280E0,8.927540553E0,-1.763965799E0,9.405361627E0
1.317842496E1,2.613452212E0,9.227403313E0,-1.842265717E0,9.765707723E0
1.318841596E1,2.710206382E0,9.434180739E0,-1.871411164E0,9.992555458E0
1.319840696E1,2.691417524E0,9.590096744E0,-1.931655173E0,1.014618034E1
1.320839796E1,2.636858324E0,9.624219925E0,-1.999716178E0,1.017730297E1
1.321838896E1,2.493563826E0,9.472361888E0,-2.091992550E0,1.001598388E1
1.322837996E1,2.194912901E0,9.015661016E0,-2.249173747E0,9.547699657E0
1.323837196E1,1.972764899E0,8.302329358E0,-2.423733161E0,8.871017785E0
1.324836296E1,2.144012012E0,7.695652083E0,-2.568793810E0,8.391576141E0
1.325835396E1,2.394894986E0,7.313705524E0,-2.644302707E0,8.137453366E0
1.326834496E1,2.363085840E0,7.096551629E0,-2.577402374E0,7.911271877E0
1.327833596E1,1.977485064E0,6.682182845E0,-2.488711514E0,7.399709437E0
1.328832696E1,1.897869961E0,6.266442304E0,-2.519526633E0,7.015570111E0
1.329831796E1,1.883510661E0,5.900687855E0,-2.509450711E0,6.683043651E0
1.330830896E1,1.940782092E0,5.611029071E0,-2.364212599E0,6.390601190E0
1.331829996E1,1.386918330E0,5.000095607E0,-2.124270058E0,5.606872730E0
1.332829096E1,5.433370194E-1,3.748801982E0,-2.097269224E0,4.329811730E0
1.333828196E1,-7.831716791E-1,1.452254825E0,-1.933733858E0,2.541993035E0
1.334827296E1,-2.986827045E0,-2.335299579E0,-1.678190653E0,4.146213186E0
1.335826496E1,-5.732842945E0,-7.274499359E0,-1.444017853E0,9.373847487E0
1.336825596E1,-8.160004621E0,-1.169284203E1,-1.336141402E0,1.432108599E1
1.337824696E1,-9.789251740E0,-1.479653124E1,-9.508567408E-1,1.776713018E1
1.338823796E1,-1.035866413E1,-1.685931197E1,-4.480780558E-1,1.979239997E1
1.339822896E1,-9.744804715E0,-1.830415896E1,-6.474746145E-2,2.073662573E1
1.340821996E1,-8.123940164E0,-1.857624511E1,4.445690320E-1,2.027986508E1
1.341821096E1,-7.208999434E0,-1.816275808E1,7.844069034E-1,1.955685937E1
1.342820196E1,-7.481220067E0,-1.810218210E1,1.200848526E0,1.962395698E1
1.343819296E1,-8.102944567E0,-1.862656508E1,2.156748417E0,2.042689896E1
1.344818396E1,-8.578229059E0,-1.968635888E1,2.395239387E0,2.160731153E1
1.345817496E1,-8.340909871E0,-1.976825732E1,2.317839793E0,2.158071260E1
1.346816696E1,-7.393110713E0,-1.860497365E1,2.168700126E0,2.013718925E1
1.347815796E1,-6.286469017E0,-1.675235471E1,1.997810571E0,1.800423083E1
1.348814896E1,-5.397825555E0,-1.500815133E1,1.882004710E0,1.605998346E1
1.349813996E1,-4.742041608E0,-1.342438853E1,1.843490270E0,1.435617018E1
1.350813096E1,-4.383235990E0,-1.185971923E1,1.972848222E0,1.279678975E1
1.351812196E1,-4.162307425E0,-9.995425733E0,2.301780415E0,1.106939618E1
1.352811296E1,-3.496464806E0,-7.461095120E0,2.570607909E0,8.631409592E0
1.353810396E1,-2.226396649E0,-4.738271323E0,2.590661520E0,5.841197162E0
1.354809496E1,-8.908051783E-1,-2.179155532E0,2.420933222E0,3.376858061E0
1.355808596E1,5.194426650E-1,1.282645226E-2,1.957004607E0,2.024809184E0
1.356807696E1,1.716236731E0,2.165226295E0,1.464866100E0,3.127220190E0
1.357806796E1,2.727721424E0,4.099222693E0,1.100659994E0,5.045348677E0
1.358805896E1,3.616292966E0,5.671174700E0,7.672459102E-1,6.769672339E0
1.359805087E1,4.333225340E0,6.926237440E0,4.949977952E-1,8.185024724E0
1.360804187E1,4.844660243E0,7.825595341E0,2.795202971E-1,9.208083780E0
1.361803287E1,5.231813162E0,8.387151407E0,8.900865555E-2,9.885550072E0
1.362802388E1,5.517773582E0,8.642929670E0,-7.767850578E-2,1.025436944E1
1.363801487E1,5.635861611E0,8.648883305E0,-1.640980142E-1,1.032439086E1
1.364800587E1,5.667297412E0,8.586725648E0,-1.643172483E-1,1.028966071E1
1.365799687E1,5.699631345E0,8.521732677E0,-1.352572443E-1,1.025300053E1
1.366798788E1,5.722947702E0,8.445028317E0,-8.494425595E-2,1.020185518E1
1.367797887E1,5.746151792E0,8.383383461E0,1.436894774E-2,1.016364035E1
1.368796987E1,5.768729061E0,8.355127376E0,1.452962923E-1,1.015418630E1
1.369796088E1,5.843619615E0,8.362370907E0,3.436782861E-1,1.020760756E1
1.370795187E1,5.948143857E0,8.353237556E0,4.379786718E-1,1.026395725E1
1.371794387E1,5.998783668E0,8.359132719E0,4.888517869E-1,1.030046025E1
1.372793487E1,6.050843183E0,8.374481660E0,4.972922426E-1,1.034369111E1
1.373792588E1,6.079115056E0,8.453842995E0,4.732303655E-1,1.042338948E1
1.374791687E1,6.080968623E0,8.525380170E0,3.455686909E-1,1.047758103E1
1.375790787E1,6.043449964E0,8.594322935E0,1.604364878E-1,1.050768357E1
1.376789887E1,6.013937897E0,8.628299351E0,-8.243422899E-3,1.051736976E1
1.377788988E1,5.968197468E0,8.556133600E0,-1.597903705E-1,1.043323230E1
1.378788087E1,5.974301376E0,8.616559896E0,-3.321703444E-1,1.049036313E1
1.379787187E1,6.075680401E0,8.446617590E0,-6.480772432E-1,1.042493382E1
1.380786288E1,6.182549377E0,8.207776372E0,-1.115638222E0,1.033615782E1
1.381785387E1,6.323373134E0,8.156085232E0,-1.435295561E0,1.041954161E1
1.382784487E1,6.408651851E0,8.092028984E0,-1.551858489E0,1.043839147E1
1.383783587E1,6.528435572E0,7.970109860E0,-1.711526068E0,1.044377536E1
1.384782788E1,6.807821968E0,7.803522686E0,-1.855577635E0,1.052067368E1
1.385781887E1,7.378917766E0,7.556058580E0,-2.008995709E0,1.075074474E1
1.386780987E1,8.004847584E0,7.325737925E0,-2.168746173E0,1.106559899E1
1.387780087E1,8.719719983E0,7.083115312E0,-2.234408358E0,1.145410930E1
1.388779188E1,9.046244293E0,7.088623974E0,-2.228709077E0,1.170684713E1
1.389778287E1,8.824783339E0,7.276808424E0,-2.046607486E0,1.161969638E1
1.390777387E1,8.117652068E0,7.672388350E0,-1.775602489E0,1.130993290E1
1.391776487E1,7.349514458E0,8.058619748E0,-1.540014077E0,1.101491527E1
1.392775588E1,6.832404247E0,8.331326870E0,-1.379045931E0,1.086252838E1
1.393774687E1,6.456338818E0,8.399249881E0,-1.344908717E0,1.067897415E1
1.394773787E1,6.167665874E0,8.287176298E0,-1.325018828E0,1.041504048E1
1.395772888E1,5.800923831E0,8.153375047E0,-1.274366884E0,1.008723217E1
1.396771987E1,5.392556629E0,8.072439643E0,-1.323666952E0,9.797757038E0
1.397771187E1,5.106445935E0,8.105803270E0,-1.273997778E0,9.664517944E0
1.398770287E1,4.965900505E0,8.133958783E0,-1.112206418E0,9.594709815E0
1.399769388E1,5.206601722E0,7.654642636E0,-9.571366505E-1,9.306898836E0
1.400768487E1,6.085362221E0,6.494126449E0,-5.674893091E-1,8.917811156E0
1.401767587E1,6.090291424E0,4.145535564E0,-8.081214559E-1,7.411489394E0
1.402766687E1,-1.245033829E1,-4.221975045E1,-6.074206903E0,4.443438130E1
1.403765788E1,-5.384572723E1,-7.159820608E1,-5.212406838E-1,8.958759483E1
1.404764887E1,-2.507678303E1,-5.256152899E1,7.357616944E0,5.870003325E1
1.405763987E1,1.976678149E0,-5.552205496E0,7.681041645E0,9.681562019E0
1.406763088E1,1.073076631E0,4.260258520E0,5.574634831E0,7.097735527E0
1.407762187E1,-1.249428948E0,2.209756351E0,3.177251855E0,4.066820032E0
1.408761287E1,-5.381964397E0,-1.627160833E0,1.083268036E0,5.725963918E0
1.409760387E1,-7.575062031E0,-3.271949852E0,-9.634691119E-1,8.307556399E0
1.410759588E1,-6.376579873E0,-1.837383438E0,-2.045978179E0,6.944262055E0
1.411758687E1,-5.167407251E0,-1.986928318E0,-2.598865163E0,6.115887669E0
1.412757787E1,-5.529094377E0,-3.475989611E0,-3.165004277E0,7.257454132E0
1.413756887E1,-5.847548359E0,-3.302273512E-1,-2.458355402E0,6.351880288E0
1.414755988E1,-6.416495306E0,4.156378056E0,-2.279127132E0,7.977550441E0
1.415755087E1,-6.761846480E0,6.173972096E0,-2.842200551E0,9.587419008E0
1.416754187E1,-5.894339533E0,6.959903369E0,-3.135590444E0,9.644450262E0
1.417753288E1,-3.941334422E0,7.324363829E0,-3.291721042E0,8.945157905E0
1.418752387E1,-1.319654592E0,7.633388007E0,-3.147737449E0,8.361719426E0
1.419751487E1,2.330945742E-1,7.266434879E0,-2.649614317E0,7.737949661E0
1.420750587E1,9.554882473E-1,6.505407482E0,-1.806099665E0,6.818744775E0
1.421749688E1,1.710925705E0,6.305525678E0,-1.211971757E0,6.644982798E0
1.422748787E1,2.276404669E0,6.295743286E0,-9.578477450E-1,6.762830328E0
1.423747987E1,2.801916744E0,6.258429864E0,-9.558882699E-1,6.923323204E0
1.424747087E1,3.268715172E0,6.266519487E0,-9.243927544E-1,7.127991815E0
1.425746188E1,3.695073672E0,6.315337890E0,-8.571724324E-1,7.366940117E0
1.426745287E1,4.080732628E0,6.404509099E0,-7.207541138E-1,7.628210935E0
1.427744387E1,4.423745500E0,6.525985004E0,-5.563554065E-1,7.903640671E0
1.428743487E1,4.772470518E0,6.701164076E0,-3.851689589E-1,8.235923139E0
1.429742588E1,5.215971301E0,6.867992156E0,-1.585303686E-1,8.625590109E0
1.430741687E1,5.487882031E0,6.954247942E0,9.449042022E-2,8.859308216E0
1.431740787E1,5.586594726E0,7.033543788E0,2.433218660E-1,8.985543076E0
1.432739888E1,5.643841891E0,7.125061483E0,3.389999288E-1,9.095843742E0
1.433738987E1,5.625768147E0,7.154599278E0,4.107692385E-1,9.110778751E0
1.434738087E1,5.486607338E0,7.077224827E0,4.142891892E-1,8.964463557E0
1.435737187E1,5.107853360E0,6.820351381E0,4.159897057E-1,8.531143320E0
1.436736288E1,4.300787326E0,6.153516782E0,4.088221157E-1,7.518621944E0
1.437735387E1,2.934056801E0,4.894559212E0,4.010675383E-1,5.720686528E0
1.438734587E1,1.385512952E0,3.055863658E0,3.504305776E-1,3.373536783E0
1.439733687E1,-5.776183677E-1,3.518281353E-1,3.272593045E-1,7.513485661E-1
1.440732788E1,-3.499286672E0,-4.585573626E0,3.975744116E-1,5.781916473E0
1.441731887E1,-7.755187848E0,-1.212349297E1,6.302667705E-1,1.440552868E1
1.442730987E1,-1.290733445E1,-2.204432110E1,1.069282592E0,2.556745471E1
1.443730088E1,-1.403540151E1,-2.740165235E1,1.706374233E0,3.083431141E1
1.444729187E1,-8.870191646E0,-2.053003959E1,3.379425184E0,2.261820816E1
1.445728287E1,-5.803746867E0,-1.345948001E1,5.413948667E0,1.562536143E1
1.446727387E1,-7.127950593E0,-1.213652525E1,5.972797472E0,1.528977548E1
1.447726488E1,-8.723803679E0,-1.336099652E1,4.543849064E0,1.659118872E1
1.448725587E1,-1.051554726E1,-1.549659030E1,2.456419973E0,1.888796030E1
1.449724687E1,-1.145147716E1,-1.646967457E1,1.063088198E0,2.008772426E1
1.450723787E1,-1.137205326E1,-1.639514830E1,4.601437122E-1,1.995836204E1
1.451722988E1,-1.120101752E1,-1.604489073E1,3.145673382E-1,1.957039255E1
1.452722087E1,-1.085372566E1,-1.542702364E1,5.105654222E-1,1.886947524E1
1.453721187E1,-1.027005893E1,-1.437335654E1,8.118261787E-1,1.768407618E1
1.454720288E1,-9.571291514E0,-1.293159923E1,1.150713768E0,1.612947680E1
1.455719387E1,-8.401577073E0,-1.083342178E1,1.403089097E0,1.378108065E1
1.456718487E1,-6.899515665E0,-8.100217425E0,1.416372217E0,1.073419531E1
1.457717587E1,-5.092496232E0,-5.140719974E0,1.123827174E0,7.322807334E0
1.458716688E1,-3.127573911E0,-2.445900832E0,5.182925177E-1,4.004094977E0
1.459716183E1,-1.457904405E0,-2.719341195E-1,2.525251642E-2,1.483263668E0
1.460715283E1,-8.399408340E-2,1.436201295E0,-4.770901126E-1,1.515699225E0
1.461714383E1,1.131181875E0,2.869417001E0,-8.057990149E-1,3.187857966E0
1.462713483E1,2.220594165E0,4.121806394E0,-8.974205719E-1,4.767146953E0
1.463712583E1,3.345648158E0,5.102900768E0,-9.423443643E-1,6.174218229E0
1.464711683E1,4.415026717E0,5.973366991E0,-1.017016743E0,7.497192620E0
1.465710783E1,5.274913573E0,6.639428004E0,-1.047716234E0,8.544262796E0
1.466709983E1,5.854193720E0,7.052162492E0,-1.077383252E0,9.228506628E0
1.467709083E1,6.215707768E0,7.326464149E0,-1.103725104E0,9.671106921E0
1.468708183E1,6.487223811E0,7.504441114E0,-1.114869313E0,9.982166238E0
1.469707283E1,6.641344137E0,7.530656521E0,-1.070648721E0,1.009774867E1
1.470706383E1,6.784705585E0,7.431867228E0,-1.142405605E0,1.012768339E1
1.471705483E1,6.980440544E0,7.336827754E0,-1.215016329E0,1.019960079E1
1.472704583E1,7.174121377E0,7.271616096E0,-1.257691794E0,1.029204580E1
1.473703683E1,7.380557910E0,7.239298536E0,-1.292688988E0,1.041878703E1
1.474702783E1,7.565014760E0,7.240980780E0,-1.322365361E0,1.055508887E1
1.475701883E1,7.722290828E0,7.293609229E0,-1.344032950E0,1.070686396E1
1.476700983E1,7.780365958E0,7.369335934E0,-1.389680847E0,1.080612879E1
1.477700083E1,7.768835249E0,7.351760373E0,-1.584568545E0,1.081267956E1
1.478699183E1,7.738734952E0,7.331958193E0,-1.705543928E0,1.079604139E1
1.479698283E1,7.506810406E0,7.401942932E0,-1.790716956E0,1.069334507E1
1.480697383E1,7.534827340E0,7.394126374E0,-1.997020027E0,1.074405961E1
1.481696583E1,7.648100771E0,7.335947163E0,-2.295268956E0,1.084333093E1
1.482695683E1,7.533232804E0,7.354560020E0,-2.542142494E0,1.083058807E1
1.483694783E1,7.377758848E0,7.373544760E0,-2.906212360E0,1.082804499E1
1.484693883E1,7.296396012E0,7.393620005E0,-3.959388285E0,1.111664370E1
1.485692983E1,7.326026777E0,7.436802278E0,-5.579496206E0,1.183670032E1
1.486692083E1,7.326730197E0,7.502822020E0,-6.014833106E0,1.208931474E1
1.487691183E1,7.033190616E0,7.688987426E0,-4.810900174E0,1.147741514E1
1.488690283E1,6.584530250E0,7.900229201E0,-3.319244178E0,1.080680535E1
1.489689383E1,6.205823050E0,7.992509374E0,-2.305098125E0,1.037814642E1
1.490688483E1,5.986971708E0,8.145554981E0,-1.609797672E0,1.023647130E1
1.491687583E1,5.755575750E0,8.322613349E0,-1.397444049E0,1.021495938E1
1.492686683E1,5.551204453E0,8.412899621E0,-1.314179698E0,1.016463571E1
1.493685783E1,5.404356310E0,8.549471283E0,-1.244841953E0,1.019068976E1
1.494684883E1,5.271491198E0,8.753295865E0,-1.219405834E0,1.029056648E1
1.495683983E1,5.102865100E0,8.872301906E0,-1.230535424E0,1.030879192E1
1.496683083E1,4.925985657E0,8.885759858E0,-1.207883165E0,1.023137550E1
1.497682283E1,4.807172281E0,9.000058891E0,-1.153340045E0,1.026840585E1
1.498681383E1,4.688073562E0,9.113891900E0,-1.130703134E0,1.031113713E1
1.499680483E1,4.533048672E0,9.246283972E0,-1.172465556E0,1.036421599E1
1.500679583E1,4.322342502E0,9.161471863E0,-1.287865473E0,1.021145479E1
1.501678683E1,4.080882901E0,8.890985515E0,-1.425603947E0,9.886130451E0
1.502677783E1,3.871854589E0,8.706046854E0,-1.594524160E0,9.660694441E0
1.503676883E1,3.777116539E0,8.425065338E0,-1.505797340E0,9.354985886E0
1.504675983E1,3.934662749E0,7.695408838E0,-2.891448140E-1,8.647802776E0
1.505675083E1,3.816031221E0,7.569923497E0,-4.509314239E-2,8.477491930E0
1.506674183E1,-2.676387548E-2,-5.870707426E0,1.019731021E-1,5.871653983E0
1.507673283E1,-4.780478631E1,-6.689475258E1,4.352611198E0,8.233559826E1
1.508672383E1,-3.902691811E1,-6.439465625E1,7.359435428E0,7.565668100E1
1.509671483E1,1.547572042E0,-1.684089324E1,4.828307920E0,1.758758715E1
1.510670583E1,2.914522423E0,2.006260382E0,5.804781239E0,6.798162024E0
1.511669683E1,8.177161521E-1,-3.281688974E0,4.436107099E0,5.578278267E0
1.512668883E1,-3.276911799E0,-9.606246754E0,2.457385933E0,1.044302989E1
1.513667983E1,-5.822056253E0,-8.945110266E0,4.523406029E-1,1.068250667E1
1.514667083E1,-6.093616151E0,-3.287820949E0,-1.930610275E-1,6.926701736E0
1.515666183E1,-6.238292638E0,-1.090957124E0,-1.244524888E0,6.454093637E0
1.516665283E1,-5.598407271E0,-1.858479023E-2,-2.043124738E0,5.959603012E0
1.517664383E1,-4.539974114E0,1.290844191E0,-2.412906164E0,5.300920660E0
1.518663483E1,-3.804629443E0,2.660058029E0,-2.073520904E0,5.084348814E0
1.519662583E1,-2.912070685E0,3.828223543E0,-1.658422387E0,5.087810529E0
1.520661683E1,-1.696763749E0,5.049439675E0,-1.500624747E0,5.534231915E0
1.521660783E1,-5.248273659E-1,6.039620038E0,-1.521527374E0,6.250399948E0
1.522659883E1,4.243581676E-1,6.698428164E0,-1.621955642E0,6.905053210E0
1.523658983E1,1.537368650E0,7.294868719E0,-1.849941065E0,7.681203938E0
1.524658083E1,2.570602062E0,7.672704100E0,-2.010801330E0,8.337967687E0
1.525657183E1,3.276220073E0,7.818762869E0,-2.158786318E0,8.747972859E0
1.526656283E1,3.716940504E0,7.955974216E0,-2.246835445E0,9.064294896E0
1.527655383E1,4.106701282E0,8.173896435E0,-2.155592422E0,9.398093267E0
1.528654583E1,4.427975961E0,8.402503856E0,-2.039067355E0,9.714259511E0
1.529653683E1,4.662467435E0,8.579394994E0,-1.973638766E0,9.961921051E0
1.530652783E1,4.823568166E0,8.669702901E0,-1.957334828E0,1.011245360E1
1.531651883E1,4.939492725E0,8.689893336E0,-1.919032788E0,1.017818851E1
1.532650983E1,5.040968229E0,8.674023993E0,-1.961228781E0,1.022235155E1
1.533650083E1,5.102518360E0,8.623247942E0,-2.008621634E0,1.021913203E1
1.534649183E1,5.161787492E0,8.523057071E0,-2.043023727E0,1.017155337E1
1.535648283E1,5.190546438E0,8.405076631E0,-2.078211540E0,1.009485258E1
1.536647383E1,5.138782207E0,8.176407230E0,-2.140644600E0,9.891565956E0
1.537646483E1,5.027368775E0,7.966606793E0,-2.240266391E0,9.682977543E0
1.538645583E1,4.921193864E0,7.760528110E0,-2.299520466E0,9.472683884E0
1.539644683E1,4.567237342E0,7.435272061E0,-2.235605575E0,9.007822148E0
1.540643783E1,3.689321181E0,6.667986975E0,-2.119869589E0,7.909929718E0
1.541642883E1,1.760034131E0,4.884434173E0,-2.200674455E0,5.639005709E0
1.542641983E1,2.285565501E-1,2.549962560E0,-2.340184343E0,3.468574623E0
1.543641083E1,-1.807640991E0,-1.204715289E0,-2.590193743E0,3.380533760E0
1.544640183E1,-4.577083468E0,-6.204949476E0,-2.602095165E0,8.137689495E0
1.545639383E1,-7.318931766E0,-1.051788615E1,-2.304427450E0,1.301933474E1
1.546638483E1,-9.612901470E0,-1.282816432E1,-1.810716627E0,1.613221526E1
1.547637583E1,-1.225531611E1,-1.539152987E1,-1.145057902E0,1.970794566E1
1.548636683E1,-1.515317748E1,-1.978371034E1,-3.589652101E-1,2.492273738E1
1.549635783E1,-1.650042040E1,-2.354780864E1,1.898339492E-1,2.875411627E1
1.550634883E1,-1.449488274E1,-2.394178000E1,1.066955473E0,2.800801402E1
1.551633983E1,-1.094576083E1,-2.155803624E1,2.190720155E0,2.427669379E1
1.552633083E1,-1.009918224E1,-2.067179247E1,3.002627099E0,2.320198818E1
1.553632183E1,-1.022700705E1,-2.031473108E1,2.564140888E0,2.288787431E1
1.554631283E1,-9.566464053E0,-1.907131132E1,1.730218009E0,2.140620948E1
1.555630383E1,-9.427106193E0,-1.911398664E1,1.584986036E0,2.137117210E1
1.556629483E1,-9.272170765E0,-1.921018737E1,1.599315223E0,2.139070496E1
1.557628583E1,-8.096027310E0,-1.757064915E1,1.914558499E0,1.944065081E1
1.558627683E1,-6.894205223E0,-1.509787217E1,2.000402641E0,1.671757819E1
1.559626783E1,-5.964402040E0,-1.247646132E1,2.003837296E0,1.397324381E1
1.560625521E1,-4.842234233E0,-9.559916341E0,1.854895849E0,1.087565499E1
1.561624721E1,-3.431613922E0,-6.331092628E0,1.895744498E0,7.446647244E0
1.562623821E1,-1.838924180E0,-3.226932138E0,2.194930151E0,4.314215054E0
1.563622921E1,-2.305995673E-1,-3.958284330E-1,2.333570557E0,2.378110143E0
1.564622021E1,1.157660406E0,2.162920738E0,2.217769375E0,3.307099142E0
1.565621121E1,2.488462130E0,4.355030776E0,1.896674205E0,5.362472366E0
1.566620221E1,3.793808001E0,6.111364204E0,1.433459535E0,7.334613679E0
1.567619321E1,4.764173904E0,7.311758401E0,1.007043148E0,8.784833511E0
1.568618421E1,5.395572038E0,8.048858407E0,5.409855616E-1,9.705100960E0
1.569617521E1,5.709973315E0,8.334066875E0,3.888749242E-2,1.010257285E1
1.570616621E1,5.864721631E0,8.363453811E0,-2.929420141E-1,1.021900849E1
1.571615721E1,5.913360525E0,8.353898292E0,-4.077082211E-1,1.024312820E1
1.572614821E1,5.980507611E0,8.315499042E0,-6.096786511E-1,1.026088221E1
1.573613921E1,6.103896725E0,8.270002441E0,-7.862154472E-1,1.030866773E1
1.574613021E1,6.234035280E0,8.232137042E0,-7.585885227E-1,1.035406841E1
1.575612121E1,6.387520598E0,8.240462308E0,-6.156825721E-1,1.044436228E1
1.576611221E1,6.531352163E0,8.192558994E0,-4.355825194E-1,1.048648254E1
1.577610321E1,6.690064892E0,8.051465680E0,-3.243006499E-1,1.047321530E1
1.578609421E1,6.838211117E0,7.947836062E0,-2.711974434E-1,1.048822089E1
1.579608521E1,6.946726084E0,7.877404010E0,-2.692133369E-1,1.050633014E1
1.580607721E1,7.007596183E0,7.812346720E0,-3.028448403E-1,1.049908951E1
1.581606821E1,7.069092520E0,7.739667583E0,-3.982398979E-1,1.048966722E1
1.582605921E1,7.106664389E0,7.660683394E0,-6.272045837E-1,1.046824409E1
1.583605021E1,7.112399923E0,7.596965116E0,-9.465923665E-1,1.044969611E1
1.584604121E1,7.102656122E0,7.548203430E0,-1.309093351E0,1.044685716E1
1.585603221E1,7.187771702E0,7.444349864E0,-1.665866038E0,1.048129365E1
1.586602321E1,7.325743772E0,7.312985147E0,-1.990584728E0,1.054081122E1
1.587601421E1,7.503954626E0,7.209023407E0,-2.309985959E0,1.065905196E1
1.588600521E1,7.752716814E0,7.121350256E0,-3.008607631E0,1.094851439E1
1.589599621E1,8.026850656E0,7.087546332E0,-4.081405350E0,1.145955994E1
1.590598721E1,8.319112036E0,7.029754207E0,-4.106506569E0,1.163995127E1
1.591597821E1,8.452807453E0,7.075345532E0,-3.327167448E0,1.151436110E1
1.592596921E1,8.360638962E0,7.170762151E0,-2.569546055E0,1.131029092E1
1.593596021E1,8.263895609E0,7.728784745E0,-2.078109068E0,1.150411325E1
1.594595121E1,8.096711435E0,8.338387967E0,-1.986432912E0,1.179115625E1
1.595594221E1,7.757149588E0,8.580536955E0,-1.969920668E0,1.173369386E1
1.596593321E1,7.398460330E0,8.735504542E0,-1.875590900E0,1.160017655E1
1.597592421E1,7.038175952E0,8.804188861E0,-1.788413738E0,1.141262835E1
1.598591521E1,6.573378441E0,8.454173947E0,-1.612109515E0,1.082964719E1
1.599590721E1,6.203702849E0,8.140335757E0,-1.305763508E0,1.031775235E1
1.600589821E1,6.103924207E0,8.436816487E0,-1.235995116E0,1.048644111E1
1.601588921E1,5.984657965E0,8.527460024E0,-1.231009634E0,1.049042850E1
1.602588021E1,5.879654835E0,8.558361974E0,-1.224377795E0,1.045538147E1
1.603587121E1,5.794363255E0,8.552377349E0,-1.212096961E0,1.040129717E1
1.604586221E1,5.689801590E0,8.540541415E0,-1.167411808E0,1.032848199E1
1.605585321E1,5.562363279E0,8.470923296E0,-1.200824552E0,1.020482270E1
1.606584421E1,5.391601194E0,8.305293896E0,-1.246073815E0,9.979978461E0
1.607583521E1,5.243908128E0,8.089079649E0,-1.308665335E0,9.728534678E0
1.608582621E1,5.119702157E0,8.070139348E0,-1.376883485E0,9.655791392E0
1.609581721E1,5.020118812E0,8.096530171E0,-1.310750452E0,9.616312206E0
1.610580821E1,5.004096272E0,7.873734298E0,-1.191370335E0,9.405106834E0
1.611579921E1,5.622335247E0,6.631541280E0,-1.049785125E0,8.757285092E0
1.612579021E1,5.220243276E0,1.769248758E0,-1.870824249E0,5.820752907E0
1.613578121E1,-3.541513978E1,-5.599722193E1,-3.819153342E0,6.636645931E1
1.614577221E1,-7.042751398E1,-7.093082359E1,7.232077224E0,1.002173608E2
1.615576321E1,-1.344718565E1,-3.162147562E1,8.251989509E0,3.533892829E1
1.616575421E1,5.380028384E0,-5.217792124E-1,7.787942780E0,9.479926778E0
1.617574521E1,1.279927440E0,1.421435906E0,7.381473584E0,7.625276818E0
1.618573721E1,-3.300750312E0,5.661168945E-1,5.799007698E0,6.696561151E0
1.619572821E1,-8.991793851E0,-1.789149172E0,3.900642771E0,9.963354126E0
1.620571921E1,-1.335759578E1,-2.917400422E0,5.950363460E-1,1.368541774E1
1.621571021E1,-1.428843977E1,-2.770299094E0,-2.776293075E0,1.481694541E1
1.622570121E1,-1.146542627E1,-8.579777402E-1,-4.012303247E0,1.217746701E1
1.623569221E1,-7.851064058E0,1.895937456E0,-3.863939506E0,8.953424718E0
1.624568321E1,-5.016643227E0,4.174434843E0,-3.535218397E0,7.422289717E0
1.625567421E1,-2.607683934E0,5.672146508E0,-3.769788224E0,7.292774832E0
1.626566521E1,-4.722456944E-1,6.158554158E0,-4.937464911E0,7.907551142E0
1.627565621E1,1.233104691E0,5.610068958E0,-6.585879203E0,8.738834348E0
1.628564721E1,2.136713517E0,4.759164594E0,-6.707667350E0,8.497528674E0
1.629563821E1,2.759143776E0,4.800461140E0,-4.604455454E0,7.201271524E0
1.630562921E1,3.245949038E0,5.019106075E0,-2.526143342E0,6.489145639E0
1.631562021E1,3.590044815E0,5.094299514E0,-1.581788778E0,6.429802878E0
1.632561121E1,4.092586688E0,5.220264911E0,-1.181649047E0,6.737709255E0
1.633560221E1,4.624849958E0,5.387130412E0,-9.800775433E-1,7.167353989E0
1.634559321E1,5.064363524E0,5.592068304E0,-7.798606201E-1,7.584667983E0
1.635558421E1,5.424967745E0,5.879859488E0,-6.322127239E-1,8.025130252E0
1.636557521E1,5.686195028E0,6.136449929E0,-5.370680002E-1,8.383154159E0
1.637556621E1,5.940344841E0,6.332258563E0,-4.366431677E-1,8.693437329E0
1.638555821E1,6.136513079E0,6.461322985E0,-3.445302254E-1,8.917633574E0
1.639554921E1,6.309070845E0,6.577491957E0,-2.510023300E-1,9.117608104E0
1.640554021E1,6.412277709E0,6.677678150E0,-1.580256808E-1,9.259247432E0
1.641553121E1,6.431202807E0,6.747890346E0,3.729061782E-4,9.321716248E0
1.642552221E1,6.367576915E0,6.784147176E0,1.958722957E-1,9.306398586E0
1.643551321E1,6.163062946E0,6.717445064E0,2.520464965E-1,9.119810332E0
1.644550421E1,5.789923464E0,6.375222149E0,1.108656207E-1,8.612720962E0
1.645549521E1,5.366332451E0,5.909946336E0,3.833434582E-3,7.982794271E0
1.646548621E1,4.946170245E0,5.516970175E0,-6.895270586E-2,7.409879519E0
1.647547721E1,4.552264962E0,5.064925441E0,-1.071087847E-1,6.810877939E0
1.648546821E1,3.919127281E0,4.355193914E0,-1.480784706E-1,5.860819047E0
1.649545921E1,2.765955783E0,3.244593653E0,-6.222950421E-2,4.264008897E0
1.650545021E1,9.280402476E-1,1.287006079E0,9.374139190E-2,1.589475007E0
1.651544121E1,-2.339570385E0,-2.617259334E0,5.055678070E-2,3.510867699E0
1.652543221E1,-8.183190585E0,-9.647098911E0,-6.467495598E-2,1.265050625E1
1.653542321E1,-1.600084248E1,-1.849819998E1,5.666793235E-1,2.446490319E1
1.654541421E1,-2.082497549E1,-2.411676144E1,2.211366674E0,3.194038085E1
1.655540521E1,-1.840907438E1,-2.147057359E1,3.872352480E0,2.854600959E1
1.656539621E1,-1.178431704E1,-1.545380505E1,4.706143212E0,1.999594966E1
1.657538721E1,-9.174669029E0,-1.386768583E1,4.379724737E0,1.719503564E1
1.658537821E1,-1.090873509E1,-1.589998035E1,3.436202817E0,1.958615241E1
1.659536921E1,-1.349509540E1,-1.859473517E1,1.876601298E0,2.305218880E1
