"Time (s)","Linear Acceleration x (m/s^2)","Linear Acceleration y (m/s^2)","Linear Acceleration z (m/s^2)","Absolute acceleration (m/s^2)"
1.645083423E-3,-9.423210485E-1,1.513871614E0,2.577393018E0,3.134123640E0
1.165108336E-2,-1.012944742E0,5.669261491E-1,2.542041337E0,2.794536897E0
2.165808342E-2,-1.965712573E0,-1.167887771E-1,2.234478963E0,2.978348833E0
3.166508337E-2,-1.858769483E0,-2.182297826E-2,2.001896605E0,2.731865709E0
4.167108343E-2,-1.193025097E0,-8.765607762E-1,1.828754117E0,2.352872563E0
5.167808337E-2,-6.750590006E-1,-8.701159751E-1,1.997363259E0,2.280847748E0
6.168508343E-2,-4.555086243E-1,-2.721726859E-1,1.999259511E0,2.068478830E0
7.169108337E-2,-3.641528964E-2,-2.217615008E-1,2.210022984E0,2.221419777E0
8.169808344E-2,4.481642291E-1,-4.919063723E-1,2.778664706E0,2.857236532E0
9.170508338E-2,4.131281514E-1,-5.898098123E-1,3.814659757E0,3.882032914E0
1.017110834E-1,5.978266373E-2,-5.380338871E-1,3.978747246E0,4.015405843E0
1.117180834E-1,-9.492808431E-2,-5.555223244E-1,3.366881152E0,3.413723053E0
1.217250834E-1,-3.532612878E-1,-9.753787208E-1,2.467434958E0,2.676638276E0
1.317310834E-1,-4.922300157E-1,-1.453461691E0,1.284385942E0,2.001121816E0
1.417380834E-1,-6.079634435E-1,-1.633868759E0,1.668602389E-1,1.751282104E0
1.517450834E-1,-8.048777130E-1,-1.717089255E0,-1.197106308E0,2.242607223E0
1.617510834E-1,-9.353893206E-1,-1.769297290E0,-2.617921824E0,3.295281590E0
1.717580834E-1,-1.099340423E0,-1.497649099E0,-3.338023388E0,3.820196635E0
1.817650833E-1,-7.351506896E-1,-1.179072910E0,-2.718784540E0,3.053268550E0
1.917710834E-1,-2.537983954E-2,-1.191933276E0,-1.301730537E0,1.765177459E0
2.017780833E-1,6.259635852E-1,-1.360579839E0,5.997372150E-2,1.498867825E0
2.117840834E-1,9.655059895E-1,-1.227526740E0,9.026674247E-1,1.803838183E0
2.217910833E-1,9.250809717E-1,-9.940021026E-1,3.992952472E-1,1.415362737E0
2.317980834E-1,7.281455791E-1,-7.896986336E-1,-5.994758445E-1,1.230118370E0
2.418040833E-1,2.069643907E-1,-3.125097030E-1,-5.841286576E-1,6.940481699E-1
2.518110834E-1,6.742360049E-1,-1.565802491E-1,-1.678871269E0,1.815962638E0
2.618180834E-1,1.231117222E0,-7.088749105E-1,-1.948436097E0,2.411339146E0
2.718240834E-1,7.284771162E-1,-1.291890258E0,-2.199326087E0,2.652676872E0
2.818310834E-1,-4.777102829E-1,-1.860689855E0,-2.524052963E0,3.171942183E0
2.918380834E-1,-1.905489029E0,-2.767241001E0,-2.964458814E0,4.480683793E0
3.018440834E-1,-1.430687224E0,-3.114413583E0,-2.453803344E0,4.215161770E0
3.118510834E-1,-2.594994307E-1,-4.051338674E0,-1.444905460E0,4.309110906E0
3.218580834E-1,-3.040142834E-2,-5.038142270E0,-4.302796429E-1,5.056574171E0
3.318640834E-1,-5.193365380E-2,-4.428382927E0,-1.202376988E0,4.589006742E0
3.418710834E-1,4.194829054E-1,-2.910873760E0,-1.928997028E0,3.517126880E0
3.518780834E-1,1.362673143E0,-2.034442792E0,-1.700075612E0,2.980954990E0
3.618840834E-1,1.309459387E0,-2.190024921E0,-1.988119395E0,3.234735194E0
3.718910834E-1,9.048601305E-1,-2.443008215E0,-2.918917190E0,3.912433840E0
3.818980834E-1,-6.437076920E-1,-2.666171878E0,-4.371223471E0,5.160467683E0
3.919040834E-1,-1.907276376E0,-3.650147760E0,-3.700030357E0,5.536380269E0
4.019110834E-1,-1.310092056E0,-5.301566352E0,-2.630937726E0,6.061747297E0
4.119170834E-1,-1.222910655E0,-5.682824108E0,-1.474870686E0,5.997102955E0
4.219240834E-1,-1.002731411E0,-3.591487323E0,2.243342757E-1,3.735582597E0
4.319310834E-1,-1.724312321E0,2.555087060E-1,1.367874826E0,2.215766057E0
4.419376251E-1,-1.317458963E0,-7.258090317E-2,6.780717784E-1,1.483491639E0
4.519446250E-1,3.004989374E-1,-2.123494132E0,-8.630496150E-1,2.311791855E0
4.619516251E-1,1.192633188E-1,-1.036092407E0,-8.203842366E-1,1.326929354E0
4.719576250E-1,-5.485635531E-1,1.811031792E-1,-9.126456982E-1,1.080112264E0
4.819646251E-1,-3.578800035E-1,9.197047493E-1,-9.969245410E-1,1.402780618E0
4.919716250E-1,1.044824347E0,1.302470503E0,-1.245992539E0,2.083407001E0
5.019776251E-1,2.808680803E0,1.729313737E0,-9.341505879E-1,3.428097311E0
5.119846250E-1,4.425072234E0,2.304715133E0,-4.406602049E-1,5.008708170E0
5.219916251E-1,5.798972615E0,2.739407962E0,-1.278097261E0,6.539569709E0
5.319976250E-1,5.184888087E0,3.749571476E0,-1.174468228E0,6.505515071E0
5.420046251E-1,3.496650748E0,4.647125511E0,-7.363503921E-1,5.862128782E0
5.520106250E-1,3.080679826E0,4.170992295E0,-1.288396547E0,5.343007634E0
5.620176251E-1,2.768482949E0,3.622369100E0,-4.298130351E-1,4.579388058E0
5.720246250E-1,1.254960414E0,3.781281219E0,4.097501273E0,5.715114170E0
5.820306251E-1,6.313484323E-1,3.215123686E0,6.954332727E0,7.687546087E0
5.920376250E-1,2.056587367E0,5.235532576E-1,4.884592048E0,5.325682969E0
6.020446251E-1,2.085224106E0,-7.475533649E-1,3.958168555E0,4.535867493E0
6.120506250E-1,1.480887471E0,1.511794683E-1,2.362296758E0,2.792190700E0
6.220576251E-1,1.018732901E0,7.779775974E-1,6.830840117E-1,1.452470183E0
6.320646250E-1,4.554168230E-1,7.759106067E-1,-6.028485185E-1,1.082990346E0
6.420706251E-1,-4.624141860E-1,5.045723185E-1,-1.731941183E0,1.862267533E0
6.520776250E-1,-1.447377663E0,1.673812258E-1,-2.472558289E0,2.869923878E0
6.620846251E-1,-2.798416600E0,-1.636819848E-1,-1.959423015E0,3.420126578E0
6.720906250E-1,-3.837782571E0,-8.902751282E-1,3.699679524E-1,3.957024280E0
6.820976251E-1,-3.660922424E0,-2.364152080E0,4.093084286E0,5.978704460E0
6.921036250E-1,-2.486584589E0,-3.638407136E0,8.511930404E0,9.585096171E0
7.021106251E-1,-1.391764795E0,-3.780116453E0,1.189718935E1,1.256062913E1
7.121176251E-1,-1.277552885E0,-3.066083422E0,1.187035297E1,1.232632503E1
7.221236251E-1,-3.231674230E-1,-1.703829525E0,8.389434160E0,8.566800906E0
7.321306251E-1,1.099401088E0,-3.497300081E-1,4.139605318E0,4.297362682E0
7.421376251E-1,2.553028840E0,-4.812508450E-1,1.400854876E0,2.951601771E0
7.521436251E-1,3.291863129E0,-1.076633492E0,3.145284542E-1,3.477704802E0
7.621506250E-1,3.125336182E0,-3.490084909E0,3.161238670E-2,4.685020626E0
7.721576251E-1,2.097628974E0,-5.436510149E0,8.425703269E-1,5.887751240E0
7.821636250E-1,1.536864620E0,-6.129474785E0,-1.798270243E-1,6.321768088E0
7.921706251E-1,1.318139579E0,-7.204744999E0,-1.465743182E0,7.469554574E0
8.021776250E-1,8.346087581E-1,-7.807230406E0,-3.478144310E0,8.587601891E0
8.121836251E-1,3.682038474E-1,-7.961424406E0,-5.873841534E0,9.900599326E0
8.221906250E-1,6.635338461E-1,-7.543863627E0,-6.911063915E0,1.025246117E1
8.321966251E-1,-1.894721235E0,-8.243119283E0,-8.046523029E0,1.167413881E1
8.422036250E-1,-4.814305592E0,-9.164473824E0,-9.646027701E0,1.414959255E1
8.522106251E-1,-8.106824194E0,-9.247573283E0,-9.499982965E0,1.553988052E1
8.622166250E-1,-1.134335980E1,-8.863260357E0,-6.540452185E0,1.581160050E1
8.722236251E-1,-1.052024959E1,-7.438837109E0,-4.893404387E0,1.378250179E1
8.822306250E-1,-8.180429530E0,-5.669542158E0,-1.117849054E0,1.001562390E1
8.922366251E-1,-5.894223758E0,-3.788643448E0,6.063357979E0,9.266067282E0
9.022436250E-1,-1.754799119E0,-2.084704873E0,1.383385033E1,1.409967125E1
9.122506251E-1,3.724629593E0,1.574711455E0,1.115416846E1,1.186457145E1
9.222566250E-1,7.492014611E0,6.387374418E0,9.240260755E0,1.350226847E1
9.322636251E-1,8.891377863E0,7.614457646E0,1.000153140E1,1.539698658E1
9.422706250E-1,1.080833840E1,9.036736135E0,8.491459887E0,1.644954923E1
9.522766251E-1,1.371210896E1,1.053014893E1,6.818613589E-2,1.728903172E1
9.622836250E-1,1.702410405E1,1.261664714E1,-1.091888703E1,2.383740753E1
9.722896251E-1,1.828959589E1,1.455287659E1,-1.537709426E1,2.797767972E1
9.822966250E-1,1.814335585E1,1.490329672E1,-1.805983189E1,2.962173429E1
9.923036251E-1,1.547450654E1,1.157328635E1,-1.970456243E1,2.759838927E1
1.002309625E0,1.048865592E1,6.400494400E0,-1.763038898E1,2.148973818E1
1.012316625E0,6.620326905E0,1.495814243E0,-1.403258199E1,1.558780118E1
1.022323625E0,3.993491585E0,-2.759385851E0,-1.044690446E1,1.151954852E1
1.032329625E0,2.450010840E0,-5.527604506E0,-7.313196816E0,9.488931045E0
1.042336625E0,2.615824428E0,-6.560520414E0,-4.919184176E0,8.607051672E0
1.052343625E0,3.037732612E0,-6.578484814E0,-4.100558782E0,8.325795109E0
1.062349625E0,3.789693900E0,-5.105212757E0,-3.363085139E0,7.192726799E0
1.072356625E0,5.463774546E0,-2.935007266E0,-2.008382921E0,6.519256238E0
1.082363625E0,6.177175786E0,-1.174596282E0,-5.888613939E-1,6.315372899E0
1.092369625E0,6.942648236E0,-8.424033158E-1,2.526519903E0,7.435947195E0
1.102376625E0,7.536083906E0,-2.364283788E0,7.405110953E0,1.082672927E1
1.112382625E0,5.630728925E0,-3.013466082E0,1.068523931E1,1.244831013E1
1.122389625E0,4.011585794E0,-2.955686821E0,1.075473463E1,1.185298368E1
1.132396625E0,2.173470869E0,-7.539148432E-1,8.056932242E0,8.378933128E0
1.142402625E0,-3.515112162E-1,1.567890531E0,5.809059062E0,6.027189066E0
1.152409625E0,-2.935695190E0,3.586870362E0,4.514684030E0,6.470418621E0
1.162416625E0,-5.547829440E0,4.354427928E0,3.024792139E0,7.673905236E0
1.172422625E0,-9.187472677E0,2.310742735E0,5.472496837E-1,9.489397684E0
1.182429625E0,-8.955423000E0,-4.287222371E-1,1.356472170E0,9.067713087E0
1.192436625E0,-3.863103939E0,1.249271950E0,6.251047170E0,7.453847541E0
1.202442625E0,-1.815562799E0,-1.321582127E0,7.391263577E0,7.724870540E0
1.212449625E0,1.718759805E-1,-9.495308847E-1,5.181378003E0,5.270467557E0
1.222455625E0,4.919128042E-1,-3.329606321E-1,2.344343760E0,2.418426896E0
1.232462625E0,3.610760915E-1,-7.665804970E-1,-3.402143955E-2,8.480442563E-1
1.242469625E0,-3.926919866E-1,-2.145803306E0,2.333018580E-1,2.193879801E0
1.252475625E0,-1.096973909E0,-5.498560801E-1,-1.392098671E0,1.855702609E0
1.262482625E0,-4.834869080E0,-3.927459856E0,-2.789782602E0,6.825231638E0
1.272489625E0,-4.452782189E0,-3.466321825E0,-1.044678313E0,5.738815992E0
1.282495625E0,-4.319998353E0,-1.458109350E0,-1.830233025E0,4.913066412E0
1.292502625E0,-4.974511115E0,-2.274146474E0,-2.584929494E0,6.049740780E0
1.302509625E0,-6.159718339E0,-2.101949774E0,-2.787873486E0,7.080435116E0
1.312515625E0,-5.282035482E0,-2.172160508E0,-2.626436539E0,6.286203067E0
1.322522625E0,-3.696781059E0,-2.210867321E0,-2.004623746E0,4.751067341E0
1.332528625E0,-9.033182198E-1,-1.520362901E0,1.000127646E0,2.031684637E0
1.342535625E0,-1.798182535E-1,-1.341863487E0,2.094878443E0,2.494283046E0
1.352542625E0,-2.167381579E0,-7.591877892E-1,-1.264472225E0,2.621602376E0
1.362548625E0,-4.161232415E0,9.518338837E-2,-4.627255795E0,6.223858231E0
1.372555625E0,-4.920491613E0,-1.480172941E-1,-3.788181226E0,6.211558889E0
1.382562625E0,-3.669651732E0,-3.302216502E-1,7.958418645E-1,3.769450152E0
1.392568625E0,-4.375142274E0,3.840210043E-1,2.687887560E-1,4.400180616E0
1.402575625E0,-3.130838411E0,1.259175233E0,-1.099988587E0,3.549316317E0
1.412582625E0,-1.490538300E0,3.360678718E0,-3.058029175E0,4.781987903E0
1.422588625E0,4.997556746E-1,2.652634112E0,-2.488192574E0,3.671147743E0
1.432595625E0,2.528532515E0,2.096561272E0,4.409081268E-1,3.314128214E0
1.442601333E0,2.681795638E0,1.819104750E0,3.187585055E0,4.545532798E0
1.452608333E0,2.713860599E0,1.653917984E0,2.863140892E0,4.277623151E0
1.462615333E0,3.127717168E0,1.276420864E0,9.486756563E-1,3.508824647E0
1.472621333E0,2.860333936E0,2.086954004E0,-1.512624111E0,3.850314136E0
1.482628333E0,3.455450681E0,2.829942448E0,-4.112369573E0,6.071268168E0
1.492635333E0,3.337451531E0,3.283549850E0,-6.257469167E0,7.815126532E0
1.502641333E0,4.276642419E0,4.121958129E0,-4.496318218E0,7.449636683E0
1.512648333E0,4.768089784E0,3.961194782E0,-2.634909739E0,6.735613827E0
1.522655333E0,3.558461080E0,1.845633421E0,1.444010544E0,4.260771577E0
1.532661333E0,2.490631447E0,-3.591929957E-1,3.071939701E0,3.971029859E0
1.542668333E0,4.648173916E0,9.160784523E-1,3.971689365E0,6.182154713E0
1.552674333E0,2.809289498E0,5.828389080E-1,1.656089932E0,3.312769618E0
1.562681333E0,-1.181172645E-1,3.220050696E-1,-1.313431547E0,1.357476107E0
1.572688333E0,-1.949998473E0,1.982278319E0,-4.902874245E-1,2.823526720E0
1.582694333E0,2.366315550E-1,-1.839066559E0,-8.252135982E-1,2.029565911E0
1.592701333E0,1.696431627E0,-6.701837676E0,1.376105805E0,7.048842152E0
1.602708333E0,3.138540949E0,-3.560168759E0,-1.332410878E-1,4.747946300E0
1.612714333E0,4.687239749E0,-2.220784199E0,6.117140669E-1,5.222671062E0
1.622721333E0,4.118829576E0,-2.604290795E0,2.630957606E0,5.537962220E0
1.632727333E0,2.974681501E0,-2.042286832E0,2.887880754E0,4.621636159E0
1.642734333E0,2.300560101E0,-2.375214719E0,2.480980033E0,4.133942872E0
1.652741333E0,3.093492830E-1,-5.024536384E0,1.718247589E0,5.319214005E0
1.662747333E0,-2.210977249E0,-1.232556456E1,1.350131888E0,1.259487270E1
1.672754333E0,-2.353604872E0,-1.088758688E1,4.153628111E-2,1.113915299E1
1.682761333E0,5.081616318E-1,-1.432381016E0,2.303619365E0,2.759819885E0
1.692767333E0,-1.275896954E0,1.959911550E0,3.782540417E0,4.447108985E0
1.702774333E0,-1.657757558E0,3.148081704E-1,1.759924788E0,2.438154951E0
1.712781333E0,-3.016254619E0,-4.190465862E0,-1.483340378E0,5.371973077E0
1.722787333E0,-3.601383736E0,-4.351029527E0,-2.010821210E0,5.995400294E0
1.732794333E0,-3.623928260E0,-2.621262338E0,-3.264363674E0,5.537142086E0
1.742800333E0,-5.905905910E0,-1.814191481E-1,-4.810707800E0,7.619419077E0
1.752807333E0,-8.277114410E0,3.359014308E0,-5.209471536E0,1.034080237E1
1.762814333E0,-7.923651978E0,4.386492597E0,-3.212654407E0,9.609720407E0
1.772820333E0,-2.872227173E0,1.947136553E0,-2.274236521E0,4.148877130E0
1.782827333E0,-1.533479083E-1,2.580026165E-1,-1.694982103E0,1.721349836E0
1.792834333E0,1.444461071E-1,-4.906460781E-1,-7.657164613E-2,5.171667708E-1
1.802840333E0,1.572436157E0,-7.075611873E-1,1.854236283E0,2.532072372E0
1.812847333E0,2.783669338E0,-8.443404253E-1,3.457424701E0,4.518352720E0
1.822853333E0,1.727537645E0,-1.121216758E-1,3.782318223E0,4.159674112E0
1.832860333E0,1.746243473E0,1.145758983E0,2.494094753E0,3.253096763E0
1.842867333E0,8.346730775E-1,2.826910959E0,-1.168396552E0,3.170686869E0
1.852873333E0,-1.102814108E0,4.125480199E0,-3.555754988E0,5.556903757E0
1.862880333E0,-2.132144503E0,3.880761361E0,-3.529466784E0,5.662462777E0
1.872887333E0,-2.273244833E0,3.240341850E0,-3.257748134E0,5.126439338E0
1.882893333E0,-2.613667974E0,2.892655298E0,-2.581093136E0,4.675548816E0
1.892900333E0,-3.019341365E0,1.625685288E0,-1.479642745E0,3.734784811E0
1.902906333E0,-2.913616104E0,1.136579732E0,-7.057590754E-1,3.206098589E0
1.912913333E0,-2.467990444E0,1.860985140E0,2.813725488E-1,3.103773998E0
1.922920333E0,-1.890481419E0,2.220039556E0,1.540708726E0,3.297920406E0
1.932926333E0,-1.755157553E0,1.969453329E0,2.430738856E0,3.587173795E0
1.942933333E0,-3.399670583E-1,2.640932079E0,1.768527796E0,3.196527869E0
1.952940333E0,1.597625962E0,3.999808332E0,-6.584198713E-2,4.307575951E0
1.962946333E0,1.354200527E0,2.476235602E0,-9.831534711E-1,2.988677395E0
1.972953333E0,9.555519819E-2,3.089467022E-1,-7.327612250E-1,8.009481091E-1
1.982959333E0,-6.470365119E-1,-1.391762163E0,-1.407878551E0,2.082733824E0
1.992966333E0,2.834595662E-1,-1.003626620E0,-7.477156252E-2,1.045565160E0
2.002973333E0,7.788900554E-1,-5.016633287E-1,8.751168063E-1,1.274427416E0
2.012979333E0,1.059106171E0,-8.692921025E-1,1.029543526E0,1.713865372E0
2.022986333E0,5.976462507E-1,-1.908503122E0,-4.804876372E-1,2.056801784E0
2.032993333E0,4.550016707E-1,-2.564751045E0,-2.174959424E0,3.393438218E0
2.042999333E0,3.429327661E-1,-2.757508018E0,-1.878359849E0,3.354055615E0
2.053006333E0,3.092469567E-1,-3.330443350E0,-1.068121701E0,3.511177944E0
2.063012333E0,2.201201874E-1,-4.162076460E0,-2.658427826E-1,4.176362741E0
2.073019333E0,5.287116712E-1,-4.056030188E0,-1.388760788E0,4.319672840E0
2.083026333E0,7.493721414E-1,-3.559602748E0,-2.991676141E0,4.709825524E0
2.093032333E0,1.662552275E0,-3.096973677E0,-3.616818338E0,5.043481032E0
2.103039333E0,3.260226769E0,-2.869389519E0,-4.701042101E0,6.400177469E0
2.113046333E0,4.566171395E0,-2.797498880E0,-4.152098187E0,6.776122825E0
2.123052333E0,6.003918108E0,-2.574046072E0,-3.434607697E0,7.380330335E0
2.133059333E0,6.754729249E0,-2.781313787E0,-2.570756428E0,7.744085629E0
2.143065333E0,6.310344953E0,-2.980940945E0,-1.109588400E0,7.066657538E0
2.153072333E0,4.636604615E0,-1.268295866E0,5.396560510E-1,4.837138143E0
2.163079333E0,4.903438793E0,-1.108638520E0,1.605395157E0,5.277317972E0
2.173085333E0,4.774872555E0,-2.170390556E0,3.402545074E0,6.251984970E0
2.183092333E0,1.552264432E0,-3.010587206E0,1.204153372E0,3.594877680E0
2.193099333E0,-1.219293568E0,-3.459412170E0,-3.513483127E0,5.079249261E0
2.203105333E0,-2.333802692E0,-5.053459636E0,-1.978606560E0,5.907535291E0
2.213112333E0,-3.643563795E0,-5.908638314E0,1.447985627E0,7.091137161E0
2.223118333E0,-4.406363482E0,-4.297288937E0,2.438347545E0,6.620292297E0
2.233125333E0,-4.164203970E0,-2.144420148E0,3.517047590E0,5.857367687E0
2.243132333E0,-2.023845883E0,-1.370916255E0,4.436505879E0,5.065367504E0
2.253138333E0,5.036809105E-1,-1.772769659E0,4.213974885E0,4.599346807E0
2.263145333E0,1.603849154E0,-1.512408933E0,3.945311698E0,4.519424441E0
2.273152333E0,1.615281045E0,-8.805456537E-1,3.531439634E0,3.981903991E0
2.283158333E0,2.288118981E0,-1.076910943E-2,2.739804111E0,3.569612165E0
2.293165333E0,3.011062877E0,2.476319218E-1,1.998732677E0,3.622534131E0
2.303171333E0,2.227955809E0,5.561099696E-1,1.284998145E0,2.631399935E0
2.313178333E0,8.301642895E-1,9.304256192E-1,4.818316197E-1,1.336797027E0
2.323185333E0,1.420218515E-1,1.087881489E0,-7.071306860E-1,1.305254821E0
2.333191333E0,-2.357340074E-1,9.421519178E-1,-1.143220561E0,1.500058002E0
2.343198333E0,-1.062845466E0,9.032577011E-1,-9.640015009E-1,1.695527603E0
2.353205333E0,-1.735936586E0,6.972295958E-1,-4.378819004E-1,1.921287458E0
2.363211333E0,-3.566630225E0,9.433877268E-1,9.332181032E-1,3.805486512E0
2.373218333E0,-2.012853118E0,-2.970350468E-1,1.421818314E0,2.482211677E0
2.383224333E0,-1.193537167E0,-9.808601931E-1,1.471779263E-1,1.551863084E0
2.393231333E0,-2.380003881E0,-5.607020804E-1,-2.001402515E-1,2.453336793E0
2.403238333E0,-2.546022121E0,-5.797713125E-1,-1.062953639E-1,2.613362225E0
2.413244333E0,-2.585712436E0,-1.394359204E-1,-1.411041310E-1,2.593310925E0
2.423251333E0,-2.371556994E0,2.974080992E-1,-2.465130571E-1,2.402811445E0
2.433258333E0,-2.441656923E0,3.682272363E-1,5.610783488E-2,2.469904435E0
2.443265083E0,-2.197714595E0,5.475838521E-1,3.809887844E-1,2.296725924E0
2.453272083E0,-1.993458488E0,2.855563778E-1,5.571841031E-1,2.089467232E0
2.463278083E0,-2.436766312E0,6.112544757E-1,1.612160093E0,2.985049792E0
2.473285083E0,-3.152678931E0,1.414661322E0,2.077072210E0,4.031734126E0
2.483292083E0,-3.391763393E0,2.413126312E0,1.436058623E0,4.403351210E0
2.493298083E0,-4.059276854E0,3.156525815E0,7.924781075E-1,5.202826669E0
2.503305083E0,-4.235407854E0,3.151092582E0,2.090215874E-1,5.283157595E0
2.513312083E0,-3.835980459E0,2.738640515E0,-2.126272729E-1,4.718061923E0
2.523318083E0,-4.111269127E0,1.898067304E0,-2.503301194E-1,4.535180095E0
2.533325083E0,-4.668578360E0,1.363711316E0,-5.755475762E-1,4.897610384E0
2.543331083E0,-4.435605408E0,1.770563212E0,-1.468876998E0,4.996707822E0
2.553338083E0,-3.130229132E0,2.060733043E0,-2.607571375E0,4.565564978E0
2.563345083E0,-1.149553826E0,1.130475824E0,-3.048328936E0,3.448442966E0
2.573351083E0,2.280718160E-1,3.552531418E-1,-3.021692530E0,3.051040362E0
2.583358083E0,1.334521138E0,1.681966200E-1,-2.607961092E0,2.934399057E0
2.593364083E0,2.442631654E0,1.583098555E-1,-2.067588611E0,3.204127662E0
2.603371083E0,3.430371389E0,1.713789672E-2,-1.571127989E0,3.773086897E0
2.613378083E0,4.241284305E0,-1.774691346E-1,-1.544003925E0,4.517071615E0
2.623384083E0,4.160310894E0,-5.450891376E-1,-1.823669379E0,4.575049607E0
2.633391083E0,3.681811602E0,-7.234546503E-1,-2.044346806E0,4.272993935E0
2.643398083E0,3.164117839E0,-6.777946204E-1,-2.012174548E0,3.810497823E0
2.653404083E0,2.579433696E0,-1.458394986E-1,-1.439128703E0,2.957336433E0
2.663411083E0,2.715262177E0,3.023554283E-1,-8.853747229E-1,2.871925468E0
2.673417083E0,3.991836239E0,-2.486505067E-1,-1.139751262E0,4.158799895E0
2.683424083E0,5.277171183E0,-9.151202399E-1,-1.889442223E0,5.679434185E0
2.693431083E0,5.475567210E0,-7.880140507E-1,-2.661432710E0,6.138894566E0
2.703437083E0,4.895004770E0,-3.050048018E-1,-3.157769810E0,5.833147503E0
2.713444083E0,3.130623819E0,-1.226769233E-1,-2.336354124E0,3.908248420E0
2.723450083E0,1.185590801E0,-2.677714866E-1,-6.380503647E-1,1.372747386E0
2.733457083E0,8.343216598E-2,-9.625347269E-1,7.890829217E-1,1.247431715E0
2.743464083E0,-2.793764555E-1,-2.156472428E0,2.048468216E0,2.987414697E0
2.753470083E0,-2.911170799E-1,-3.375567483E0,3.277152119E0,4.713696108E0
2.763477083E0,6.922927916E-2,-4.119080422E0,4.572909726E0,6.154926448E0
2.773484083E0,4.098138034E-1,-4.096932631E0,5.817598920E0,7.127219762E0
2.783490083E0,8.817723995E-1,-4.166918540E0,4.506592068E0,6.200814845E0
2.793497083E0,1.355587487E0,-3.841859835E0,2.075518020E0,4.572229158E0
2.803503083E0,1.403001974E0,-2.664410697E0,5.208712859E-1,3.055945974E0
2.813510083E0,1.211740134E0,-1.934317995E0,-8.383430824E-1,2.431608394E0
2.823517083E0,1.330191275E0,-1.778129217E0,-1.683819183E0,2.786826041E0
2.833523083E0,1.509836451E0,-1.406442475E0,-1.664867480E0,2.651314819E0
2.843530083E0,9.912556654E-1,-5.948527434E-1,-6.294562733E-1,1.316302693E0
2.853536083E0,4.747442096E-1,-4.788773140E-1,-4.513758123E-1,8.114466528E-1
2.863543083E0,-1.990292805E-1,-4.178040236E-2,-1.285627306E-1,2.405964094E-1
2.873550083E0,-8.268816626E-1,4.629293257E-1,4.941283143E-1,1.068737402E0
2.883556083E0,-1.129387364E0,7.525840169E-1,9.190346584E-1,1.639061690E0
2.893563083E0,-1.587168801E0,1.101038601E0,1.276243694E0,2.315208149E0
2.903570083E0,-2.187766727E0,1.244411159E0,1.543818129E0,2.952669436E0
2.913576083E0,-2.637507073E0,1.357147816E0,1.525671880E0,3.335561188E0
2.923583083E0,-2.961447498E0,1.431802727E0,1.534749098E0,3.629832658E0
2.933589083E0,-3.050839146E0,1.652065294E0,1.793682518E0,3.905667191E0
2.943596083E0,-3.129355558E0,1.623808039E0,1.674355172E0,3.902958365E0
2.953603083E0,-3.289450568E0,1.603913473E0,1.461369173E0,3.940637426E0
2.963609083E0,-3.369609463E0,1.643911352E0,1.313754752E0,3.972740114E0
2.973616083E0,-3.428135414E0,1.730144041E0,1.053296378E0,3.981826726E0
2.983623083E0,-3.429950974E0,1.729833554E0,8.216679928E-1,3.928361758E0
2.993629083E0,-3.455396887E0,1.718876749E0,6.096763122E-1,3.907174188E0
3.003636083E0,-3.374986562E0,1.664604063E0,3.543579331E-1,3.779816203E0
3.013642083E0,-3.143597036E0,1.720114605E0,2.224997118E-2,3.583502705E0
3.023649083E0,-2.810193477E0,1.741059039E0,-2.222019424E-1,3.313283516E0
3.033656083E0,-2.442667322E0,1.718842251E0,-5.096725523E-1,3.029984891E0
3.043662083E0,-2.088352951E0,1.749144276E0,-8.148059928E-1,2.843348827E0
3.053669083E0,-1.709940450E0,1.799591714E0,-1.118789871E0,2.722887705E0
3.063675083E0,-1.283151594E0,1.865279042E0,-1.432338916E0,2.679055560E0
3.073682083E0,-9.320958763E-1,1.844570836E0,-1.689599741E0,2.669455295E0
3.083689083E0,-5.240888625E-1,1.753359534E0,-1.757553742E0,2.537308406E0
3.093695083E0,-2.472495139E-2,1.636978308E0,-1.775747938E0,2.415282601E0
3.103702083E0,5.309985173E-1,1.367528086E0,-1.795224136E0,2.318387843E0
3.113708083E0,1.008541204E0,9.561486903E-1,-1.762480606E0,2.244485145E0
3.123715083E0,1.411029616E0,3.365622246E-1,-1.946374369E0,2.427478505E0
3.133722083E0,1.750468671E0,-3.332000756E-1,-2.224610325E0,2.850272611E0
3.143728083E0,2.033039460E0,-7.332715407E-1,-3.007726748E0,3.703695018E0
3.153735083E0,2.071389593E0,-1.079174108E0,-3.944642776E0,4.584264198E0
3.163742083E0,2.445020242E0,-1.483931239E0,-4.783666767E0,5.573476800E0
3.173748083E0,3.597051533E0,-1.795434344E0,-4.982685522E0,6.402305775E0
3.183755083E0,5.036691576E0,-2.133394638E0,-4.309347942E0,6.963484357E0
3.193761083E0,5.812047574E0,-2.545581534E0,-3.434683710E0,7.215049171E0
3.203768083E0,5.561705468E0,-2.706498078E0,-2.691906059E0,6.745669558E0
3.213775083E0,4.786974537E0,-2.467370639E0,-2.226263917E0,5.827460349E0
3.223781083E0,3.572921244E0,-2.040214579E0,-1.764484739E0,4.476789937E0
3.233788083E0,1.788480250E0,-1.457457093E0,-1.127536428E0,2.567913780E0
3.243794083E0,4.002699780E-1,-1.172055082E0,-1.010164976E-2,1.238560137E0
3.253801083E0,-3.810162663E-2,-9.229707116E-1,1.356446881E0,1.641119986E0
3.263808083E0,3.989561087E-1,-9.272388867E-1,2.751023748E0,2.930370214E0
3.273814083E0,1.225438991E0,-1.069898669E0,3.907404199E0,4.232515972E0
3.283821083E0,1.952715089E0,-1.095762951E0,4.574965607E0,5.093535410E0
3.293827083E0,2.356389901E0,-1.047935650E0,4.776343422E0,5.428093494E0
3.303834083E0,2.469338227E0,-1.083719148E0,4.671218086E0,5.393733111E0
3.313841083E0,2.705896692E0,-1.220589018E0,4.499645868E0,5.390596200E0
3.323847083E0,2.941531296E0,-1.328057918E0,4.353813386E0,5.419597328E0
3.333854083E0,3.105549788E0,-1.306570278E0,4.067941551E0,5.282017971E0
3.343860083E0,2.973575208E0,-1.147607873E0,3.481104755E0,4.719877505E0
3.353867083E0,2.348557556E0,-7.762284029E-1,2.764901237E0,3.709842581E0
3.363874083E0,1.538287833E0,-3.555577818E-1,2.266724749E0,2.762388800E0
3.373880083E0,6.034554595E-1,-6.648518085E-2,1.799805430E0,1.899441591E0
3.383887083E0,-3.472094196E-1,1.424352497E-2,1.747540970E0,1.781756633E0
3.393893083E0,-1.137697427E0,4.971419692E-2,1.697242051E0,2.043882951E0
3.403900083E0,-1.896560184E0,8.215922713E-2,1.620406129E0,2.495877941E0
3.413907083E0,-2.540254428E0,1.119075215E-1,1.441621371E0,2.922958780E0
3.423913083E0,-2.941017326E0,2.352583364E-1,1.309676319E0,3.228030585E0
3.433920083E0,-3.212728082E0,3.866553211E-1,1.167533138E0,3.440095594E0
3.443926625E0,-3.350621799E0,5.569841284E-1,9.568138111E-1,3.528794473E0
3.453932625E0,-3.516368144E0,8.154640970E-1,6.027615412E-1,3.659665024E0
3.463939625E0,-3.558712510E0,1.142509686E0,1.554356566E-1,3.740845273E0
3.473945625E0,-3.631253067E0,1.341343669E0,-2.331638637E-1,3.878088068E0
3.483952625E0,-3.664220839E0,1.512659487E0,-4.516110165E-1,3.989812726E0
3.493959625E0,-3.482630879E0,1.630847502E0,-6.736563997E-1,3.904125300E0
3.503965625E0,-3.335940610E0,1.718969720E0,-8.133688934E-1,3.839912188E0
3.513972625E0,-3.220114869E0,1.743535919E0,-8.601966123E-1,3.761515052E0
3.523978625E0,-3.005825526E0,1.774646323E0,-7.866012172E-1,3.578141715E0
3.533985625E0,-2.813102467E0,1.842402688E0,-7.020833695E-1,3.435245874E0
3.543992625E0,-2.544425831E0,1.879402699E0,-5.955671270E-1,3.218844128E0
3.553998625E0,-2.351765338E0,1.797799835E0,-5.254498020E-1,3.006489971E0
3.564005625E0,-2.043560355E0,1.816346326E0,-5.857471669E-1,2.796131729E0
3.574011625E0,-1.830795380E0,1.684124408E0,-6.839803898E-1,2.579906184E0
3.584018625E0,-1.589524060E0,1.566260035E0,-8.421325167E-1,2.385150815E0
3.594025625E0,-1.306313585E0,1.444414878E0,-9.915370627E-1,2.185391331E0
3.604031625E0,-9.357527250E-1,1.233682396E0,-9.904845639E-1,1.838114547E0
3.614038625E0,-4.763124329E-1,1.028686032E0,-9.123575766E-1,1.455151138E0
3.624044625E0,-2.061377406E-2,7.706697473E-1,-7.642403682E-1,1.085550610E0
3.634051625E0,2.840144670E-1,5.679464883E-1,-8.011528905E-1,1.022288308E0
3.644058625E0,6.381633621E-1,4.178624958E-1,-1.164890415E0,1.392419198E0
3.654064625E0,1.011483523E0,3.381430194E-1,-1.817159089E0,2.107013710E0
3.664071625E0,1.346039568E0,1.459789547E-1,-2.679531012E0,3.002169019E0
3.674078625E0,1.649098417E0,-2.381839907E-1,-3.503466847E0,3.879502178E0
3.684084625E0,1.916728985E0,-6.077227575E-1,-4.124112536E0,4.588189312E0
3.694091625E0,2.250934782E0,-9.679463249E-1,-4.393788460E0,5.030805553E0
3.704097625E0,2.884587602E0,-1.252583520E0,-4.407728223E0,5.414598710E0
3.714104625E0,3.728096407E0,-1.506661997E0,-4.174308543E0,5.795997326E0
3.724111625E0,4.856282169E0,-1.763862888E0,-3.279948843E0,6.119865456E0
3.734117625E0,5.830306090E0,-1.718271855E0,-2.144069899E0,6.445305501E0
3.744124625E0,5.884168301E0,-1.393822722E0,-1.492080942E0,6.228361254E0
3.754130625E0,4.999394526E0,-1.291736184E0,-1.181528302E0,5.297030972E0
3.764137625E0,3.197445214E0,-1.158804999E0,-1.140039822E0,3.586945179E0
3.774144625E0,1.463194381E0,-8.949748278E-1,-6.149680424E-1,1.822115098E0
3.784150625E0,5.421953505E-1,-9.894430286E-1,6.462997627E-1,1.300260239E0
3.794157625E0,7.803343177E-2,-1.449319523E0,2.323295245E0,2.739400864E0
3.804163625E0,7.596819520E-2,-2.280564378E0,3.946336130E0,4.558542958E0
3.814170625E0,-1.307729781E-1,-2.976228674E0,5.219367363E0,6.009728311E0
3.824177625E0,-2.462847233E-1,-3.839244960E0,6.272724552E0,7.358500617E0
3.834183625E0,-2.959685147E-1,-4.482278760E0,6.635165384E0,8.012729867E0
3.844190625E0,-1.662608993E-1,-4.576299942E0,6.073022257E0,7.606034655E0
3.854196625E0,6.005733669E-2,-4.077492101E0,4.659884720E0,6.192259226E0
3.864203625E0,3.313880235E-1,-3.204641090E0,2.717868866E0,4.215015268E0
3.874210625E0,5.463632458E-1,-2.389964906E0,1.082476469E0,2.679962752E0
3.884216625E0,7.706922591E-1,-1.741945769E0,2.703004074E-1,1.923903306E0
3.894223625E0,8.613299489E-1,-1.170716654E0,-4.168713927E-2,1.454030461E0
3.904229625E0,7.323894882E-1,-6.956084552E-1,-1.092517161E-1,1.015973141E0
3.914236625E0,3.905466431E-1,-2.584451777E-1,-1.412710690E-1,4.891606130E-1
3.924243625E0,-5.789328218E-3,1.537504891E-1,-1.241935448E-1,1.977290211E-1
3.934249625E0,-4.892874044E-1,5.264640015E-1,-6.520332500E-2,7.216772011E-1
3.944256625E0,-9.719276941E-1,8.568699852E-1,-4.407382652E-2,1.296461382E0
3.954262625E0,-1.424573522E0,1.145421599E0,3.121959999E-2,1.828216350E0
3.964269625E0,-1.779947993E0,1.379040084E0,1.043026328E-1,2.254073080E0
3.974276625E0,-2.170894001E0,1.568913794E0,1.914578672E-1,2.685316997E0
3.984282625E0,-2.386761509E0,1.729738829E0,2.369981754E-1,2.957159964E0
3.994289625E0,-2.564710407E0,1.846347512E0,3.535014622E-1,3.179890233E0
4.004295625E0,-2.685074757E0,1.931416899E0,4.883876641E-1,3.343429406E0
4.014302625E0,-2.932327779E0,1.991513704E0,6.434357965E-1,3.602593880E0
4.024309625E0,-3.143184223E0,1.979388918E0,7.501850505E-1,3.789507244E0
4.034315625E0,-3.150468099E0,1.975740840E0,7.808276765E-1,3.799828018E0
4.044322625E0,-3.087478384E0,1.981735405E0,7.517439182E-1,3.744985568E0
4.054328625E0,-3.009471264E0,1.969230550E0,7.044080763E-1,3.664829735E0
4.064335625E0,-2.928123046E0,2.005521002E0,5.402569985E-1,3.589971683E0
4.074342625E0,-2.741403909E0,2.086905765E0,7.999590352E-2,3.446283565E0
4.084348625E0,-2.551168841E0,2.026846966E0,-3.713497956E-1,3.279401127E0
4.094355625E0,-2.486433147E0,1.807134330E0,-4.240036802E-1,3.102879856E0
4.104361625E0,-2.173013032E0,1.526902134E0,-4.022359581E-1,2.686114207E0
4.114368625E0,-2.010629421E0,1.184622795E0,-5.647145860E-1,2.401013203E0
4.124375625E0,-1.845215199E0,1.171849260E0,-1.028915681E0,2.415929903E0
4.134381625E0,-1.098121718E0,1.295776025E0,-1.626229810E0,2.351495313E0
4.144388625E0,-6.036039788E-1,1.209560000E0,-1.752506279E0,2.213289727E0
4.154394625E0,-2.394931823E-1,1.092664219E0,-1.671386833E0,2.011170312E0
4.164401625E0,1.347806597E-1,8.425060076E-1,-1.412412483E0,1.650118547E0
4.174408625E0,6.052406144E-1,5.666305724E-1,-1.222520500E0,1.477140068E0
4.184414625E0,1.252987563E0,2.240600413E-1,-1.144904705E0,1.712012710E0
4.194421625E0,1.921479848E0,-3.484282717E-1,-9.764489074E-1,2.183332209E0
4.204427625E0,2.429672470E0,-8.320242888E-1,-1.104061904E0,2.795447266E0
4.214434625E0,2.731253142E0,-1.062685544E0,-1.805070555E0,3.441994190E0
4.224441625E0,2.782473582E0,-1.151556498E0,-2.729870568E0,4.064533789E0
4.234447625E0,2.930876500E0,-1.316428683E0,-3.358740073E0,4.648027153E0
4.244454625E0,3.488251222E0,-1.648078955E0,-3.427354518E0,5.160505772E0
4.254460625E0,4.616751564E0,-2.017897218E0,-3.106546154E0,5.919200385E0
4.264467625E0,5.387590004E0,-2.119853656E0,-3.016562183E0,6.528365260E0
4.274474625E0,5.467623183E0,-1.959729409E0,-2.884063107E0,6.484848698E0
4.284480625E0,5.138481660E0,-1.686126202E0,-2.451527023E0,5.937760528E0
4.294487625E0,4.181217028E0,-1.332110916E0,-1.919863239E0,4.789882064E0
4.304493625E0,2.828049120E0,-1.070528122E0,-1.129350088E0,3.227897753E0
4.314500625E0,1.841868837E0,-1.100463235E0,-2.019172204E-1,2.155057009E0
4.324507625E0,1.131176612E0,-1.263685629E0,8.378941624E-1,1.891699903E0
4.334513625E0,5.419491827E-1,-1.395609631E0,1.777005236E0,2.323614161E0
4.344520625E0,2.038163960E-1,-1.362790379E0,2.399688825E0,2.767172781E0
4.354526625E0,4.174151838E-2,-1.210356683E0,3.013905208E0,3.248127192E0
4.364533625E0,2.895073414E-2,-9.317508906E-1,3.455167676E0,3.578712274E0
4.374540625E0,1.123308599E-1,-6.939917001E-1,3.779011037E0,3.843847958E0
4.384546625E0,3.191158873E-1,-6.527071416E-1,4.112457865E0,4.176143108E0
4.394553625E0,5.311669171E-1,-7.230014911E-1,4.342846348E0,4.434544380E0
4.404559625E0,7.066968226E-1,-8.192881760E-1,4.446768912E0,4.576506011E0
4.414566625E0,7.523366797E-1,-8.369596311E-1,4.244169906E0,4.390841616E0
4.424572625E0,8.083734709E-1,-6.952017814E-1,3.647258066E0,3.799903234E0
4.434579625E0,7.140268922E-1,-3.971575052E-1,2.968143729E0,3.078546034E0
4.444585958E0,4.078105474E-1,-6.361302853E-2,2.330815934E0,2.367078152E0
4.454591958E0,1.179032564E-2,2.437712976E-1,1.796458922E0,1.812961146E0
4.464598958E0,-5.356640106E-1,4.401611450E-1,1.470360436E0,1.625619137E0
4.474604958E0,-1.029266660E0,5.285014638E-1,1.307892333E0,1.746220493E0
4.484611958E0,-1.463513639E0,5.904345873E-1,1.226557564E0,1.998731755E0
4.494618958E0,-1.866409017E0,5.923302546E-1,1.149259858E0,2.270492451E0
4.504624958E0,-2.233185559E0,5.519438285E-1,1.121556773E0,2.559228268E0
4.514631958E0,-2.542680438E0,5.390893096E-1,1.100635436E0,2.822629882E0
4.524637958E0,-2.789960357E0,6.432007384E-1,9.875105238E-1,3.028656966E0
4.534644958E0,-2.985837404E0,8.424282396E-1,6.793132154E-1,3.175905664E0
4.544651958E0,-3.165504799E0,1.045103259E0,4.337582977E-1,3.361667401E0
4.554657958E0,-3.226674861E0,1.231883500E0,1.963004581E-1,3.459407678E0
4.564664958E0,-3.238075177E0,1.411344196E0,3.188925236E-3,3.532284454E0
4.574670958E0,-3.255410417E0,1.456257537E0,-9.383136593E-2,3.567518370E0
4.584677958E0,-3.203171977E0,1.430778879E0,-6.742643639E-2,3.508843861E0
4.594684958E0,-3.114534620E0,1.353891502E0,-4.289151952E-2,3.396349184E0
4.604690958E0,-2.980886566E0,1.311598883E0,-9.807651758E-2,3.258158276E0
4.614697958E0,-2.850866125E0,1.222183262E0,-5.374519430E-2,3.102266612E0
4.624703958E0,-2.570122590E0,1.165985087E0,-1.233949614E-1,2.824938525E0
4.634710958E0,-2.280404749E0,1.174798595E0,-3.165005008E-1,2.584679888E0
4.644717958E0,-1.953558258E0,1.179878949E0,-6.300013069E-1,2.367573831E0
4.654723958E0,-1.516588815E0,1.195917276E0,-9.447077358E-1,2.150054063E0
4.664730958E0,-1.156153579E0,1.150617435E0,-1.198365798E0,2.024028697E0
4.674736958E0,-8.148176873E-1,1.049174091E0,-1.505235862E0,2.007592871E0
4.684743958E0,-4.516523856E-1,9.203026271E-1,-1.785920924E0,2.059237808E0
4.694749958E0,-8.939691067E-2,8.917696765E-1,-2.114713368E0,2.296792893E0
4.704756958E0,3.757736528E-1,7.820633394E-1,-2.365020976E0,2.519157225E0
4.714763958E0,9.243313587E-1,5.248291200E-1,-2.223599049E0,2.464594651E0
4.724769958E0,1.481021957E0,2.219135284E-1,-2.073863550E0,2.558042548E0
4.734776958E0,1.925378771E0,-2.533189237E-2,-2.171399785E0,2.902189199E0
4.744782958E0,2.273139583E0,-1.976411515E-1,-2.594037702E0,3.454744157E0
4.754789958E0,2.439817389E0,-3.993209749E-1,-3.100636958E0,3.965616683E0
4.764796958E0,2.443819808E0,-7.000502926E-1,-3.434231136E0,4.272735560E0
4.774802958E0,2.490414516E0,-9.183929265E-1,-3.500159662E0,4.392804080E0
4.784809958E0,2.762619361E0,-1.013046776E0,-3.393170818E0,4.491318037E0
4.794815958E0,3.355036447E0,-1.037213611E0,-3.297099895E0,4.816943985E0
4.804822958E0,3.885733833E0,-1.091036646E0,-3.080161178E0,5.077074085E0
4.814829958E0,4.361318872E0,-1.127229449E0,-2.833812135E0,5.321864312E0
4.824835958E0,4.842407895E0,-1.126749393E0,-2.437485520E0,5.537130491E0
4.834842958E0,4.814411427E0,-1.005896509E0,-2.041940092E0,5.325401817E0
4.844848958E0,3.903971298E0,-9.679434013E-1,-1.734651368E0,4.380287855E0
4.854855958E0,2.570746488E0,-1.054526924E0,-1.219283773E0,3.034372663E0
4.864861958E0,1.231517172E0,-1.121457955E0,-4.222191831E-1,1.718304842E0
4.874868958E0,3.273090059E-1,-1.386421609E0,6.373511839E-1,1.560612891E0
4.884875958E0,-1.439812535E-1,-1.877129010E0,1.996125988E0,2.743877344E0
4.894881958E0,-3.574338609E-1,-2.524980331E0,3.344428428E0,4.205768200E0
4.904888958E0,-5.401885861E-1,-3.201623927E0,4.370397259E0,5.444499213E0
4.914894958E0,-7.492335624E-1,-3.848976481E0,5.024147544E0,6.373227552E0
4.924901958E0,-8.221033180E-1,-4.256491744E0,5.054328532E0,6.658814665E0
4.934908958E0,-7.153963101E-1,-4.256703413E0,4.593750372E0,6.303479857E0
4.944914958E0,-4.159007549E-1,-3.739568644E0,3.651473908E0,5.243148747E0
4.954921958E0,-9.166563034E-2,-2.905692835E0,2.468425477E0,3.813735409E0
4.964927958E0,3.843140960E-2,-2.065652013E0,1.619644822E0,2.625194195E0
4.974934958E0,2.125562292E-1,-1.357072387E0,1.174875194E0,1.807527963E0
4.984941958E0,3.374480778E-1,-7.964191309E-1,9.212464408E-1,1.263665162E0
4.994947958E0,4.199809420E-1,-3.399579951E-1,7.471453755E-1,9.220529498E-1
5.004954958E0,3.021595466E-1,7.394973636E-2,6.012892123E-1,6.769916335E-1
5.014960958E0,2.683053374E-2,4.594847310E-1,4.674100471E-1,6.559864691E-1
5.024967958E0,-4.018376166E-1,7.797759086E-1,3.881849527E-1,9.592765478E-1
5.034974958E0,-8.918272716E-1,9.982939589E-1,4.073884515E-1,1.399254109E0
5.044980958E0,-1.362208289E0,1.170832721E0,4.797289610E-1,1.859193524E0
5.054987958E0,-1.824850516E0,1.262121791E0,5.683470956E-1,2.290425559E0
5.064993958E0,-2.198776449E0,1.366027690E0,6.710533655E-1,2.674128296E0
5.075000958E0,-2.508180696E0,1.447060744E0,7.944705462E-1,3.002688570E0
5.085006958E0,-2.761000852E0,1.510436375E0,9.191369116E-1,3.278621114E0
5.095013958E0,-2.907023953E0,1.576740877E0,1.036680783E0,3.465776551E0
5.105020958E0,-3.104929984E0,1.603250399E0,1.139929967E0,3.675655367E0
5.115026958E0,-3.117076989E0,1.621621181E0,1.151782200E0,3.697624433E0
5.125033958E0,-3.011182745E0,1.642342544E0,1.114392838E0,3.606436184E0
5.135039958E0,-2.914570954E0,1.663151615E0,9.872555852E-1,3.497923775E0
5.145046958E0,-2.771753297E0,1.709914137E0,7.788419621E-1,3.348584402E0
5.155053958E0,-2.611805636E0,1.711077441E0,5.791538465E-1,3.175647000E0
5.165059958E0,-2.463843598E0,1.649366511E0,3.719997136E-1,2.988196605E0
5.175066958E0,-2.312052219E0,1.596200118E0,1.059445310E-1,2.811523524E0
5.185072958E0,-2.170485281E0,1.537587629E0,-1.929218638E-1,2.666908494E0
5.195079958E0,-1.934408627E0,1.448199196E0,-4.708844626E-1,2.461899637E0
5.205085958E0,-1.755081539E0,1.327556520E0,-7.392694683E-1,2.321472995E0
5.215092958E0,-1.514206660E0,1.251638903E0,-9.870673048E-1,2.198573086E0
5.225099958E0,-1.143186793E0,1.279183674E0,-1.270284358E0,2.134668421E0
5.235105958E0,-7.928567147E-1,1.319628572E0,-1.541761079E0,2.178776850E0
5.245112958E0,-4.432382423E-1,1.324479422E0,-1.681601919E0,2.185975959E0
5.255118958E0,-2.359643877E-2,1.254554909E0,-1.705235195E0,2.117142386E0
5.265125958E0,5.140766752E-1,1.113087374E0,-1.755102589E0,2.140939847E0
5.275132958E0,1.106350504E0,8.579140055E-1,-1.826105475E0,2.301019140E0
5.285138958E0,1.824313742E0,4.144219941E-1,-1.777104638E0,2.580303686E0
5.295145958E0,2.383379479E0,-1.976768196E-1,-1.714349835E0,2.942544685E0
5.305151958E0,2.777715118E0,-6.930231088E-1,-1.888327889E0,3.429542903E0
5.315158958E0,2.780696028E0,-9.219424787E-1,-2.423432322E0,3.802009015E0
5.325164958E0,2.493809409E0,-9.800816363E-1,-3.207483130E0,4.179425009E0
5.335171958E0,2.176570478E0,-7.949181506E-1,-4.159315113E0,4.761224225E0
5.345178958E0,1.824713691E0,-5.211863047E-1,-4.926066349E0,5.278953011E0
5.355184958E0,1.892398136E0,-3.459356037E-1,-5.026598697E0,5.382149813E0
5.365191958E0,2.421933095E0,-2.972853076E-1,-4.626536880E0,5.230581418E0
5.375197958E0,3.580288736E0,-4.050775588E-1,-3.958611774E0,5.352864882E0
5.385204958E0,4.723699477E0,-4.232799411E-1,-3.373566273E0,5.820090383E0
5.395211958E0,5.064372879E0,-1.914515814E-1,-2.713974620E0,5.748928997E0
5.405217958E0,4.348425761E0,1.567790544E-1,-1.858744487E0,4.731629459E0
5.415224958E0,3.213482957E0,1.967105672E-1,-7.299864288E-1,3.301219161E0
5.425230958E0,2.138310977E0,-4.102652085E-1,9.451730280E-1,2.373614001E0
5.435237958E0,1.533559189E0,-9.555768326E-1,2.638034492E0,3.197523549E0
5.445243958E0,9.972250879E-1,-1.294048465E0,3.881272992E0,4.211092417E0
5.455251875E0,1.767794555E-1,-1.468086746E0,4.572177655E0,4.805344751E0
5.465258875E0,-3.896841788E-1,-1.612179974E0,4.976267034E0,5.245399091E0
5.475264875E0,-3.446284586E-1,-1.988639798E0,5.466967710E0,5.827623269E0
5.485271875E0,-6.181734860E-2,-2.258088558E0,5.785212947E0,6.210593705E0
5.495277875E0,4.070311135E-1,-2.493238136E0,5.809470706E0,6.334971240E0
5.505284875E0,8.396800482E-1,-2.344948654E0,5.402780485E0,5.949275901E0
5.515291875E0,1.029856060E0,-1.895032307E0,4.614561782E0,5.093714891E0
5.525297875E0,1.014401284E0,-1.346246560E0,3.689677277E0,4.056489636E0
5.535304875E0,9.124597567E-1,-8.404296613E-1,2.969500283E0,3.218203964E0
5.545310875E0,7.783217061E-1,-3.106336239E-1,1.990327743E0,2.159556077E0
5.555317875E0,6.489386111E-1,-7.797262073E-2,1.525557275E0,1.659676489E0
5.565323875E0,3.402342761E-1,2.699396342E-2,1.463173331E0,1.502452739E0
5.575330875E0,-2.123550850E-1,1.493144989E-1,1.351401465E0,1.376108797E0
5.585337875E0,-7.320029873E-1,1.778693765E-1,1.224505191E0,1.437664374E0
5.595343875E0,-1.338855094E0,2.717604572E-1,1.122318081E0,1.768045413E0
5.605350875E0,-1.853173844E0,3.422793397E-1,8.539226961E-1,2.068959259E0
5.615356875E0,-2.264434834E0,3.527522877E-1,8.759012103E-1,2.453426629E0
5.625363875E0,-2.656623960E0,4.181612885E-1,8.999646954E-1,2.835920693E0
5.635370875E0,-2.918964552E0,4.991408399E-1,8.757934754E-1,3.088124001E0
5.645376875E0,-3.158204550E0,6.180802229E-1,7.903822462E-1,3.313756665E0
5.655383875E0,-3.204881703E0,7.702885088E-1,6.714473216E-1,3.363844917E0
5.665389875E0,-3.293666995E0,1.009139959E0,3.751398146E-1,3.465160258E0
5.675396875E0,-3.278184738E0,1.133978890E0,2.113066792E-1,3.475205578E0
5.685402875E0,-3.161631019E0,1.287123608E0,-5.069535971E-3,3.413593939E0
5.695409875E0,-3.071337730E0,1.345322700E0,-2.773427209E-1,3.364510009E0
5.705416875E0,-2.923818326E0,1.357844512E0,-4.461426274E-1,3.254458260E0
5.715422875E0,-2.720710613E0,1.367961657E0,-6.657569575E-1,3.117181044E0
5.725429875E0,-2.580956896E0,1.400738224E0,-8.781944152E-1,3.065066313E0
5.735435875E0,-2.364015840E0,1.442779997E0,-1.060525802E0,2.965619663E0
5.745442875E0,-2.124340224E0,1.480640134E0,-1.168817405E0,2.840994671E0
5.755448875E0,-1.866336511E0,1.500384427E0,-1.255377320E0,2.703763602E0
5.765455875E0,-1.542347555E0,1.501757645E0,-1.259431779E0,2.494048999E0
5.775462875E0,-1.105704972E0,1.493339409E0,-1.309986806E0,2.273480043E0
5.785468875E0,-7.988957191E-1,1.409805209E0,-1.336562401E0,2.100519971E0
5.795475875E0,-4.850458342E-1,1.305786751E0,-1.476913118E0,2.030177544E0
5.805481875E0,-2.517588866E-1,1.162404837E0,-1.606398540E0,1.998770575E0
5.815488875E0,2.403088689E-2,9.697583771E-1,-1.729119902E0,1.982640771E0
5.825495875E0,3.822149456E-1,6.785451105E-1,-1.756814654E0,1.921694424E0
5.835501875E0,7.210254246E-1,3.190933755E-1,-1.742821097E0,1.912883588E0
5.845508875E0,1.078188559E0,-4.827753603E-3,-1.907399168E0,2.191046659E0
5.855514875E0,1.409157338E0,-3.072170958E-1,-2.240940721E0,2.664943163E0
5.865521875E0,1.880381523E0,-5.622331738E-1,-2.637359723E0,3.287492528E0
5.875527875E0,2.298895399E0,-8.390903565E-1,-3.011690283E0,3.880627661E0
5.885534875E0,2.721854913E0,-1.205864560E0,-3.066630721E0,4.273970927E0
5.895541875E0,3.262909471E0,-1.446352061E0,-3.119042823E0,4.739930446E0
5.905547875E0,4.095240739E0,-1.516580629E0,-3.240261451E0,5.437858750E0
5.915554875E0,4.797757387E0,-1.509606363E0,-3.386120245E0,6.063266251E0
5.925560875E0,5.311895458E0,-1.540641045E0,-3.134803408E0,6.357420908E0
5.935567875E0,5.711494176E0,-1.462356767E0,-2.603652864E0,6.445049361E0
5.945573875E0,5.591424526E0,-1.269591317E0,-2.043446335E0,6.086999529E0
5.955580875E0,4.580745580E0,-1.177728343E0,-1.441950277E0,4.944643032E0
5.965587875E0,2.957505890E0,-1.035542477E0,-6.981984063E-1,3.210400337E0
5.975593875E0,1.374524864E0,-9.123065597E-1,2.185548878E-1,1.664147860E0
5.985600875E0,1.230792117E-1,-9.268658343E-1,1.107343434E0,1.449288877E0
5.995606875E0,-6.126174617E-1,-1.146700678E0,2.115025610E0,2.482650988E0
6.005613875E0,-9.576324213E-1,-1.632136521E0,3.273549650E0,3.781144904E0
6.015619875E0,-1.202598013E0,-2.357495025E0,4.244510214E0,5.001988778E0
6.025626875E0,-1.502456680E0,-3.221766123E0,5.042086802E0,6.169261896E0
6.035633875E0,-1.710334552E0,-4.002705920E0,5.306384457E0,6.863280190E0
6.045639875E0,-1.743785303E0,-4.341918980E0,4.850570608E0,6.739516514E0
6.055646875E0,-1.608325197E0,-4.066752227E0,3.746446724E0,5.758562900E0
6.065652875E0,-1.249370475E0,-3.276505710E0,2.192530453E0,4.135650618E0
6.075659875E0,-9.439312255E-1,-2.441783516E0,9.694391191E-1,2.791616933E0
6.085666875E0,-6.487965238E-1,-1.699537376E0,4.178980176E-1,1.866548412E0
6.095672875E0,-2.825731283E-1,-1.069566840E0,1.988450933E-1,1.123992958E0
6.105679875E0,1.830178499E-4,-5.933444542E-1,1.738506583E-1,6.182893547E-1
6.115685875E0,3.782388389E-2,-2.575578627E-1,1.940853135E-1,3.247088046E-1
6.125692875E0,-1.344766045E-1,2.053249776E-2,2.609378457E-1,2.942687546E-1
6.135698875E0,-5.236491519E-1,2.955749971E-1,3.379422406E-1,6.897666063E-1
6.145705875E0,-9.466969585E-1,5.726458955E-1,3.754051320E-1,1.168369576E0
6.155711875E0,-1.346438933E0,8.156026760E-1,4.358280659E-1,1.633417163E0
6.165718875E0,-1.752981804E0,1.002883146E0,6.284632699E-1,2.115108955E0
6.175725875E0,-2.065228967E0,1.106869152E0,8.837069508E-1,2.504249984E0
6.185731875E0,-2.206938577E0,1.223634833E0,1.072457703E0,2.741901824E0
6.195738875E0,-2.416933726E0,1.322980196E0,1.218489575E0,3.012733324E0
6.205744875E0,-2.531864843E0,1.383515250E0,1.282835845E0,3.157549973E0
6.215751875E0,-2.611241380E0,1.388620747E0,1.388880802E0,3.267390244E0
6.225757875E0,-2.678001965E0,1.401305404E0,1.492652507E0,3.370958746E0
6.235764875E0,-2.667315009E0,1.400461651E0,1.460102373E0,3.347799446E0
6.245771875E0,-2.618657404E0,1.472667747E0,1.193649507E0,3.232787657E0
6.255777875E0,-2.554746752E0,1.545484878E0,8.006195513E-1,3.091317865E0
6.265784875E0,-2.543777960E0,1.559640695E0,4.529394308E-1,3.018019141E0
6.275790875E0,-2.462573583E0,1.556431158E0,6.419080652E-2,2.913909241E0
6.285797875E0,-2.352434260E0,1.516915675E0,-2.798838477E-1,2.813061513E0
6.295803875E0,-2.239614573E0,1.432235713E0,-5.527500133E-1,2.715272573E0
6.305810875E0,-2.059786379E0,1.333540560E0,-7.657558934E-1,2.570492645E0
6.315817875E0,-1.836757202E0,1.306836034E0,-9.746721578E-1,2.455907826E0
6.325823875E0,-1.704278006E0,1.258691230E0,-1.096334224E0,2.385543096E0
6.335830875E0,-1.498318605E0,1.275178039E0,-1.236638163E0,2.323857057E0
6.345836875E0,-1.131357291E0,1.255841881E0,-1.291918910E0,2.127477995E0
6.355843875E0,-6.261941117E-1,1.226617498E0,-1.269856195E0,1.873297709E0
6.365849875E0,-1.356507254E-1,1.184110871E0,-1.281976304E0,1.750423640E0
6.375856875E0,4.033099455E-1,1.032012513E0,-1.323022588E0,1.725716520E0
6.385863875E0,1.021973428E0,7.852889559E-1,-1.302462609E0,1.832352935E0
6.395869875E0,1.704265142E0,3.861577231E-1,-1.214879578E0,2.128278612E0
6.405876875E0,2.292058834E0,-7.274287105E-2,-1.157142781E0,2.568619209E0
6.415882875E0,2.695615532E0,-5.500543007E-1,-1.300328375E0,3.042984837E0
6.425889875E0,2.838926110E0,-9.116861701E-1,-1.744094621E0,3.454350761E0
6.435895875E0,2.782043227E0,-1.121210910E0,-2.451672034E0,3.873961046E0
6.445902875E0,2.763211100E0,-1.324491409E0,-3.222600521E0,4.446882862E0
6.455910083E0,3.120329795E0,-1.607248140E0,-3.659758244E0,5.070851508E0
6.465916083E0,3.961544153E0,-1.856806427E0,-3.728884027E0,5.748577065E0
6.475923083E0,4.558715610E0,-1.889474236E0,-3.552929614E0,6.080732665E0
6.485929083E0,4.525604582E0,-1.834084439E0,-3.149189898E0,5.810538665E0
6.495936083E0,4.105180421E0,-1.744340204E0,-2.707122853E0,5.217637701E0
6.505942083E0,3.678065291E0,-1.614561545E0,-2.115005729E0,4.539628014E0
6.515949083E0,2.811313219E0,-1.631217923E0,-1.262563548E0,3.486892692E0
6.525956083E0,1.651644879E0,-1.766038052E0,-2.875309825E-1,2.435055497E0
6.535962083E0,4.273151046E-1,-1.907272283E0,5.568725196E-1,2.032336774E0
6.545969083E0,-3.432087547E-1,-1.915075393E0,1.179301536E0,2.275095190E0
6.555975083E0,-5.180019110E-1,-1.745474564E0,1.615259410E0,2.433941329E0
6.565982083E0,-4.932828069E-1,-1.400428906E0,1.920113500E0,2.427213403E0
6.575988083E0,-3.515533161E-1,-1.049926335E0,2.233961631E0,2.493294930E0
6.585995083E0,-8.239194632E-2,-8.091917887E-1,2.638781766E0,2.761294803E0
6.596002083E0,1.792586750E-1,-7.307452512E-1,3.178815401E0,3.266648075E0
6.606008083E0,3.570508683E-1,-6.962896559E-1,3.676462569E0,3.758813860E0
6.616015083E0,4.226677376E-1,-5.598793772E-1,4.082411363E0,4.142245221E0
6.626021083E0,5.507498270E-1,-4.043934345E-1,4.342076855E0,4.395508029E0
6.636028083E0,7.725733083E-1,-2.141589510E-1,4.417114173E0,4.489279585E0
6.646034083E0,8.410371870E-1,-2.105933189E-2,4.245615338E0,4.328167816E0
6.656041083E0,7.514286071E-1,1.515294242E-1,3.933142473E0,4.007145596E0
6.666048083E0,4.364034319E-1,3.282246798E-1,3.348161291E0,3.392397887E0
6.676054083E0,4.408332825E-2,4.628202751E-1,2.489414642E0,2.532455568E0
6.686061083E0,-3.770331430E-1,5.018361139E-1,1.630437613E0,1.747089089E0
6.696067083E0,-8.313571215E-1,5.391118214E-1,9.940792859E-1,1.403563268E0
6.706074083E0,-1.266340265E0,5.030137432E-1,5.790182642E-1,1.480507562E0
6.716080083E0,-1.705249813E0,4.931144071E-1,2.695731600E-1,1.795468861E0
6.726087083E0,-2.079937638E0,5.686408451E-1,-2.199013554E-2,2.156380429E0
6.736093083E0,-2.341276603E0,6.327988341E-1,-1.879530461E-1,2.432557675E0
6.746100083E0,-2.502710041E0,7.601158154E-1,-2.619448824E-1,2.628678132E0
6.756107083E0,-2.610906919E0,9.216866630E-1,-2.647233331E-1,2.781442016E0
6.766113083E0,-2.591814006E0,1.086107736E0,-1.932118857E-1,2.816817475E0
6.776120083E0,-2.545986453E0,1.230684528E0,-6.403636694E-2,2.828556537E0
6.786126083E0,-2.433137530E0,1.386747884E0,3.633927584E-2,2.800812110E0
6.796133083E0,-2.386849802E0,1.487487223E0,1.130887321E-1,2.814686355E0
6.806139083E0,-2.346784680E0,1.553706356E0,1.173560301E-1,2.816944126E0
6.816146083E0,-2.299673663E0,1.567483273E0,1.426135898E-1,2.786725929E0
6.826153083E0,-2.243537470E0,1.594116463E0,1.179207981E-1,2.754736465E0
6.836159083E0,-2.122451574E0,1.606362287E0,1.213625423E-1,2.664569261E0
6.846166083E0,-1.992696011E0,1.613782696E0,1.977067865E-2,2.564278234E0
6.856172083E0,-1.868877127E0,1.573076135E0,-9.311924815E-2,2.444573876E0
6.866179083E0,-1.703651769E0,1.527299745E0,-2.392072535E-1,2.300498636E0
6.876185083E0,-1.456388807E0,1.454645752E0,-4.429920379E-1,2.105541395E0
6.886192083E0,-1.284225143E0,1.343908258E0,-7.295243526E-1,1.996879918E0
6.896198083E0,-1.109305687E0,1.170382193E0,-1.064611909E0,1.932291930E0
6.906205083E0,-9.041374147E-1,1.003839458E0,-1.334400101E0,1.898889610E0
6.916212083E0,-6.219075179E-1,8.309878698E-1,-1.645014721E0,1.945092089E0
6.926218083E0,-3.276177388E-1,5.808182564E-1,-1.741751057E0,1.865041548E0
6.936225083E0,4.757879376E-2,3.250128043E-1,-1.775607605E0,1.805735150E0
6.946231083E0,4.221783257E-1,4.750570357E-2,-1.782565792E0,1.832493419E0
6.956238083E0,7.721043617E-1,-1.848211312E-1,-1.892478243E0,2.052261654E0
6.966244083E0,1.124697313E0,-3.691116276E-1,-2.177238815E0,2.478216354E0
6.976251083E0,1.461164812E0,-5.201612878E-1,-2.608887291E0,3.035105150E0
6.986258083E0,1.732611859E0,-6.774174750E-1,-3.094859909E0,3.610955018E0
6.996264083E0,1.798905251E0,-8.531479400E-1,-3.311313307E0,3.863769834E0
7.006271083E0,1.900933902E0,-1.016926696E0,-3.375546141E0,4.005246728E0
7.016277083E0,2.352424904E0,-1.102299553E0,-3.225478520E0,4.141579278E0
7.026284083E0,3.032224535E0,-1.171943692E0,-2.983113770E0,4.412120286E0
7.036290083E0,3.747402159E0,-1.330808448E0,-2.739170272E0,4.828781197E0
7.046297083E0,4.291729404E0,-1.473609149E0,-2.444205140E0,5.154086143E0
7.056303083E0,4.490417207E0,-1.479760712E0,-2.200065175E0,5.214769912E0
7.066310083E0,4.290665211E0,-1.366630538E0,-2.065786207E0,4.954286995E0
7.076317083E0,3.355031769E0,-1.178514208E0,-1.838472190E0,4.003138007E0
7.086323083E0,2.018752373E0,-9.873590809E-1,-1.247908087E0,2.570508450E0
7.096330083E0,8.948801029E-1,-8.206938466E-1,-3.873838842E-1,1.274525426E0
7.106336083E0,3.227604568E-2,-8.336960077E-1,6.616194677E-1,1.064815053E0
7.116343083E0,-3.908811039E-1,-1.038980640E0,1.845816293E0,2.153904964E0
7.126349083E0,-4.871683735E-1,-1.435089447E0,2.934090714E0,3.302378395E0
7.136356083E0,-4.307895201E-1,-2.024113685E0,3.886809136E0,4.403396539E0
7.146363083E0,-4.058178163E-1,-2.714292709E0,4.660319753E0,5.408387302E0
7.156369083E0,-4.321297020E-1,-3.291892365E0,4.973718817E0,5.980064406E0
7.166376083E0,-3.981246346E-1,-3.457093457E0,4.610943525E0,5.776746366E0
7.176382083E0,-2.637784231E-1,-3.073246261E0,3.767620661E0,4.869228592E0
7.186389083E0,-7.905435562E-3,-2.315993535E0,2.665441561E0,3.531071687E0
7.196395083E0,1.437029260E-1,-1.586882288E0,1.888648317E0,2.470999472E0
7.206402083E0,3.603621465E-1,-1.043570119E0,1.460070798E0,1.830493433E0
7.216408083E0,5.393968731E-1,-7.126522118E-1,1.255343406E0,1.541009159E0
7.226415083E0,6.440515083E-1,-4.715913910E-1,1.074940431E0,1.338916620E0
7.236422083E0,5.923890191E-1,-2.474196678E-1,8.332177055E-1,1.051852170E0
7.246428083E0,3.248373878E-1,1.349069595E-2,6.266133571E-1,7.059359933E-1
7.256435083E0,-4.132578135E-2,3.214115041E-1,4.329301858E-1,5.407788097E-1
7.266441083E0,-4.487404722E-1,6.324649581E-1,2.537060825E-1,8.159330309E-1
7.276448083E0,-8.480608624E-1,8.994742602E-1,1.527536850E-1,1.245630306E0
7.286454083E0,-1.275716860E0,1.075606429E0,2.001993084E-1,1.680613715E0
7.296461083E0,-1.687621627E0,1.131701400E0,3.566216826E-1,2.063006021E0
7.306467083E0,-1.975541450E0,1.162225620E0,5.553416455E-1,2.358375872E0
7.316474083E0,-2.245486931E0,1.207545049E0,6.972417288E-1,2.643203101E0
7.326481083E0,-2.512161480E0,1.227148717E0,8.156912613E-1,2.912421932E0
7.336487083E0,-2.826052880E0,1.181210067E0,8.432879996E-1,3.176942989E0
7.346494083E0,-2.983681535E0,1.128928943E0,7.697941267E-1,3.281679305E0
7.356500083E0,-2.984745728E0,1.143054062E0,6.240334193E-1,3.256485431E0
7.366507083E0,-2.962097708E0,1.141375326E0,4.631788556E-1,3.208004850E0
7.376513083E0,-3.012498953E0,1.088413585E0,3.201268709E-1,3.219048817E0
7.386520083E0,-2.979319512E0,1.064996656E0,1.488851671E-1,3.167448409E0
7.396527083E0,-2.893133308E0,1.058436957E0,-4.405869685E-2,3.080982035E0
7.406533083E0,-2.798904843E0,1.085927057E0,-2.364169621E-1,3.011477855E0
7.416540083E0,-2.643850132E0,1.147204123E0,-4.105129842E-1,2.911106616E0
7.426546083E0,-2.396038116E0,1.270530379E0,-5.384488933E-1,2.764990653E0
7.436553083E0,-2.047872677E0,1.389299901E0,-6.302585113E-1,2.553656693E0
7.446559083E0,-1.771490580E0,1.425987671E0,-7.116529226E-1,2.382870033E0
7.456565333E0,-1.398638781E0,1.433644015E0,-7.200003346E-1,2.128362301E0
7.466571333E0,-1.033367897E0,1.382367734E0,-7.488425298E-1,1.881370484E0
7.476578333E0,-5.061069202E-1,1.321257899E0,-8.236015208E-1,1.637127397E0
7.486584333E0,3.083880007E-2,1.185804517E0,-9.810551246E-1,1.539335097E0
7.496591333E0,6.515657651E-1,1.083892518E0,-1.216197467E0,1.754564680E0
7.506598333E0,1.277363436E0,9.668511415E-1,-1.469988846E0,2.174241404E0
7.516604333E0,1.866587357E0,7.665711415E-1,-1.740158129E0,2.664569382E0
7.526611333E0,2.242100809E0,5.283219543E-1,-1.994985781E0,3.047311666E0
7.536617333E0,2.417236027E0,3.144904473E-1,-2.261487837E0,3.325095711E0
7.546624333E0,2.382508244E0,1.543708786E-1,-2.645336494E0,3.563422662E0
7.556630333E0,2.353046463E0,1.162116569E-1,-3.135426722E0,3.921891576E0
7.566637333E0,2.436931204E0,2.587919176E-2,-3.569567281E0,4.322165429E0
7.576644333E0,2.725401834E0,-1.705474931E-1,-3.762326592E0,4.648871152E0
7.586650333E0,3.591675019E0,-5.216309854E-1,-3.607638502E0,5.117351257E0
7.596657333E0,4.737750337E0,-9.418969792E-1,-3.183640523E0,5.785241149E0
7.606663333E0,5.208421376E0,-1.296079203E0,-2.659484417E0,5.990019357E0
7.616670333E0,5.024904758E0,-1.554033800E0,-1.964940448E0,5.614773356E0
7.626676333E0,4.610647656E0,-1.725391132E0,-1.173694056E0,5.060889655E0
7.636683333E0,3.833111231E0,-1.681356921E0,-4.946441849E-1,4.214780620E0
7.646689333E0,2.520366293E0,-1.564678948E0,1.368307666E-1,2.969711959E0
7.656696333E0,1.028743334E0,-1.425259400E0,5.336309338E-1,1.836964665E0
7.666702333E0,-2.243424618E-1,-1.395749087E0,9.662360144E-1,1.712325054E0
7.676709333E0,-9.627469808E-1,-1.373678772E0,1.458593792E0,2.222919469E0
7.686716333E0,-9.760020339E-1,-1.262740134E0,1.937950870E0,2.510527074E0
7.696722333E0,-7.245273221E-1,-1.146133205E0,2.384255830E0,2.742851988E0
7.706729333E0,-2.398948860E-1,-1.129754570E0,2.879149107E0,3.102159655E0
7.716735333E0,2.129637802E-1,-1.156995870E0,3.318121805E0,3.520500721E0
7.726742333E0,5.257991731E-1,-1.112786827E0,3.487964709E0,3.698737231E0
7.736748333E0,7.466327208E-1,-9.192773178E-1,3.508831083E0,3.703299444E0
7.746755333E0,8.524275631E-1,-6.473282880E-1,3.470134209E0,3.631459499E0
7.756761333E0,8.968634784E-1,-3.996399406E-1,3.479631257E0,3.615509627E0
7.766768333E0,9.117849880E-1,-7.455199957E-2,3.439749738E0,3.559324111E0
7.776775333E0,7.985641819E-1,2.872161099E-1,3.360247778E0,3.465755758E0
7.786781333E0,4.980102807E-1,6.132811207E-1,3.130036758E0,3.228197342E0
7.796788333E0,1.465166062E-1,7.508921251E-1,2.768405181E0,2.872172235E0
7.806794333E0,-2.860434508E-1,7.486602429E-1,2.245309907E0,2.384057380E0
7.816801333E0,-7.386337298E-1,6.886903220E-1,1.681726903E0,1.961652243E0
7.826807333E0,-1.263575701E0,6.020331243E-1,1.204587309E0,1.846645071E0
7.836814333E0,-1.716690475E0,5.134855217E-1,9.408615104E-1,2.023836444E0
7.846820333E0,-2.072561375E0,4.718106616E-1,7.092777836E-1,2.240801403E0
7.856827333E0,-2.408189800E0,4.911702079E-1,4.841026783E-1,2.504991355E0
7.866833333E0,-2.595578443E0,5.797572792E-1,3.173448388E-1,2.678405067E0
7.876840333E0,-2.705410788E0,7.358805683E-1,1.678455678E-1,2.808725668E0
7.886847333E0,-2.797648861E0,8.888127396E-1,5.378035069E-2,2.935935892E0
7.896853333E0,-2.695226693E0,1.040251824E0,-1.081617951E-2,2.889028863E0
7.906860333E0,-2.631592614E0,1.116386665E0,2.737330154E-2,2.858731916E0
7.916866333E0,-2.492823569E0,1.165744182E0,5.509027317E-2,2.752483202E0
7.926873333E0,-2.353007287E0,1.194900153E0,8.325616479E-2,2.640333550E0
7.936879333E0,-2.294938588E0,1.224607517E0,5.814705133E-2,2.601881583E0
7.946886333E0,-2.265897807E0,1.245094407E0,2.034589849E-2,2.585530295E0
7.956892333E0,-2.176913710E0,1.291042997E0,-9.445475221E-2,2.532719293E0
7.966899333E0,-2.089327097E0,1.315588731E0,-2.271725873E-1,2.479449296E0
7.976906333E0,-1.943844863E0,1.333442034E0,-3.756764428E-1,2.386992522E0
7.986912333E0,-1.786519679E0,1.310875875E0,-4.861737621E-1,2.268570706E0
7.996919333E0,-1.551705438E0,1.322724673E0,-7.104214990E-1,2.159187124E0
8.006925333E0,-1.328239474E0,1.264788414E0,-9.333525161E-1,2.057925351E0
8.016932333E0,-1.124692050E0,1.164703962E0,-1.169523895E0,1.997311610E0
8.026938333E0,-9.186537123E-1,1.044841889E0,-1.411388050E0,1.981826290E0
8.036945333E0,-6.214414948E-1,8.895144054E-1,-1.586169512E0,1.921811419E0
8.046951333E0,-1.985767061E-1,6.880061978E-1,-1.634557561E0,1.784534577E0
8.056958333E0,2.153745872E-1,4.266578776E-1,-1.578441832E0,1.649212471E0
8.066965333E0,6.576041847E-1,1.497986484E-1,-1.567599925E0,1.706532280E0
8.076971333E0,1.038365512E0,-7.973058611E-2,-1.858867278E0,2.130715246E0
8.086978333E0,1.424561827E0,-2.265720052E-1,-2.396322291E0,2.796975473E0
8.096984333E0,1.754706148E0,-3.331655771E-1,-3.088695774E0,3.567917397E0
8.106991333E0,2.107642915E0,-5.223101395E-1,-3.542470114E0,4.155004338E0
8.116997333E0,2.370351883E0,-7.188306722E-1,-3.646580958E0,4.408269305E0
8.127004333E0,2.785140497E0,-9.591100127E-1,-3.389813347E0,4.490850046E0
8.137010333E0,3.526842846E0,-1.153712951E0,-3.057876270E0,4.808355365E0
8.147017333E0,4.388880308E0,-1.289059036E0,-2.796760669E0,5.361512267E0
8.157023333E0,5.003169488E0,-1.436549789E0,-2.512136922E0,5.779810736E0
8.167030333E0,5.281351358E0,-1.646797245E0,-2.198382347E0,5.952940305E0
8.177037333E0,5.148492678E0,-1.621697195E0,-2.123156748E0,5.800402850E0
8.187043333E0,4.277683808E0,-1.525383028E0,-1.997488243E0,4.961384023E0
8.197050333E0,2.965277424E0,-1.263302051E0,-1.688730844E0,3.638765469E0
8.207056333E0,1.677352747E0,-8.271336776E-1,-1.078437139E0,2.158862900E0
8.217063333E0,6.590882081E-1,-4.644215351E-1,-1.797714758E-1,8.260765169E-1
8.227069333E0,-7.825562596E-2,-3.655451185E-1,8.575047004E-1,9.354472128E-1
8.237076333E0,-4.242353761E-1,-5.820549425E-1,2.130190948E0,2.248661176E0
8.247082333E0,-6.429528165E-1,-1.065853273E0,3.386009148E0,3.607560045E0
8.257089333E0,-7.272328287E-1,-1.692357580E0,4.399697657E0,4.769725488E0
8.267095333E0,-8.227646381E-1,-2.317783952E0,5.088393241E0,5.651620111E0
8.277102333E0,-9.031270158E-1,-2.950904383E0,5.397094653E0,6.217081773E0
8.287109333E0,-8.598903644E-1,-3.329896343E0,5.135227100E0,6.180467495E0
8.297115333E0,-8.965407121E-1,-3.215846110E0,4.366935707E0,5.496869920E0
8.307122333E0,-8.121238750E-1,-2.641541359E0,3.116736681E0,4.165493186E0
8.317128333E0,-5.705221868E-1,-1.996996638E0,1.860187579E0,2.788151533E0
8.327135333E0,-3.480063951E-1,-1.463580882E0,1.119535829E0,1.875243430E0
8.337141333E0,-1.122612780E-1,-9.903934935E-1,6.790910943E-1,1.206087302E0
8.347148333E0,-6.894510448E-2,-5.286651859E-1,2.975941137E-1,6.105755995E-1
8.357154333E0,-3.132938147E-1,-1.491919997E-1,1.908078030E-2,3.475274712E-1
8.367161333E0,-6.275793171E-1,2.131155154E-1,-1.748549907E-1,6.854548052E-1
8.377167333E0,-9.629943180E-1,5.932561612E-1,-2.788734488E-1,1.164938337E0
8.387174333E0,-1.299778737E0,8.840130526E-1,-2.540849090E-1,1.592313720E0
8.397181333E0,-1.535935498E0,1.151064162E0,-1.990296460E-1,1.929678564E0
8.407187333E0,-1.858325241E0,1.319611908E0,5.460276157E-3,2.279205586E0
8.417194333E0,-2.099367351E0,1.415239027E0,2.738625312E-1,2.546614510E0
8.427200333E0,-2.244204052E0,1.452001348E0,4.862108919E-1,2.716829177E0
8.437207333E0,-2.389595069E0,1.442232113E0,7.744543576E-1,2.896545807E0
8.447213333E0,-2.601152009E0,1.419030361E0,9.987220482E-1,3.126833010E0
8.457220833E0,-2.739772536E0,1.355447738E0,1.129823567E0,3.258848479E0
8.467226833E0,-2.735908111E0,1.375432352E0,1.138415465E0,3.266955328E0
8.477233833E0,-2.740513378E0,1.409805794E0,1.009191999E0,3.242905247E0
8.487239833E0,-2.740535597E0,1.447387603E0,7.989705634E-1,3.200596850E0
8.497246833E0,-2.749843195E0,1.404185158E0,5.793375222E-1,3.141497337E0
8.507253833E0,-2.710175099E0,1.349464575E0,3.478741018E-1,3.047477662E0
8.517259833E0,-2.592795753E0,1.251026407E0,7.469584107E-2,2.879797972E0
8.527266833E0,-2.457211686E0,1.176833134E0,-2.110890166E-1,2.732651472E0
8.537272833E0,-2.267166068E0,1.104342278E0,-5.357173665E-1,2.578101422E0
8.547279833E0,-1.993639167E0,1.031623380E0,-7.848169394E-1,2.377978460E0
8.557285833E0,-1.740579275E0,9.582782462E-1,-1.041197465E0,2.243213225E0
8.567292833E0,-1.451173675E0,9.279794365E-1,-1.326478293E0,2.174073488E0
8.577298833E0,-1.153710612E0,9.427749386E-1,-1.685246196E0,2.249428261E0
8.587305833E0,-7.864037275E-1,9.858177549E-1,-1.988718735E0,2.354839628E0
8.597311833E0,-2.846295941E-1,9.519270006E-1,-2.118008859E0,2.339474417E0
8.607318833E0,2.180099273E-1,8.754112136E-1,-2.152524973E0,2.333931636E0
8.617324833E0,6.560669518E-1,7.538084239E-1,-2.172280376E0,2.391119616E0
8.627331833E0,1.156406763E0,5.588219082E-1,-2.152693373E0,2.506720424E0
8.637338833E0,1.702000515E0,2.775860381E-1,-2.074925405E0,2.697994662E0
8.647344833E0,2.271387758E0,-1.261326277E-1,-1.922194963E0,2.978245332E0
8.657351833E0,2.697994180E0,-4.952863553E-1,-1.884703785E0,3.328151067E0
8.667357833E0,3.019696290E0,-7.862052146E-1,-2.057594111E0,3.737696865E0
8.677364833E0,3.301757787E0,-1.045856673E0,-2.366627791E0,4.194800087E0
8.687370833E0,3.939654517E0,-1.366138495E0,-2.591089536E0,4.909272561E0
8.697377833E0,4.934518499E0,-1.693915570E0,-2.710984354E0,5.879477778E0
8.707383833E0,5.657813812E0,-1.867546885E0,-2.887924608E0,6.621079749E0
8.717390833E0,5.556578044E0,-1.933815134E0,-2.912623247E0,6.564950473E0
8.727396833E0,5.035371859E0,-1.952175976E0,-2.709382217E0,6.042078516E0
8.737403833E0,4.255374926E0,-1.879488654E0,-2.399524226E0,5.234349040E0
8.747410833E0,3.110091906E0,-1.823997700E0,-1.948370608E0,4.098266377E0
8.757416833E0,1.586346098E0,-1.783560988E0,-1.413288395E0,2.773980503E0
8.767423833E0,3.508025336E-1,-1.872943573E0,-6.614053866E-1,2.017036720E0
8.777429833E0,-3.368113160E-2,-1.860487542E0,2.245471144E-1,1.874291791E0
8.787436833E0,-1.179979813E-1,-1.631420529E0,1.037155724E0,1.936788182E0
8.797442833E0,-1.394040531E-1,-1.327500386E0,1.805095114E0,2.245007602E0
8.807449833E0,9.620423913E-3,-9.639184704E-1,2.481995695E0,2.662617884E0
8.817455833E0,2.185548878E-1,-5.851867113E-1,3.058982563E0,3.122112113E0
8.827462833E0,2.570868695E-1,-3.508115968E-1,3.451731852E0,3.479025038E0
8.837468833E0,3.469275838E-1,-1.964553362E-1,3.764088943E0,3.785144518E0
8.847475833E0,4.207533592E-1,-6.049938619E-2,4.011297819E0,4.033758019E0
8.857481833E0,5.608994240E-1,1.444060537E-1,4.208935754E0,4.248599941E0
8.867488833E0,7.490008432E-1,3.681892294E-1,4.278417048E0,4.359061598E0
8.877495833E0,9.133286530E-1,6.055288821E-1,4.206589851E0,4.346979714E0
8.887501833E0,6.813701928E-1,8.118014011E-1,3.923427908E0,4.064058736E0
8.897508833E0,2.742344141E-1,9.837931564E-1,3.313592552E0,3.467412449E0
8.907514833E0,-2.708605707E-1,1.024072871E0,2.589301457E0,2.797601246E0
8.917521833E0,-8.525181949E-1,9.377226520E-1,1.976059659E0,2.347535478E0
8.927527833E0,-1.344339783E0,8.810923684E-1,1.435243521E0,2.154877532E0
8.937534833E0,-1.839531705E0,8.149685454E-1,9.565109984E-1,2.227771064E0
8.947540833E0,-2.262432747E0,7.115187290E-1,6.711423162E-1,2.464810915E0
8.957547833E0,-2.655572630E0,6.509842595E-1,4.665923870E-1,2.773725826E0
8.967553833E0,-2.895837645E0,6.508927506E-1,2.192273176E-1,2.976171644E0
8.977560833E0,-2.932846427E0,6.881053081E-1,1.001427774E-1,3.014150901E0
8.987566833E0,-2.891765059E0,7.853225774E-1,2.747263111E-2,2.996630016E0
8.997573833E0,-2.791194119E0,8.871664560E-1,-2.915538669E-2,2.928938198E0
9.007580833E0,-2.630141335E0,9.846763784E-1,-4.008492909E-2,2.808707499E0
9.017586833E0,-2.394243606E0,1.078985243E0,-1.345795155E-2,2.626174540E0
9.027593833E0,-2.220790046E0,1.173516593E0,-4.467031561E-2,2.512179345E0
9.037599833E0,-2.084380937E0,1.242810192E0,-3.955531754E-2,2.427094083E0
9.047606833E0,-1.933511079E0,1.307312582E0,-1.002025652E-1,2.336144652E0
9.057612833E0,-1.866199102E0,1.328894947E0,-1.203216648E-1,2.294153040E0
9.067619833E0,-1.770987135E0,1.357282010E0,-1.753253261E-1,2.238157469E0
9.077625833E0,-1.648356990E0,1.403686390E0,-3.491723299E-1,2.193020192E0
9.087632833E0,-1.509148234E0,1.444500248E0,-5.120957116E-1,2.150895482E0
9.097638833E0,-1.287469763E0,1.463106965E0,-6.943708920E-1,2.068915493E0
9.107645833E0,-1.081065390E0,1.396087641E0,-8.634500762E-1,1.965530237E0
9.117651833E0,-9.660056341E-1,1.274696228E0,-1.115765691E0,1.950115493E0
9.127658833E0,-8.415757155E-1,1.145559009E0,-1.364077059E0,1.970091711E0
9.137664833E0,-6.891902590E-1,9.830549455E-1,-1.600537291E0,2.000774814E0
9.147671833E0,-4.820070362E-1,8.022052431E-1,-1.847782127E0,2.071270823E0
9.157678833E0,-2.100547904E-1,4.582676330E-1,-1.924304638E0,1.989241207E0
9.167684833E0,4.670405030E-2,4.534018725E-2,-1.988433391E0,1.989498517E0
9.177691833E0,3.734599096E-1,-2.984091425E-1,-2.139459955E0,2.192215596E0
9.187697833E0,7.124651009E-1,-5.663463977E-1,-2.518471795E0,2.677882549E0
9.197704833E0,1.235438899E0,-7.448499048E-1,-3.019955907E0,3.346826009E0
9.207710833E0,1.721700370E0,-8.753433859E-1,-3.488778641E0,3.987738032E0
9.217717833E0,1.918359189E0,-1.002144935E0,-3.768238127E0,4.345574189E0
9.227723833E0,2.037718987E0,-1.039352230E0,-3.944621726E0,4.559889504E0
9.237730833E0,2.563942668E0,-1.047442730E0,-3.788154913E0,4.692659792E0
9.247736833E0,3.493433610E0,-1.048140011E0,-3.350171564E0,4.952406019E0
9.257743833E0,4.403543955E0,-1.174411802E0,-2.780073885E0,5.338469186E0
9.267749833E0,4.975130920E0,-1.251784206E0,-1.952288243E0,5.489109286E0
9.277756833E0,5.002950802E0,-1.214059725E0,-1.330432180E0,5.317283849E0
9.287763833E0,4.038516900E0,-1.221017327E0,-8.615568209E-1,4.306133093E0
9.297769833E0,2.459714879E0,-1.208883770E0,-3.821553040E-1,2.767244104E0
9.307776833E0,9.674919963E-1,-1.095103970E0,1.177629963E-1,1.466001907E0
9.317782833E0,-1.184628350E-1,-1.140826857E0,8.978306079E-1,1.456577894E0
9.327789833E0,-5.581810534E-1,-1.489954456E0,1.895986573E0,2.475135441E0
9.337795833E0,-6.539409041E-1,-2.085933081E0,3.160258677E0,3.842654087E0
9.347802833E0,-5.819195795E-1,-2.858243264E0,4.265189477E0,5.167206811E0
9.357808833E0,-5.439898610E-1,-3.713360547E0,5.164864297E0,6.384418119E0
9.367815833E0,-5.039118755E-1,-4.403671717E0,5.467461215E0,7.038421976E0
9.377821833E0,-4.690724105E-1,-4.638707859E0,4.954558661E0,6.803329409E0
9.387828833E0,-2.807441193E-1,-4.315629898E0,3.870213568E0,5.803622295E0
9.397834833E0,9.021669030E-3,-3.443044059E0,2.469641697E0,4.237188207E0
9.407841833E0,1.730501014E-1,-2.467903028E0,1.446540341E0,2.865828092E0
9.417847833E0,3.484080988E-1,-1.551361622E0,9.509466418E-1,1.852676605E0
9.427854833E0,5.146438551E-1,-8.603774375E-1,8.087459385E-1,1.288090690E0
9.437860833E0,5.123611021E-1,-3.499201888E-1,7.830754924E-1,9.990822110E-1
9.447867833E0,4.372629726E-1,1.018061641E-1,7.562599421E-1,8.794842252E-1
9.457875083E0,1.265892953E-1,5.029997098E-1,6.935721624E-1,8.660692248E-1
9.467881083E0,-2.800032771E-1,9.073709249E-1,5.823543931E-1,1.113939168E0
9.477888083E0,-7.105875599E-1,1.264639017E0,4.602787828E-1,1.521874858E0
9.487894083E0,-1.168125753E0,1.530008760E0,4.304639764E-1,1.972496848E0
9.497901083E0,-1.580247452E0,1.714371470E0,4.256925023E-1,2.370119333E0
9.507907083E0,-1.889493824E0,1.805459980E0,4.771996017E-1,2.656612902E0
9.517914083E0,-2.101226766E0,1.820708641E0,6.094845235E-1,2.846331896E0
9.527920083E0,-2.542840651E0,1.720666874E0,7.698958683E-1,3.165355070E0
9.537927083E0,-2.841466141E0,1.589865537E0,8.726712084E-1,3.370928254E0
9.547933083E0,-2.776759098E0,1.564030784E0,8.326318145E-1,3.293912434E0
9.557940083E0,-2.838074171E0,1.532637961E0,7.149249514E-1,3.303749658E0
9.567946083E0,-2.971880684E0,1.515358561E0,4.857317126E-1,3.371100958E0
9.577953083E0,-3.038238981E0,1.470740798E0,2.378833707E-1,3.383868067E0
9.587959083E0,-3.014009873E0,1.397534242E0,6.451744661E-3,3.322258133E0
9.597966083E0,-2.861647806E0,1.327446884E0,-2.064699356E-1,3.161292968E0
9.607973083E0,-2.731557198E0,1.286744416E0,-4.289681125E-1,3.049775329E0
9.617979083E0,-2.564665384E0,1.253718465E0,-6.394467529E-1,2.925441961E0
9.627986083E0,-2.432898379E0,1.205045365E0,-7.688714361E-1,2.821753380E0
9.637992083E0,-2.218061736E0,1.077273470E0,-8.648149625E-1,2.613086472E0
9.647999083E0,-1.919535064E0,9.473419064E-1,-9.940769470E-1,2.360139938E0
9.658005083E0,-1.713781486E0,8.294021049E-1,-1.139452761E0,2.218852728E0
9.668012083E0,-1.531185805E0,7.636144969E-1,-1.393884995E0,2.206932814E0
9.678018083E0,-1.282544653E0,7.529269561E-1,-1.714494700E0,2.269650163E0
9.688025083E0,-9.097220904E-1,7.675482112E-1,-2.033168099E0,2.355949290E0
9.698031083E0,-3.998168188E-1,7.801673797E-1,-2.274793761E0,2.437868184E0
9.708038083E0,1.383731890E-1,7.839157373E-1,-2.458715590E0,2.584367113E0
9.718044083E0,7.520472425E-1,7.866267988E-1,-2.516566772E0,2.741799609E0
9.728051083E0,1.382873518E0,6.900112081E-1,-2.433531632E0,2.882799133E0
9.738057083E0,1.966727942E0,4.178335521E-1,-2.263682882E0,3.027682920E0
9.748064083E0,2.488850970E0,5.750912011E-2,-2.113542756E0,3.265692795E0
9.758070083E0,2.765340071E0,-2.154245809E-1,-2.172344695E0,3.523151279E0
9.768077083E0,2.770859258E0,-3.479660493E-1,-2.495708585E0,3.745304091E0
9.778084083E0,2.719035970E0,-4.972340629E-1,-2.945402738E0,4.039281571E0
9.788090083E0,3.143901091E0,-7.022795436E-1,-3.346983662E0,4.645385911E0
9.798097083E0,4.285780447E0,-1.008578042E0,-3.437755837E0,5.585992204E0
9.808103083E0,5.222273430E0,-1.340291170E0,-3.221220578E0,6.280508117E0
9.818110083E0,5.396460814E0,-1.647918448E0,-2.651985948E0,6.234617390E0
9.828116083E0,4.870890852E0,-1.912763988E0,-1.831650828E0,5.544293330E0
9.838123083E0,4.107098308E0,-1.888533419E0,-1.101119585E0,4.652663681E0
9.848129083E0,2.999692966E0,-1.705260631E0,-2.868748518E-1,3.462422402E0
9.858136083E0,1.698143107E0,-1.531533129E0,5.015390754E-1,2.341116226E0
9.868142083E0,6.150078034E-1,-1.472429473E0,1.336130877E0,2.081232537E0
9.878149083E0,5.123915076E-3,-1.348725487E0,2.121738213E0,2.514132005E0
9.888155083E0,-1.346713167E-1,-1.168276611E0,2.686696190E0,2.932804634E0
9.898162083E0,3.155625343E-2,-1.233599658E0,3.237535479E0,3.464736626E0
9.908168083E0,3.685084873E-1,-1.334581364E0,3.716924132E0,3.966412854E0
9.918175083E0,8.512528574E-1,-1.428491741E0,4.117029219E0,4.440174509E0
9.928181083E0,1.175597325E0,-1.422243406E0,4.338416498E0,4.714516209E0
9.938188083E0,1.324442877E0,-1.242027250E0,4.225110322E0,4.598732201E0
9.948194083E0,1.192939582E0,-9.043970311E-1,4.035849985E0,4.304546891E0
9.958201083E0,1.051515900E0,-4.852282673E-1,3.819949733E0,3.991634768E0
9.968208083E0,9.808955687E-1,-1.208543462E-1,3.523798785E0,3.659770453E0
9.978214083E0,9.161487651E-1,1.151395699E-1,3.359880280E0,3.484448476E0
9.988221083E0,5.834918958E-1,2.979428270E-1,3.074333551E0,3.143367542E0
9.998227083E0,7.071681082E-2,3.955170688E-1,2.448292051E0,2.481041835E0
1.000823408E1,-4.650302303E-1,3.859273428E-1,1.745571628E0,1.847217728E0
1.001824008E1,-1.013865094E0,3.511808485E-1,1.162479097E0,1.581963359E0
1.002824708E1,-1.571622224E0,2.911507013E-1,7.387196839E-1,1.760815697E0
1.003825308E1,-2.087506859E0,2.604358622E-1,3.860356624E-1,2.138816321E0
1.004826008E1,-2.477928956E0,2.502777869E-1,1.536484551E-1,2.495271274E0
1.005826608E1,-2.772328663E0,3.020773932E-1,9.695962630E-2,2.790422573E0
1.006827308E1,-2.955520175E0,4.576469511E-1,7.182244621E-2,2.991604703E0
1.007827908E1,-3.095680858E0,6.609335893E-1,-9.304162636E-3,3.165463592E0
1.008828608E1,-3.102145540E0,8.882739186E-1,-5.978215210E-2,3.227369116E0
1.009829208E1,-3.050798215E0,1.047801164E0,-3.563994884E-2,3.225914946E0
1.010829908E1,-2.921385884E0,1.116252472E0,6.340837598E-2,3.128024247E0
1.011830508E1,-2.711748000E0,1.178487604E0,1.115531802E-1,2.958860315E0
1.012831208E1,-2.581840995E0,1.222948954E0,4.075034223E-2,2.857125769E0
1.013831808E1,-2.483439957E0,1.242587705E0,-4.182155214E-2,2.777273351E0
1.014832508E1,-2.378198261E0,1.300309956E0,-1.467919370E-1,2.714439321E0
1.015833208E1,-2.315777480E0,1.311227293E0,-2.803120100E-1,2.675951639E0
1.016833808E1,-2.202981182E0,1.333650780E0,-4.342926601E-1,2.611582012E0
1.017834508E1,-2.050011588E0,1.321899923E0,-5.853391043E-1,2.508503296E0
1.018835108E1,-1.833543572E0,1.341477863E0,-7.962948775E-1,2.407390791E0
1.019835808E1,-1.585331606E0,1.295064712E0,-9.818936884E-1,2.270370922E0
1.020836408E1,-1.368326815E0,1.198716923E0,-1.229464799E0,2.195637545E0
1.021837108E1,-1.124392673E0,1.102070342E0,-1.502207004E0,2.176107489E0
1.022837708E1,-7.933455420E-1,1.025690795E0,-1.807571994E0,2.224579796E0
1.023838408E1,-3.838088965E-1,8.932580853E-1,-1.947297059E0,2.176507550E0
1.024839008E1,9.554058015E-2,7.348783556E-1,-2.011331087E0,2.143508093E0
1.025839708E1,6.014954728E-1,4.977532956E-1,-2.027734866E0,2.172846942E0
1.026840308E1,1.067561245E0,2.519796190E-1,-2.089633491E0,2.360031539E0
1.027841008E1,1.485060629E0,8.471826106E-2,-2.321632297E0,2.757273794E0
1.028841608E1,1.836009343E0,-7.099660009E-2,-2.623294830E0,3.202756093E0
1.029842308E1,2.078151314E0,-2.918859887E-1,-2.862976878E0,3.549724907E0
1.030842908E1,2.234770739E0,-5.370866382E-1,-3.080830100E0,3.843719086E0
1.031843608E1,2.231439580E0,-7.283809295E-1,-3.206715975E0,3.974026764E0
1.032844208E1,2.495808572E0,-7.753902045E-1,-3.220382087E0,4.147427056E0
1.033844908E1,2.994847963E0,-7.676347500E-1,-3.094807284E0,4.374495349E0
1.034845508E1,3.671208846E0,-8.822223428E-1,-2.800161409E0,4.700744044E0
1.035846208E1,4.258292686E0,-1.065189907E0,-2.260034219E0,4.937149057E0
1.036846808E1,4.607899464E0,-1.104337015E0,-1.700124729E0,5.034155521E0
1.037847508E1,4.442871743E0,-1.090580564E0,-1.315154575E0,4.760053240E0
1.038848208E1,3.433307860E0,-1.115071042E0,-9.276923382E-1,3.727143594E0
1.039848808E1,1.971824960E0,-1.041402264E0,-4.271624557E-1,2.270480150E0
1.040849508E1,6.264081198E-1,-1.000260962E0,3.266207886E-1,1.224577586E0
1.041850108E1,-3.210524851E-1,-1.105095399E0,1.326650201E0,1.756220742E0
1.042850808E1,-7.238373506E-1,-1.459159217E0,2.432156513E0,2.927195149E0
1.043851408E1,-6.966156381E-1,-2.028948456E0,3.665217204E0,4.246848518E0
1.044852108E1,-5.624126834E-1,-2.705039198E0,4.750807754E0,5.495791062E0
1.045852638E1,-3.947519606E-1,-3.371761530E0,5.609088964E0,6.556407853E0
1.046853338E1,-3.511288083E-1,-3.900168562E0,5.782258934E0,6.983489431E0
1.047853938E1,-4.012283367E-1,-4.079852037E0,5.126580237E0,6.564145165E0
1.048854638E1,-3.047428465E-1,-3.746496133E0,3.867491105E0,5.393198394E0
1.049855238E1,-4.967385113E-2,-2.921229471E0,2.316680875E0,3.728680650E0
1.050855938E1,6.908368349E-2,-2.121444098E0,1.250759189E0,2.463675337E0
1.051856538E1,2.692935169E-1,-1.433366857E0,7.697577278E-1,1.649116886E0
1.052857238E1,5.142719722E-1,-8.903353545E-1,5.398688165E-1,1.161305750E0
1.053857838E1,5.718360561E-1,-4.613687038E-1,3.761898284E-1,8.254552337E-1
1.054858538E1,4.809276402E-1,-3.738241911E-2,2.138290219E-1,5.276473168E-1
1.055859138E1,1.456026864E-1,3.666923422E-1,7.340696856E-2,4.013128445E-1
1.056859838E1,-2.918368721E-1,7.087626439E-1,3.606796503E-2,7.673422597E-1
1.057860438E1,-7.305581403E-1,1.051548645E0,6.100875176E-2,1.281870437E0
1.058861138E1,-1.142970446E0,1.306774346E0,9.985991836E-2,1.738968842E0
1.059861738E1,-1.507864770E0,1.451781201E0,2.508748607E-1,2.108142076E0
1.060862438E1,-1.756396578E0,1.539796707E0,4.575844590E-1,2.380186206E0
1.061863038E1,-1.980233840E0,1.590854301E0,7.022905071E-1,2.635404225E0
1.062863738E1,-2.356358911E0,1.552892423E0,9.489482097E-1,2.977315049E0
1.063864338E1,-2.530859122E0,1.495734721E0,1.102107764E0,3.139603761E0
1.064865038E1,-2.591895867E0,1.496800668E0,1.133822916E0,3.200607885E0
1.065865738E1,-2.668321314E0,1.478657050E0,1.112146118E0,3.247034693E0
1.066866338E1,-2.775013704E0,1.477046435E0,9.614774041E-1,3.287370686E0
1.067867038E1,-2.833537901E0,1.440174770E0,7.058394746E-1,3.255956045E0
1.068867638E1,-2.797746509E0,1.378336664E0,4.389094023E-1,3.149577583E0
1.069868338E1,-2.727893917E0,1.308228548E0,1.161854175E-1,3.027600735E0
1.070868938E1,-2.689428009E0,1.202533401E0,-2.025615835E-1,2.952988451E0
1.071869638E1,-2.548023039E0,1.169906522E0,-4.814188063E-1,2.844796433E0
1.072870238E1,-2.382275525E0,1.134691958E0,-7.290904891E-1,2.737578393E0
1.073870938E1,-2.106733088E0,1.065117109E0,-9.227736604E-1,2.534622258E0
1.074871538E1,-1.880454029E0,9.946011499E-1,-1.106620792E0,2.397904998E0
1.075872238E1,-1.704212517E0,1.048092063E0,-1.312789961E0,2.392959414E0
1.076872838E1,-1.500518913E0,1.144111823E0,-1.508738344E0,2.415955351E0
1.077873538E1,-1.255741017E0,1.202127019E0,-1.660471251E0,2.403988279E0
1.078874138E1,-9.618704832E-1,1.215860375E0,-1.707500407E0,2.306310672E0
1.079874838E1,-4.858878332E-1,1.145796406E0,-1.680604384E0,2.091259784E0
1.080875438E1,1.628198129E-1,9.794252864E-1,-1.604376426E0,1.886745319E0
1.081876138E1,9.518682361E-1,6.920273280E-1,-1.447611405E0,1.865618863E0
1.082876738E1,1.719230506E0,2.428190786E-1,-1.277959267E0,2.155897615E0
1.083877438E1,2.230522152E0,-2.592778212E-1,-1.251826891E0,2.570899575E0
1.084878038E1,2.551342503E0,-5.463959903E-1,-1.549001101E0,3.034353565E0
1.085878738E1,2.517000051E0,-5.752803585E-1,-2.242161620E0,3.419579722E0
1.086879338E1,2.423100200E0,-5.993413585E-1,-3.070009242E0,3.956713458E0
1.087880038E1,2.542043091E0,-6.884502938E-1,-3.714648396E0,4.553521669E0
1.088880638E1,3.254276057E0,-8.710170311E-1,-3.912869006E0,5.163286472E0
1.089881338E1,4.348947918E0,-1.035236083E0,-3.915048556E0,5.942446208E0
1.090881938E1,5.162029567E0,-1.064759844E0,-3.662733307E0,6.418401518E0
1.091882638E1,5.380948736E0,-1.079574934E0,-3.088197591E0,6.297384830E0
1.092883238E1,4.963128925E0,-1.071451398E0,-2.252859832E0,5.554820811E0
1.093883938E1,4.122007538E0,-1.019167642E0,-1.295953488E0,4.439498200E0
1.094884538E1,2.882410684E0,-1.085306375E0,-2.388543009E-1,3.089212303E0
1.095885238E1,1.520592404E0,-1.130275556E0,7.864070897E-1,2.051380073E0
1.096885938E1,1.736769229E-1,-1.053996289E0,1.537307693E0,1.872000747E0
1.097886538E1,-6.351128697E-1,-1.007432572E0,2.177961385E0,2.482298237E0
1.098887238E1,-9.491644835E-1,-9.907253230E-1,2.710352855E0,3.037838455E0
1.099887838E1,-7.569565648E-1,-1.158866979E0,3.394088831E0,3.665486995E0
1.100888538E1,-2.665956116E-1,-1.445788389E0,4.056019371E0,4.314240422E0
1.101889138E1,4.145401078E-1,-1.785794624E0,4.570101893E0,4.924097608E0
1.102889838E1,9.955235481E-1,-1.908928800E0,4.765867842E0,5.229586273E0
1.103890438E1,1.327748308E0,-1.728400694E0,4.513609604E0,5.012280537E0
1.104891138E1,1.380971419E0,-1.384439403E0,4.052979988E0,4.500044589E0
1.105891738E1,1.171605431E0,-8.403793752E-1,3.604213203E0,3.881913136E0
1.106892438E1,9.686281103E-1,-2.415996417E-1,3.003635159E0,3.165191142E0
1.107893038E1,7.589954889E-1,2.008729076E-1,2.638368952E0,2.752710447E0
1.108893738E1,3.300262070E-1,4.552104163E-1,2.454541848E0,2.518116261E0
1.109894338E1,-1.328265202E-1,5.463179299E-1,2.187957931E0,2.259040963E0
1.110895038E1,-5.435250074E-1,6.172946495E-1,1.809493681E0,1.987646724E0
1.111895638E1,-1.035300402E0,6.643176654E-1,1.305484450E0,1.793726437E0
1.112896338E1,-1.465154368E0,6.490353826E-1,7.999002707E-1,1.791023364E0
1.113896938E1,-1.871051121E0,6.195940670E-1,4.532317916E-1,2.022411472E0
1.114897637E1,-2.231369998E0,5.889976341E-1,2.610409029E-1,2.322514292E0
1.115898238E1,-2.482704962E0,5.947179651E-1,1.813079779E-1,2.559372183E0
1.116898938E1,-2.636295530E0,6.741558981E-1,1.377451980E-1,2.724612639E0
1.117899538E1,-2.785947413E0,8.087702045E-1,5.739378378E-2,2.901535159E0
1.118900238E1,-2.905507185E0,9.428477365E-1,3.208586499E-2,3.054826241E0
1.119900838E1,-2.902734436E0,1.050422179E0,-4.399298877E-3,3.086952107E0
1.120901538E1,-2.852308633E0,1.189178360E0,-4.585730039E-2,3.090616864E0
1.121902138E1,-2.725877212E0,1.311012992E0,-9.741461277E-2,3.026326362E0
1.122902838E1,-2.571118956E0,1.414163431E0,-1.882744237E-1,2.940401019E0
1.123903438E1,-2.455961552E0,1.474054122E0,-2.925630963E-1,2.879266550E0
1.124904138E1,-2.310634269E0,1.499412035E0,-4.339242855E-1,2.788468659E0
1.125904738E1,-2.161072433E0,1.496703604E0,-5.390781268E-1,2.683460633E0
1.126905438E1,-1.980582919E0,1.458589114E0,-6.338112064E-1,2.540060540E0
1.127906038E1,-1.783499007E0,1.405435585E0,-7.304646579E-1,2.385308472E0
1.128906738E1,-1.550193933E0,1.357605068E0,-8.557037580E-1,2.231237700E0
1.129907338E1,-1.339231070E0,1.289948398E0,-1.044374696E0,2.132656849E0
1.130908038E1,-1.133703779E0,1.180052903E0,-1.280746050E0,2.078008556E0
1.131908638E1,-9.117575061E-1,1.076159868E0,-1.522599753E0,2.075507605E0
1.132909338E1,-5.363966668E-1,9.222365937E-1,-1.716637266E0,2.021159375E0
1.133909938E1,-8.177681923E-2,6.928231341E-1,-1.751927551E0,1.885720416E0
1.134910638E1,3.650808495E-1,3.936819202E-1,-1.748723277E0,1.829290185E0
1.135911238E1,8.005037034E-1,1.113572985E-1,-1.744041996E0,1.922209435E0
1.136911938E1,1.151667595E0,-1.402156466E-1,-1.975247920E0,2.290764724E0
1.137912538E1,1.435853385E0,-3.027466071E-1,-2.400024748E0,2.813085360E0
1.138913238E1,1.660641990E0,-4.321642005E-1,-2.962775985E0,3.423819395E0
1.139913938E1,1.883978730E0,-6.041577101E-1,-3.373856295E0,3.911174849E0
1.140914538E1,1.985382314E0,-7.960069022E-1,-3.499944484E0,4.101826582E0
1.141915238E1,2.028869811E0,-9.326958007E-1,-3.432360027E0,4.094792976E0
1.142915838E1,2.228017790E0,-9.026124609E-1,-3.359313101E0,4.130830066E0
1.143916538E1,2.752115423E0,-8.313910353E-1,-3.194475414E0,4.297676526E0
1.144917138E1,3.549910111E0,-9.036383548E-1,-2.942782016E0,4.698764739E0
1.145917883E1,4.280341367E0,-1.077717274E0,-2.505899112E0,5.075660263E0
1.146918483E1,4.739014505E0,-1.134627931E0,-2.015393733E0,5.273277057E0
1.147919183E1,4.629759280E0,-9.679100722E-1,-1.742451553E0,5.040600987E0
1.148919783E1,3.737698705E0,-8.652943611E-1,-1.547526433E0,4.136902706E0
1.149920483E1,2.254540760E0,-7.959481376E-1,-9.703688995E-1,2.580330071E0
1.150921083E1,8.508195788E-1,-6.837503019E-1,-1.176540919E-1,1.097839203E0
1.151921783E1,-2.364397663E-1,-8.310755780E-1,9.300488392E-1,1.269480690E0
1.152922383E1,-8.957466602E-1,-1.269618798E0,2.225029278E0,2.713862425E0
1.153923083E1,-1.089989410E0,-2.009184867E0,3.553931826E0,4.225557025E0
1.154923683E1,-1.039161319E0,-2.843721704E0,4.734372400E0,5.619687838E0
1.155924383E1,-8.766087234E-1,-3.781107557E0,5.701928716E0,6.897623380E0
1.156924983E1,-7.870089144E-1,-4.639843388E0,6.125923187E0,7.724924892E0
1.157925683E1,-8.929756647E-1,-5.166919008E0,5.730567209E0,7.767487246E0
1.158926283E1,-7.643702495E-1,-5.041773975E0,4.338850361E0,6.695473781E0
1.159926983E1,-4.163960141E-1,-4.163819223E0,2.394989126E0,4.821488264E0
1.160927583E1,-1.049850029E-1,-2.963620908E0,8.772988410E-1,3.092527121E0
1.161928283E1,8.118391156E-2,-1.843939044E0,1.630412762E-1,1.852912433E0
1.162928883E1,2.422805500E-1,-1.050100290E0,2.933767363E-2,1.078086816E0
1.163929583E1,3.504148632E-1,-4.376272541E-1,1.005931592E-1,5.695850890E-1
1.164930183E1,2.765978587E-1,4.955983043E-2,1.663240492E-1,3.265367385E-1
1.165930883E1,-6.110047996E-2,5.174566582E-1,1.864022914E-1,5.533899855E-1
1.166931483E1,-4.788431078E-1,9.301186404E-1,2.001749694E-1,1.065120381E0
1.167932183E1,-9.171533167E-1,1.263848766E0,2.183598100E-1,1.576757723E0
1.168932783E1,-1.361170993E0,1.516176587E0,2.293932867E-1,2.050414396E0
1.169933483E1,-1.817589444E0,1.635436690E0,3.822467398E-1,2.474751931E0
1.170934083E1,-2.185668161E0,1.701961631E0,5.349993284E-1,2.821354814E0
1.171934783E1,-2.363213602E0,1.793606212E0,6.565160179E-1,3.038554764E0
1.172935383E1,-2.634679359E0,1.795623501E0,8.237791300E-1,3.293085353E0
1.173936083E1,-2.787174743E0,1.782401485E0,9.829731575E-1,3.451309075E0
1.174936683E1,-2.821453460E0,1.766497351E0,1.052752806E0,3.491332266E0
1.175937383E1,-2.803063383E0,1.769781147E0,1.050861670E0,3.477585353E0
1.176937983E1,-2.743934584E0,1.808579762E0,9.621523920E-1,3.424306496E0
1.177938683E1,-2.699220341E0,1.787936167E0,8.174113660E-1,3.339261524E0
1.178939283E1,-2.600542729E0,1.728595114E0,6.036034671E-1,3.180440331E0
1.179939983E1,-2.504503382E0,1.648442359E0,3.103971040E-1,3.014340021E0
1.180940583E1,-2.355801671E0,1.548489178E0,-3.576412909E-2,2.819379244E0
1.181941283E1,-2.190021413E0,1.456078904E0,-3.785580969E-1,2.657003161E0
1.182941883E1,-1.976293402E0,1.319176290E0,-6.800849748E-1,2.471533384E0
1.183942583E1,-1.748571834E0,1.150648425E0,-9.066703554E-1,2.281128315E0
1.184943183E1,-1.418856699E0,1.072468813E0,-1.142669753E0,2.114009899E0
1.185943883E1,-1.062237355E0,1.073356128E0,-1.451026325E0,2.094258574E0
1.186944483E1,-6.662843764E-1,1.106015166E0,-1.707065374E0,2.140391695E0
1.187945183E1,-2.538153523E-1,1.090993377E0,-1.845776532E0,2.159069194E0
1.188945783E1,2.840390253E-1,1.021659433E0,-1.916627244E0,2.190416891E0
1.189946483E1,8.115654659E-1,8.448007473E-1,-1.887296441E0,2.221309223E0
1.190947083E1,1.342972119E0,5.387484169E-1,-1.808983512E0,2.316515771E0
1.191947783E1,1.894017815E0,1.174702701E-1,-1.703103300E0,2.549835995E0
1.192948383E1,2.319508588E0,-3.990888405E-1,-1.629662272E0,2.862724422E0
1.193949083E1,2.446858022E0,-7.631411648E-1,-1.899637574E0,3.190316838E0
1.194949683E1,2.470615259E0,-9.557086873E-1,-2.507480199E0,3.647571220E0
1.195950383E1,2.366925414E0,-1.105115865E0,-3.254569588E0,4.173228989E0
1.196950983E1,2.481844252E0,-1.388845865E0,-3.843911623E0,4.781642008E0
1.197951683E1,3.312654659E0,-1.765087879E0,-4.018931651E0,5.499184278E0
1.198952283E1,4.498867604E0,-2.082762136E0,-3.777199570E0,6.232571253E0
1.199952983E1,5.393092818E0,-2.408914855E0,-3.077205995E0,6.660143967E0
1.200953583E1,5.624536723E0,-2.649279564E0,-2.088255887E0,6.558575166E0
1.201954283E1,5.082752432E0,-2.594068108E0,-1.301922326E0,5.853081528E0
1.202954883E1,3.633386716E0,-2.016756426E0,-8.256536742E-1,4.236804162E0
1.203955583E1,1.709620607E0,-1.269727849E0,-5.493446680E-1,2.199270560E0
1.204956183E1,5.550294042E-2,-7.147095546E-1,-1.644973060E-1,7.354928195E-1
1.205956883E1,-7.595702702E-1,-4.539602816E-1,7.324116345E-1,1.148674773E0
1.206957483E1,-9.477202213E-1,-3.749334079E-1,1.851119571E0,2.113147497E0
1.207958183E1,-8.541250098E-1,-5.347968686E-1,3.013767214E0,3.177786972E0
1.208958783E1,-5.371164590E-1,-8.371253997E-1,4.168561900E0,4.285578297E0
1.209959483E1,-7.070570111E-2,-9.355866641E-1,4.809349200E0,4.900016472E0
1.210960083E1,5.053941447E-1,-7.868691659E-1,4.870287420E0,4.959262634E0
1.211960783E1,7.238993311E-1,-5.784229445E-1,4.581692244E0,4.674452606E0
1.212961383E1,9.638345629E-1,-2.714344749E-1,4.204142207E0,4.321743333E0
1.213962083E1,1.319354630E0,2.096174186E-1,3.808911359E0,4.036389704E0
1.214962683E1,1.465856618E0,8.061547449E-1,3.401897203E0,3.790979514E0
1.215963383E1,1.499347715E0,1.392693040E0,3.137941024E0,3.746239628E0
1.216963983E1,1.362433407E0,1.734934958E0,3.036797057E0,3.753446478E0
1.217964683E1,1.053092895E0,1.761664335E0,3.113676249E0,3.729268783E0
1.218965283E1,5.096415621E-1,1.578270509E0,3.084429646E0,3.502053477E0
1.219965983E1,-5.342191637E-2,1.311200103E0,2.687418905E0,2.990705600E0
1.220966583E1,-6.785746390E-1,9.893912807E-1,2.082625165E0,2.403473782E0
1.221967283E1,-1.214592406E0,6.770499775E-1,1.470909051E0,2.024155335E0
1.222967883E1,-1.729687082E0,4.571011135E-1,8.868998230E-1,1.996835027E0
1.223968583E1,-2.170202276E0,2.805268952E-1,3.729469626E-1,2.219811409E0
1.224969183E1,-2.554060873E0,1.876766190E-1,-2.232905477E-4,2.560946994E0
1.225969883E1,-2.803440528E0,1.990351278E-1,-3.828803587E-1,2.836457499E0
1.226970483E1,-2.932247087E0,2.743218300E-1,-6.609727657E-1,3.018312516E0
1.227971183E1,-3.003437523E0,4.130256790E-1,-8.438936249E-1,3.146964190E0
1.228971783E1,-2.983479806E0,5.259871611E-1,-8.376966727E-1,3.143175140E0
1.229972483E1,-2.868059862E0,6.396067473E-1,-8.151674239E-1,3.049485546E0
1.230973083E1,-2.752392581E0,7.572617894E-1,-7.257705132E-1,2.945480127E0
1.231973783E1,-2.601082428E0,8.807994229E-1,-6.647313559E-1,2.825474331E0
1.232974383E1,-2.461153879E0,9.776693675E-1,-6.657289640E-1,2.730624629E0
1.233975083E1,-2.354435177E0,1.045725110E0,-6.765999611E-1,2.663586589E0
1.234975683E1,-2.231571143E0,1.075506149E0,-7.270591664E-1,2.581712275E0
1.235976383E1,-2.127798268E0,1.043883530E0,-7.036866760E-1,2.472325470E0
1.236976983E1,-1.968566891E0,9.947870913E-1,-7.785930169E-1,2.339030578E0
1.237977683E1,-1.797375619E0,9.327688909E-1,-8.399993062E-1,2.192308317E0
1.238978283E1,-1.625895495E0,8.431986102E-1,-9.678148357E-1,2.071517708E0
1.239978983E1,-1.471755289E0,7.228459552E-1,-1.051924621E0,1.948105571E0
1.240979583E1,-1.311062109E0,5.898685768E-1,-1.166558114E0,1.851401260E0
1.241980283E1,-1.086685148E0,4.602910620E-1,-1.244896771E0,1.715377639E0
1.242980883E1,-7.717184454E-1,3.047878700E-1,-1.308057225E0,1.549018627E0
1.243981583E1,-3.720940000E-1,1.190344003E-1,-1.379914827E0,1.434150642E0
1.244982183E1,-2.978805542E-2,-1.474644399E-1,-1.426294942E0,1.434207220E0
1.245982858E1,3.588792926E-1,-3.947771037E-1,-1.550267608E0,1.639503878E0
1.246983458E1,7.423367715E-1,-5.413168064E-1,-1.876845127E0,2.089649588E0
1.247984158E1,1.147282768E0,-6.018723258E-1,-2.439219804E0,2.761937960E0
1.248984758E1,1.561792470E0,-6.876156038E-1,-2.963487006E0,3.419688023E0
1.249985458E1,1.934932537E0,-7.659934366E-1,-3.275159973E0,3.880384352E0
1.250986058E1,2.262523379E0,-8.200401279E-1,-3.316817876E0,4.097896860E0
1.251986758E1,2.826932302E0,-7.889379108E-1,-3.173440640E0,4.322579642E0
1.252987358E1,3.682333758E0,-7.789561290E-1,-2.923773887E0,4.766005487E0
1.253988058E1,4.465349609E0,-9.347820872E-1,-2.510527768E0,5.207294341E0
1.254988658E1,4.982317148E0,-1.116583716E0,-1.894647560E0,5.446093346E0
1.255989358E1,5.122373165E0,-1.155312749E0,-1.347644044E0,5.421217471E0
1.256989958E1,4.666655211E0,-1.031770730E0,-1.080967741E0,4.900072750E0
1.257990658E1,3.442280413E0,-7.815417677E-1,-8.484509448E-1,3.630422976E0
1.258991258E1,1.804558339E0,-4.463951540E-1,-5.451791847E-1,1.937245409E0
1.259991958E1,3.878920072E-1,-2.576490793E-1,7.898645483E-2,4.723156967E-1
1.260992558E1,-3.688113731E-1,-3.112876350E-1,1.046352224E0,1.152291108E0
1.261993258E1,-5.440202665E-1,-6.302500328E-1,2.322471957E0,2.467194590E0
1.262993858E1,-5.643849492E-1,-1.259229758E0,3.665072193E0,3.916241072E0
1.263994558E1,-5.623150349E-1,-2.009071139E0,4.748430276E0,5.186535946E0
1.264995158E1,-5.571835184E-1,-2.608357533E0,5.387803427E0,6.011855642E0
1.265995858E1,-5.012683493E-1,-2.991952714E0,5.315418406E0,6.120189852E0
1.266996458E1,-4.156224275E-1,-3.055784136E0,4.556951505E0,5.502396360E0
1.267997158E1,-3.716408408E-1,-2.805682935E0,3.361235665E0,4.394073150E0
1.268997758E1,-1.822056717E-1,-2.367379451E0,2.035146797E0,3.127220308E0
1.269998458E1,1.272459376E-1,-1.939416474E0,1.153536438E0,2.260127011E0
1.270999058E1,3.613205051E-1,-1.446989408E0,6.406361496E-1,1.623189924E0
1.271999758E1,4.691770756E-1,-9.967210579E-1,3.673032300E-1,1.161245736E0
1.273000358E1,3.445553684E-1,-5.594414207E-1,1.699234490E-1,6.786509292E-1
1.274001058E1,-2.219603062E-2,-8.696563840E-2,-8.529918194E-3,9.015789229E-2
1.275001658E1,-3.645388126E-1,3.428918356E-1,-1.285146372E-1,5.167004633E-1
1.276002358E1,-6.920624113E-1,7.692836648E-1,-1.210033040E-1,1.041820300E0
1.277002958E1,-1.083101975E0,1.072742463E0,-2.208018266E-2,1.524589720E0
1.278003658E1,-1.433137354E0,1.281990045E0,7.019348502E-2,1.924138320E0
1.279004258E1,-1.627268422E0,1.450066797E0,2.165304355E-1,2.190338253E0
1.280004958E1,-1.853513567E0,1.546653444E0,4.212987582E-1,2.450539138E0
1.281005558E1,-2.100173097E0,1.526328523E0,6.724214678E-1,2.681894186E0
1.282006258E1,-2.222722551E0,1.496225595E0,7.999925105E-1,2.796278703E0
1.283006858E1,-2.236879830E0,1.463257531E0,8.438969140E-1,2.803019082E0
1.284007558E1,-2.311724190E0,1.419114561E0,8.017501836E-1,2.828561158E0
1.285008158E1,-2.432694311E0,1.372708426E0,6.178086197E-1,2.860772191E0
1.286008858E1,-2.468175800E0,1.306127059E0,3.617929602E-1,2.815804294E0
1.287009458E1,-2.407042576E0,1.247520124E0,5.265300751E-2,2.711629171E0
1.288010158E1,-2.304473643E0,1.244075237E0,-2.233881962E-1,2.628350101E0
1.289010758E1,-2.198827904E0,1.282115760E0,-4.940452838E-1,2.592825817E0
1.290011458E1,-2.131458040E0,1.286587126E0,-6.341013745E-1,2.569144675E0
1.291012058E1,-1.958161186E0,1.228910191E0,-6.810112468E-1,2.410060540E0
1.292012758E1,-1.732410715E0,1.221383655E0,-7.486985421E-1,2.248015663E0
1.293013358E1,-1.603387808E0,1.130338122E0,-7.860727020E-1,2.113392303E0
1.294014058E1,-1.397087515E0,1.114494506E0,-9.063136753E-1,2.003835324E0
1.295014658E1,-1.113716242E0,1.138707534E0,-1.154477767E0,1.967190288E0
1.296015358E1,-7.395102274E-1,1.072338128E0,-1.297117084E0,1.838286476E0
1.297015958E1,-3.013426906E-1,9.862340766E-1,-1.420057132E0,1.755000664E0
1.298016658E1,1.835265577E-1,8.161031976E-1,-1.525706964E0,1.739967863E0
1.299017258E1,5.649065208E-1,6.271741050E-1,-1.631483095E0,1.836900603E0
1.300017958E1,9.160704124E-1,4.749608490E-1,-1.685167551E0,1.975996580E0
1.301018558E1,1.310712445E0,3.019999176E-1,-1.724043349E0,2.186663333E0
1.302019258E1,1.717548262E0,6.168783277E-2,-1.681609959E0,2.404493600E0
1.303019858E1,2.021556698E0,-1.136947230E-1,-1.719038132E0,2.656070420E0
1.304020558E1,1.927705963E0,-1.358799362E-1,-2.111456469E0,2.862300134E0
1.305021158E1,1.835226400E0,-1.341924298E-1,-2.607441859E0,3.191365946E0
1.306021858E1,2.271801156E0,-3.153350776E-1,-2.835505489E0,3.646999874E0
1.307022458E1,3.129739720E0,-6.830173534E-1,-2.730528088E0,4.209224044E0
1.308023058E1,4.025743657E0,-1.167280245E0,-2.452066137E0,4.856107856E0
1.309023758E1,4.448443555E0,-1.606426314E0,-2.095761373E0,5.173149069E0
1.310024358E1,4.543081325E0,-1.790202548E0,-1.707710906E0,5.173073518E0
1.311025058E1,4.408046311E0,-1.671253809E0,-1.171644022E0,4.857644624E0
1.312025658E1,3.825432082E0,-1.405646669E0,-5.110407277E-1,4.107424473E0
1.313026358E1,2.839986795E0,-1.223485436E0,1.755592147E-1,3.097299251E0
1.314026958E1,1.723715905E0,-1.215157247E0,1.028933442E0,2.346594913E0
1.315027658E1,6.430136275E-1,-1.292107482E0,1.895281252E0,2.382246691E0
1.316028258E1,-1.194738185E-1,-1.278533463E0,2.552299107E0,2.857123124E0
1.317028958E1,-5.205483735E-1,-1.318307394E0,3.004100597E0,3.321675088E0
1.318029558E1,-5.933695972E-1,-1.350012751E0,3.258255672E0,3.576430054E0
1.319030258E1,-4.441930926E-1,-1.343182034E0,3.317832953E0,3.606863039E0
1.320030858E1,-1.677414143E-1,-1.269408006E0,3.230584309E0,3.475084006E0
1.321031558E1,2.145577312E-1,-1.123237848E0,3.020344162E0,3.229578477E0
1.322032158E1,4.712504983E-1,-8.288781944E-1,2.656665767E0,2.822585533E0
1.323032858E1,5.306190330E-1,-3.932384089E-1,2.313656695E0,2.406075707E0
1.324033458E1,5.882392502E-1,1.234902710E-2,2.062325824E0,2.144613187E0
1.325034158E1,7.969105893E-1,2.678407761E-1,2.001428243E0,2.170833983E0
1.326034758E1,9.487931854E-1,4.338040522E-1,2.097138977E0,2.342303642E0
1.327035458E1,7.816394162E-1,5.107744601E-1,2.101056612E0,2.299193252E0
1.328036058E1,3.730225378E-1,5.539833373E-1,1.813488207E0,1.932558622E0
1.329036758E1,-9.239653230E-2,5.787983358E-1,1.374718992E0,1.494455399E0
1.330037358E1,-5.647311044E-1,5.852957618E-1,1.049786879E0,1.327985256E0
1.331038058E1,-1.034940214E0,5.950547647E-1,8.572696424E-1,1.469728770E0
1.332038658E1,-1.437819804E0,6.116032621E-1,7.632440758E-1,1.738943892E0
1.333039358E1,-1.797738732E0,6.574191204E-1,7.097082118E-1,2.041506844E0
1.334039958E1,-2.093923593E0,7.567542511E-1,6.381301061E-1,2.316118098E0
1.335040658E1,-2.307804801E0,8.725750217E-1,5.951986063E-1,2.538033008E0
1.336041258E1,-2.458793943E0,1.030079716E0,5.584452745E-1,2.723709419E0
1.337041958E1,-2.526201230E0,1.170947034E0,4.726445476E-1,2.824217144E0
1.338042558E1,-2.563312923E0,1.311718751E0,3.392167874E-1,2.899352902E0
1.339043258E1,-2.604971995E0,1.410070088E0,2.000893077E-1,2.968873941E0
1.340043858E1,-2.623166776E0,1.431589303E0,9.458456039E-2,2.989882625E0
1.341044558E1,-2.624189454E0,1.402611380E0,-6.249737978E-2,2.976171181E0
1.342045158E1,-2.524910749E0,1.361735249E0,-2.113324801E-1,2.876483721E0
1.343045858E1,-2.476685838E0,1.313882806E0,-3.866564906E-1,2.830152648E0
1.344046458E1,-2.392192987E0,1.291207596E0,-5.628460351E-1,2.776076368E0
1.345047158E1,-2.247327050E0,1.295315557E0,-7.669418550E-1,2.704906851E0
1.346047721E1,-2.054774145E0,1.343648642E0,-1.019230499E0,2.658254930E0
1.347048421E1,-1.862520034E0,1.386774196E0,-1.228774828E0,2.627167890E0
1.348049021E1,-1.592186297E0,1.380150470E0,-1.356089762E0,2.505763750E0
1.349049721E1,-1.312199392E0,1.341980723E0,-1.441420519E0,2.366531771E0
1.350050321E1,-1.110191540E0,1.205599681E0,-1.485929525E0,2.212234707E0
1.351050921E1,-8.780477232E-1,1.037604497E0,-1.525304675E0,2.043072502E0
1.352051621E1,-5.133329093E-1,8.466829661E-1,-1.572570058E0,1.858321638E0
1.353052221E1,-9.946581602E-2,6.197569120E-1,-1.618523326E0,1.735975183E0
1.354052921E1,2.881338304E-1,3.391165808E-1,-1.621030612E0,1.681000120E0
1.355053521E1,6.831290352E-1,4.787466288E-2,-1.771629159E0,1.899375461E0
1.356054221E1,1.050114323E0,-2.395876148E-1,-2.022050203E0,2.291032374E0
1.357054821E1,1.452652436E0,-4.543894672E-1,-2.450212569E0,2.884477513E0
1.358055521E1,1.810931804E0,-6.146408907E-1,-2.890368744E0,3.465759498E0
1.359056121E1,2.013106302E0,-7.381504574E-1,-3.243407253E0,3.888078406E0
1.360056821E1,2.076323474E0,-8.169928515E-1,-3.412458444E0,4.077188874E0
1.361057421E1,2.292104443E0,-8.677250487E-1,-3.296975935E0,4.108130944E0
1.362058121E1,2.941090416E0,-8.991245967E-1,-2.978626617E0,4.281431350E0
1.363058721E1,3.927385889E0,-9.467694640E-1,-2.624723890E0,4.817666223E0
1.364059421E1,4.819138316E0,-1.161186570E0,-2.122216516E0,5.392239915E0
1.365060021E1,5.323111587E0,-1.332670494E0,-1.735205684E0,5.755212106E0
1.366060721E1,5.220892317E0,-1.400034512E0,-1.622908738E0,5.643726251E0
1.367061321E1,4.286791431E0,-1.340993421E0,-1.419047903E0,4.710471428E0
1.368062021E1,2.787307475E0,-1.047772513E0,-1.036868041E0,3.153094596E0
1.369062621E1,1.205805210E0,-7.077387965E-1,-3.448628954E-1,1.440066258E0
1.370063321E1,-2.610840261E-2,-4.917189690E-1,4.977595083E-1,7.001669239E-1
1.371063921E1,-6.587397140E-1,-5.537202126E-1,1.520802319E0,1.747393424E0
1.372064621E1,-7.190046269E-1,-9.804441637E-1,2.859759740E0,3.107485186E0
1.373065221E1,-5.504171205E-1,-1.739483214E0,4.106289053E0,4.493369632E0
1.374065921E1,-4.647940028E-1,-2.718528724E0,5.101070005E0,5.798909129E0
1.375066521E1,-4.512255388E-1,-3.573610338E0,5.574516717E0,6.636982143E0
1.376067221E1,-4.634538209E-1,-4.054028978E0,5.038116542E0,6.483252169E0
1.377067821E1,-3.835779315E-1,-3.957524485E0,3.883613048E0,5.558019646E0
1.378068521E1,-2.287986249E-1,-3.307133133E0,2.372798942E0,4.076720887E0
1.379069121E1,2.834145427E-2,-2.525222991E0,1.119158172E0,2.762258026E0
1.380069821E1,2.486189318E-1,-1.810975366E0,5.681143034E-1,1.914209239E0
1.381070421E1,4.740197396E-1,-1.220089081E0,4.161662916E-1,1.373501533E0
1.382071121E1,5.200466824E-1,-7.421025905E-1,3.906315739E-1,9.867916868E-1
1.383071721E1,3.203455567E-1,-2.476538488E-1,2.640404514E-1,4.833953501E-1
1.384072421E1,-6.766047120E-2,2.339693177E-1,1.368741091E-1,2.793816435E-1
1.385073021E1,-5.404786080E-1,6.551167792E-1,1.343526435E-1,8.598521692E-1
1.386073621E1,-9.064710385E-1,1.052911046E0,1.824261117E-1,1.401281806E0
1.387074321E1,-1.314724220E0,1.354958911E0,3.004043587E-1,1.911715513E0
1.388074921E1,-1.604351429E0,1.512341398E0,4.951527464E-1,2.259711542E0
1.389075621E1,-1.813178889E0,1.615039847E0,7.745596075E-1,2.548708296E0
1.390076221E1,-2.094432301E0,1.628937509E0,1.124099216E0,2.881611202E0
1.391076921E1,-2.310944756E0,1.630202847E0,1.324207234E0,3.122747474E0
1.392077521E1,-2.481826710E0,1.629127252E0,1.415910141E0,3.289121607E0
1.393078221E1,-2.558377288E0,1.644266862E0,1.375885950E0,3.337958958E0
1.394078821E1,-2.702096002E0,1.658670893E0,1.222017785E0,3.397916921E0
1.395079521E1,-2.724220111E0,1.646487635E0,9.813930206E-1,3.330980187E0
1.396080121E1,-2.651279604E0,1.636529827E0,6.306713978E-1,3.178877133E0
1.397080821E1,-2.624907492E0,1.571135444E0,3.107723491E-1,3.074928516E0
1.398081421E1,-2.619951392E0,1.489508313E0,3.641645908E-2,3.013985148E0
1.399082121E1,-2.528380487E0,1.412385585E0,-2.570119520E-1,2.907506848E0
1.400082721E1,-2.479500103E0,1.309241871E0,-4.983897650E-1,2.847881211E0
1.401083421E1,-2.294112961E0,1.192952153E0,-6.706708845E-1,2.671308398E0
1.402084021E1,-1.999002818E0,1.097027996E0,-8.745376396E-1,2.442191387E0
1.403084721E1,-1.792116634E0,1.037826692E0,-1.087306196E0,2.339017109E0
1.404085321E1,-1.605832529E0,1.058945080E0,-1.356380954E0,2.353684789E0
1.405086021E1,-1.328852262E0,1.112373721E0,-1.579065145E0,2.344497892E0
1.406086621E1,-9.785783172E-1,1.127919713E0,-1.703319647E0,2.265196729E0
1.407087321E1,-5.162629491E-1,1.112251222E0,-1.722879753E0,2.114697344E0
1.408087921E1,4.958438873E-4,1.074977269E0,-1.781691048E0,2.080865052E0
1.409088621E1,6.600986069E-1,9.502073345E-1,-1.755158722E0,2.102190831E0
1.410089221E1,1.261094143E0,8.106439447E-1,-1.771422168E0,2.320654765E0
1.411089821E1,1.834683779E0,5.173379597E-1,-1.715653764E0,2.564599573E0
1.412090521E1,2.238589556E0,1.206833151E-1,-1.715830350E0,2.823104931E0
1.413091121E1,2.309725612E0,-2.104357365E-1,-1.964728779E0,3.039617538E0
1.414091821E1,2.058666637E0,-3.882884485E-1,-2.561508472E0,3.309108927E0
1.415092421E1,1.826603512E0,-4.864129132E-1,-3.275849944E0,3.782098725E0
1.416093121E1,1.916909080E0,-5.794970781E-1,-3.771696171E0,4.270368753E0
1.417093721E1,2.439497547E0,-7.081910786E-1,-3.937978120E0,4.686187636E0
1.418094421E1,3.567008539E0,-8.426802546E-1,-3.895470031E0,5.348677098E0
1.419095021E1,4.755180302E0,-8.961521646E-1,-3.694357388E0,6.087947512E0
1.420095721E1,5.124471731E0,-9.462844375E-1,-3.152582452E0,6.090520575E0
1.421096321E1,4.740351178E0,-1.077169097E0,-2.211730371E0,5.340690385E0
1.422097021E1,4.295847014E0,-1.158915219E0,-1.061668494E0,4.574333398E0
1.423097621E1,3.536178510E0,-1.293102094E0,2.174064215E-1,3.771463513E0
1.424098321E1,2.184291726E0,-1.339440401E0,1.505767958E0,2.971963673E0
1.425098921E1,6.272705841E-1,-1.200076693E0,2.294077878E0,2.663915495E0
1.426099621E1,-3.839252561E-1,-9.185648346E-1,2.858663971E0,3.027064528E0
1.427100221E1,-9.767990094E-1,-6.876919100E-1,3.155568041E0,3.374117088E0
1.428100921E1,-8.177763784E-1,-8.698993358E-1,3.976979048E0,4.152330118E0
1.429101521E1,-3.646113181E-1,-1.237262354E0,4.918590099E0,5.084907876E0
1.430102221E1,2.267901063E-2,-1.697170715E0,5.532652992E0,5.787154042E0
1.431102821E1,4.919835556E-1,-2.073418870E0,5.786398762E0,6.166321778E0
1.432103521E1,1.068493291E0,-1.980764768E0,5.347113823E0,5.801442339E0
1.433104121E1,1.284055574E0,-1.594966648E0,4.495765071E0,4.940103329E0
1.434104721E1,1.070950876E0,-9.879230449E-1,3.553333071E0,3.840456176E0
1.435105421E1,9.312866217E-1,-3.069922704E-1,2.596940260E0,2.775903049E0
1.436106021E1,9.546234441E-1,1.108214012E-1,2.107693201E0,2.316453741E0
1.437106721E1,6.590782678E-1,3.103433096E-1,1.868115234E0,2.005131333E0
1.438107321E1,1.016164219E-1,3.068434587E-1,1.572646072E0,1.605520001E0
1.439108021E1,-4.639789009E-1,2.499567747E-1,1.217839438E0,1.326984441E0
1.440108621E1,-9.876672292E-1,2.162876299E-1,7.996253785E-1,1.289056880E0
1.441109321E1,-1.423027518E0,1.909536910E-1,4.088782489E-1,1.492867057E0
1.442109921E1,-1.870180471E0,1.642830786E-1,1.666902311E-1,1.884767773E0
1.443110621E1,-2.252456228E0,2.314088219E-1,-1.444130704E-2,2.264358110E0
1.444111221E1,-2.529681492E0,3.309968448E-1,-2.246641318E-1,2.561117205E0
1.445111921E1,-2.672566978E0,4.572978723E-1,-3.478240351E-1,2.733627106E0
1.446112608E1,-2.815386974E0,6.076905978E-1,-4.098266673E-1,2.909235222E0
1.447113308E1,-2.827018840E0,7.773917064E-1,-4.807264960E-1,2.971106082E0
1.448113908E1,-2.769554744E0,9.266857401E-1,-5.107951812E-1,2.964808874E0
1.449114608E1,-2.705424821E0,1.095859722E0,-6.860409486E-1,2.998480311E0
1.450115208E1,-2.675267807E0,1.207334257E0,-8.151708591E-1,3.046180785E0
1.451115908E1,-2.635540069E0,1.260473461E0,-8.453015614E-1,3.041282547E0
1.452116508E1,-2.538294441E0,1.299313298E0,-8.843668091E-1,2.985508059E0
1.453117208E1,-2.515675657E0,1.272509077E0,-8.106088614E-1,2.933426339E0
1.454117808E1,-2.429362568E0,1.230707332E0,-7.201313853E-1,2.816918926E0
1.455118408E1,-2.354649770E0,1.164730567E0,-7.481886649E-1,2.731439018E0
1.456119108E1,-2.237730015E0,1.130189602E0,-8.125314260E-1,2.635331379E0
1.457119708E1,-2.080891319E0,1.095048421E0,-9.245091140E-1,2.526649328E0
1.458120408E1,-1.863608201E0,1.001516067E0,-1.032254587E0,2.354064462E0
1.459121008E1,-1.659093062E0,8.300125542E-1,-1.241072692E0,2.231988364E0
1.460121708E1,-1.403135875E0,6.748414841E-1,-1.544448459E0,2.193062324E0
1.461122308E1,-1.108565429E0,4.981944680E-1,-1.773885015E0,2.150298372E0
1.462123008E1,-7.038837272E-1,3.533373016E-1,-1.997350395E0,2.147023090E0
1.463123608E1,-2.677808422E-1,1.185417724E-1,-2.186235926E0,2.205762057E0
1.464124308E1,2.093578023E-1,-1.729901674E-1,-2.244715099E0,2.261084289E0
1.465124908E1,7.550486183E-1,-4.208448681E-1,-2.365122133E0,2.518136518E0
1.466125608E1,1.265290689E0,-5.658669260E-1,-2.547181624E0,2.899879331E0
1.467126208E1,1.792532955E0,-6.566358858E-1,-2.683514135E0,3.293264823E0
1.468126908E1,2.215609413E0,-6.920498398E-1,-2.866141976E0,3.688174057E0
1.469127508E1,2.522797565E0,-7.210470593E-1,-3.009142651E0,3.992412292E0
1.470128208E1,2.894985706E0,-7.238388124E-1,-2.964086931E0,4.206030931E0
1.471128808E1,3.617008080E0,-6.870566100E-1,-2.764941291E0,4.604312607E0
1.472129508E1,4.482256249E0,-7.445236301E-1,-2.336611109E0,5.109274703E0
1.473130108E1,5.240920200E0,-9.671961272E-1,-1.723843374E0,5.601281003E0
1.474130708E1,5.610979369E0,-1.095639282E0,-1.248529061E0,5.851695458E0
1.475131408E1,5.408060521E0,-1.159644951E0,-9.878496623E-1,5.618517773E0
1.476132008E1,4.117617449E0,-1.120443463E0,-8.230996835E-1,4.345993568E0
1.477132708E1,2.259199821E0,-9.095957905E-1,-5.835252249E-1,2.504366192E0
1.478133308E1,6.292878735E-1,-6.514266014E-1,-1.484163666E-1,9.178165735E-1
1.479134008E1,-3.574022859E-1,-5.290861854E-1,6.784360600E-1,9.316351609E-1
1.480134608E1,-6.479153484E-1,-7.235908905E-1,1.750071645E0,2.001531623E0
1.481135308E1,-4.566546786E-1,-1.261843171E0,3.029381618E0,3.313296648E0
1.482135908E1,-1.777652961E-1,-2.135077174E0,4.192875792E0,4.708541435E0
1.483136608E1,-9.745320439E-2,-3.039725343E0,4.995221368E0,5.848218857E0
1.484137208E1,-4.933120430E-2,-3.668972286E0,5.116180379E0,6.295958456E0
1.485137908E1,-1.194866824E-1,-3.830587572E0,4.417385484E0,5.848159773E0
1.486138508E1,-1.561370301E-1,-3.473531442E0,3.227665379E0,4.744219983E0
1.487139208E1,-8.216098130E-2,-2.678577915E0,1.743624505E0,3.197148181E0
1.488139808E1,-7.056946099E-2,-1.958863729E0,7.608443785E-1,2.102620110E0
1.489140508E1,-2.286846042E-2,-1.369865218E0,4.253415962E-1,1.434562357E0
1.490141108E1,1.950771475E-1,-9.048919979E-1,3.397149702E-1,9.860481136E-1
1.491141808E1,2.797366440E-1,-5.286239630E-1,3.661457006E-1,7.012549881E-1
1.492142408E1,1.489864701E-1,-2.013640738E-1,4.424483565E-1,5.084338764E-1
1.493143008E1,-1.048815072E-1,2.004483998E-1,3.824734656E-1,4.443710650E-1
1.494143708E1,-4.255398899E-1,6.141938710E-1,2.413075733E-1,7.852054852E-1
1.495144308E1,-8.319441819E-1,1.005202444E0,1.451430953E-1,1.312870745E0
1.496145008E1,-1.214643277E0,1.291124858E0,1.524720684E-1,1.779215957E0
1.497145608E1,-1.618392933E0,1.489531994E0,2.420677114E-1,2.212803205E0
1.498146308E1,-1.946676085E0,1.581722705E0,4.787548149E-1,2.553546684E0
1.499146908E1,-2.210133496E0,1.623441711E0,7.821189610E-1,2.851659715E0
1.500147608E1,-2.458329089E0,1.648924462E0,1.019560355E0,3.130788576E0
1.501148208E1,-2.763911596E0,1.671400867E0,1.157113618E0,3.430991124E0
1.502148908E1,-2.909672742E0,1.646865950E0,1.242306454E0,3.566747573E0
1.503149508E1,-2.981892287E0,1.675801481E0,1.181405364E0,3.618799642E0
1.504150208E1,-2.939464306E0,1.736027218E0,9.955188704E-1,3.556022880E0
1.505150808E1,-2.895551131E0,1.774696901E0,7.149891246E-1,3.470587111E0
1.506151408E1,-2.812511314E0,1.773380108E0,4.174069246E-1,3.351018567E0
1.507152108E1,-2.670200025E0,1.764846389E0,1.162554380E-1,3.202837223E0
1.508152708E1,-2.535569054E0,1.706735006E0,-1.772221629E-1,3.061611096E0
1.509153408E1,-2.386466809E0,1.549811818E0,-4.551063359E-1,2.881711692E0
1.510154008E1,-2.104179025E0,1.371381693E0,-6.732729685E-1,2.600298753E0
1.511154708E1,-1.855893969E0,1.194936991E0,-8.882587159E-1,2.379331919E0
1.512155308E1,-1.643150044E0,1.092084175E0,-1.178168419E0,2.297971004E0
1.513156008E1,-1.400594675E0,1.003820162E0,-1.442538507E0,2.247273394E0
1.514156608E1,-1.075902298E0,1.001663125E0,-1.666548847E0,2.222224073E0
1.515157308E1,-6.999134678E-1,9.725770274E-1,-1.812694155E0,2.172934660E0
1.516157908E1,-2.880706805E-1,9.438636902E-1,-1.871247003E0,2.115520912E0
1.517158608E1,1.677630490E-1,8.944769374E-1,-1.893901455E0,2.101213020E0
1.518159208E1,6.664983845E-1,8.143314913E-1,-1.879560574E0,2.154090023E0
1.519159908E1,1.227304253E0,6.158652976E-1,-1.762911984E0,2.234597158E0
1.520160508E1,1.737642803E0,2.342040834E-1,-1.656168870E0,2.411876736E0
1.521161208E1,1.987265702E0,-2.596409333E-1,-1.704878515E0,2.631206783E0
1.522161808E1,2.062838625E0,-6.319372469E-1,-2.023342438E0,2.957796899E0
1.523162508E1,1.990041375E0,-8.236095607E-1,-2.698887634E0,3.452910634E0
1.524163108E1,2.163898977E0,-9.335834080E-1,-3.402014147E0,4.138567025E0
1.525163708E1,3.182278706E0,-1.107453581E0,-3.634845597E0,4.956354881E0
1.526164408E1,4.496433992E0,-1.255684591E0,-3.447766271E0,5.803598427E0
1.527165008E1,5.259094516E0,-1.399410321E0,-3.036933882E0,6.232125784E0
1.528165708E1,5.535300027E0,-1.636654957E0,-2.190186889E0,6.173743147E0
1.529166308E1,5.392356069E0,-1.766423676E0,-1.055691470E0,5.771675758E0
1.530167008E1,4.647611414E0,-1.636888846E0,-5.622324429E-2,4.927763996E0
1.531167608E1,3.192648743E0,-1.310817695E0,6.119028588E-1,3.505092600E0
1.532168308E1,1.468658604E0,-1.095127066E0,1.038134474E0,2.105702869E0
1.533168908E1,1.941024166E-1,-9.262229329E-1,1.501340446E0,1.774707809E0
1.534169608E1,-4.539754844E-1,-7.434845799E-1,1.949306163E0,2.135101304E0
1.535170208E1,-5.178978306E-1,-7.996061558E-1,2.609930434E0,2.778367333E0
1.536170908E1,-2.706296057E-1,-9.082901073E-1,3.289477465E0,3.423286914E0
1.537171508E1,4.931073904E-2,-1.000280258E0,3.839496975E0,3.967962848E0
1.538172208E1,5.497862059E-1,-1.045506132E0,4.180032967E0,4.343733826E0
1.539172808E1,8.708585715E-1,-9.797881061E-1,4.178201619E0,4.379012235E0
1.540173408E1,9.724328935E-1,-8.364775282E-1,3.800797763E0,4.011406739E0
1.541174108E1,9.764779973E-1,-5.625682193E-1,3.307772233E0,3.494474128E0
1.542174708E1,1.030722032E0,-3.414227226E-1,2.933164515E0,3.127684680E0
1.543175408E1,1.099458391E0,-1.262659442E-1,2.806999143E0,3.017282889E0
1.544176008E1,8.114379966E-1,1.371824035E-1,2.548746339E0,2.678312628E0
1.545176708E1,3.042961192E-1,2.797951162E-1,2.201655618E0,2.240126982E0
1.546177313E1,-2.141104192E-1,3.069735593E-1,1.878789911E0,1.915705501E0
1.547178013E1,-6.832313615E-1,3.168038982E-1,1.516973562E0,1.693628824E0
1.548178613E1,-1.124652874E0,2.922920778E-1,1.183964106E0,1.658930303E0
1.549179313E1,-1.512324441E0,2.725489542E-1,9.455661801E-1,1.804301402E0
1.550179913E1,-1.884731852E0,2.937559283E-1,7.155799127E-1,2.037292642E0
1.551180613E1,-2.209623619E0,3.943096188E-1,5.256717769E-1,2.305265154E0
1.552181213E1,-2.457966562E0,5.447748497E-1,3.207664832E-1,2.537965798E0
1.553181913E1,-2.631397902E0,7.690146929E-1,1.239165330E-1,2.744265625E0
1.554182513E1,-2.787851266E0,9.555823874E-1,7.089632034E-2,2.947927860E0
1.555183113E1,-2.859062752E0,1.074649825E0,1.122315303E-1,3.056420779E0
1.556183813E1,-2.798439989E0,1.219808707E0,6.695880532E-2,3.053470671E0
1.557184413E1,-2.731686421E0,1.304568776E0,1.412343778E-2,3.027244600E0
1.558185113E1,-2.682767445E0,1.329507443E0,-7.444565333E-3,2.994142052E0
1.559185713E1,-2.586555605E0,1.364286682E0,-1.063702814E-1,2.926236949E0
1.560186413E1,-2.453481163E0,1.395834749E0,-2.176275194E-1,2.831128079E0
1.561187013E1,-2.308118212E0,1.392549199E0,-4.085753266E-1,2.726451311E0
1.562187713E1,-2.158793773E0,1.337186591E0,-4.675994968E-1,2.582074326E0
1.563188313E1,-1.991295018E0,1.248959124E0,-5.072974133E-1,2.404684056E0
1.564189012E1,-1.817334505E0,1.182310513E0,-6.280237055E-1,2.257205491E0
1.565189613E1,-1.679326183E0,1.111675271E0,-8.616784430E-1,2.190536025E0
1.566190313E1,-1.428857192E0,9.985418808E-1,-1.063116192E0,2.041796953E0
1.567190913E1,-1.253148946E0,8.557745093E-1,-1.252511015E0,1.967616867E0
1.568191613E1,-1.149585401E0,6.715150031E-1,-1.521458377E0,2.021710807E0
1.569192213E1,-1.070162671E0,5.092445362E-1,-1.806360451E0,2.160443524E0
1.570192813E1,-8.796030825E-1,3.814439902E-1,-2.067479560E0,2.278963105E0
1.571193513E1,-5.347746491E-1,2.118972480E-1,-2.195400267E0,2.269508030E0
1.572194113E1,-1.526439035E-1,-1.689845324E-2,-2.216737926E0,2.222051474E0
1.573194813E1,2.579154199E-1,-2.292126077E-1,-2.157910259E0,2.185322738E0
1.574195413E1,6.297743618E-1,-3.629863769E-1,-2.344424744E0,2.454526886E0
1.575196113E1,1.079243982E0,-4.330377746E-1,-2.750364182E0,2.986099868E0
1.576196712E1,1.601816661E0,-5.130382097E-1,-3.092294735E0,3.520129479E0
1.577197413E1,1.981945320E0,-6.489006042E-1,-3.273852535E0,3.881660685E0
1.578198013E1,2.224597753E0,-7.254345176E-1,-3.310943763E0,4.054311163E0
1.579198713E1,2.538449392E0,-6.829539111E-1,-3.189090713E0,4.132850219E0
1.580199313E1,3.127680915E0,-5.665937349E-1,-2.922500364E0,4.317919029E0
1.581199913E1,3.933245384E0,-5.443947807E-1,-2.499805144E0,4.692100882E0
1.582200613E1,4.597332376E0,-6.398257256E-1,-1.969863803E0,5.042341256E0
1.583201213E1,4.857707135E0,-7.224489293E-1,-1.444463410E0,5.119152821E0
1.584201913E1,4.693355352E0,-7.864475816E-1,-1.095163611E0,4.883182117E0
1.585202513E1,3.908289467E0,-8.764748222E-1,-8.200065064E-1,4.088440454E0
1.586203213E1,2.413963341E0,-8.257107577E-1,-4.724713969E-1,2.594657296E0
1.587203813E1,8.431690818E-1,-7.333408302E-1,3.910851717E-2,1.118146837E0
1.588204513E1,-2.435324389E-1,-7.767382801E-1,8.373820925E-1,1.167835251E0
1.589205113E1,-5.418076801E-1,-1.081357166E0,2.000489180E0,2.337700973E0
1.590205813E1,-4.375407153E-1,-1.751198988E0,3.403285332E0,3.852335762E0
1.591206413E1,-2.444136143E-1,-2.666115160E0,4.775387110E0,5.474689955E0
1.592207113E1,-1.615994990E-1,-3.563557513E0,5.707133907E0,6.730262549E0
1.593207713E1,-2.005928260E-1,-4.196984630E0,5.824555353E0,7.181946987E0
1.594208413E1,-3.322797239E-1,-4.427858432E0,4.999174086E0,6.686410221E0
1.595209013E1,-2.490036786E-1,-4.010927982E0,3.438504281E0,5.288937304E0
1.596209613E1,-8.216858268E-2,-3.185884100E0,1.750930016E0,3.636257017E0
1.597210313E1,5.424403489E-2,-2.322930379E0,6.823675816E-1,2.421688146E0
1.598210913E1,2.060091019E-1,-1.577266542E0,2.815211412E-1,1.615383436E0
1.599211613E1,4.801330036E-1,-1.001917771E0,2.454053020E-1,1.137800810E0
1.600212213E1,6.419365704E-1,-5.030882952E-1,2.136525091E-1,8.431060359E-1
1.601212913E1,5.206442678E-1,-2.437821150E-2,2.039812144E-1,5.597080369E-1
1.602213513E1,1.508283430E-1,4.939730707E-1,1.224653272E-1,5.308072531E-1
1.603214213E1,-2.821264011E-1,9.580756402E-1,8.697974481E-2,1.002531653E0
1.604214813E1,-7.419403303E-1,1.359266847E0,7.581624068E-2,1.550428946E0
1.605215513E1,-1.054995579E0,1.645515828E0,1.185395066E-1,1.958261889E0
1.606216113E1,-1.369127884E0,1.777767566E0,3.302367067E-1,2.268044304E0
1.607216813E1,-1.671503778E0,1.833828331E0,6.016680387E-1,2.553204977E0
1.608217413E1,-1.976350120E0,1.788054573E0,9.048788416E-1,2.814587833E0
1.609218013E1,-2.145305416E0,1.770912291E0,1.063511463E0,2.978174324E0
1.610218713E1,-2.300315688E0,1.694711961E0,1.168388293E0,3.086848246E0
1.611219313E1,-2.403379295E0,1.645883910E0,1.129516003E0,3.124255477E0
1.612220013E1,-2.545514583E0,1.602678249E0,9.854314001E-1,3.165327330E0
1.613220613E1,-2.598911941E0,1.546635318E0,7.329941634E-1,3.111865120E0
1.614221313E1,-2.645358129E0,1.458847853E0,4.296137182E-1,3.051348003E0
1.615221913E1,-2.589317830E0,1.408105423E0,9.295903444E-2,2.948892858E0
1.616222613E1,-2.509508014E0,1.354520662E0,-2.775767557E-1,2.865206022E0
1.617223213E1,-2.501371028E0,1.286828908E0,-5.631383959E-1,2.868782061E0
1.618223913E1,-2.392228070E0,1.208395235E0,-7.902886176E-1,2.794195821E0
1.619224513E1,-2.143687491E0,1.136993423E0,-9.020312476E-1,2.588785521E0
1.620225213E1,-1.895003071E0,1.128051568E0,-9.920022087E-1,2.418182243E0
1.621225813E1,-1.695099632E0,1.180818304E0,-1.111718248E0,2.345977854E0
1.622226413E1,-1.482497209E0,1.256737382E0,-1.281784515E0,2.328123358E0
1.623227113E1,-1.164912123E0,1.334486639E0,-1.418738000E0,2.269513683E0
1.624227713E1,-7.277158087E-1,1.325804694E0,-1.510580217E0,2.137564262E0
1.625228413E1,-1.957957703E-1,1.304350090E0,-1.574038879E0,2.053597705E0
1.626229013E1,3.167056650E-1,1.275556354E0,-1.656202784E0,2.114321203E0
1.627229713E1,8.538975531E-1,1.204101624E0,-1.762701631E0,2.299156104E0
1.628230313E1,1.491391409E0,1.030162454E0,-1.837705035E0,2.581209564E0
1.629231013E1,2.016257367E0,5.974491996E-1,-1.839598364E0,2.793986660E0
1.630231613E1,2.318107011E0,8.352835268E-2,-1.892530868E0,2.993705093E0
1.631232313E1,2.350211148E0,-3.211381468E-1,-2.305973454E0,3.308192213E0
1.632232913E1,2.311110232E0,-5.719027144E-1,-2.943119985E0,3.785532785E0
1.633233613E1,2.453672367E0,-7.234610823E-1,-3.529688101E0,4.359197416E0
1.634234213E1,2.870947217E0,-8.874705112E-1,-3.800836354E0,4.845234651E0
1.635234813E1,3.922580062E0,-1.079921382E0,-3.827038897E0,5.585614671E0
1.636235513E1,5.014196168E0,-1.230809366E0,-3.593019294E0,6.290218005E0
1.637236113E1,5.505440635E0,-1.367158249E0,-2.919718258E0,6.379949292E0
1.638236813E1,5.201865478E0,-1.539100011E0,-1.948306289E0,5.764037707E0
1.639237413E1,4.599698160E0,-1.491205760E0,-9.078644300E-1,4.919871503E0
1.640238113E1,3.595264040E0,-1.346322866E0,2.247937938E-1,3.845652223E0
1.641238713E1,1.999654198E0,-1.281107115E0,1.123626761E0,2.627239892E0
1.642239413E1,1.720168984E-1,-1.123626688E0,1.679729640E0,2.028205712E0
1.643240013E1,-9.758108300E-1,-8.920640838E-1,2.028066988E0,2.420958656E0
1.644240613E1,-1.404563765E0,-8.448516181E-1,2.424750284E0,2.926770843E0
1.645241313E1,-1.221483350E0,-1.013371297E0,3.130750118E0,3.510062573E0
1.646241900E1,-8.661620879E-1,-1.354995748E0,3.784696870E0,4.112199003E0
1.647242600E1,-4.696635640E-1,-1.802801251E0,4.323853422E0,4.708119012E0
