"Time (s)","Linear Acceleration x (m/s^2)","Linear Acceleration y (m/s^2)","Linear Acceleration z (m/s^2)","Absolute acceleration (m/s^2)"
6.677166675E-3,-1.785944313E-1,1.487958509E-1,-2.047340580E0,2.060494996E0
1.668716664E-2,-2.513542593E-1,2.980878380E-1,-1.101024275E0,1.168028158E0
2.669816668E-2,-9.595707732E-1,-1.675114726E-1,-2.393914407E-1,1.003067507E0
3.670816665E-2,1.430936462E-1,-9.428357497E-2,3.270166451E-1,3.691951655E-1
4.671816668E-2,4.008348191E-1,-3.114405397E-1,2.908293968E-1,5.850175211E-1
5.672916665E-2,3.752848256E-1,-8.656663902E-1,9.917205191E-1,1.368841330E0
6.673916668E-2,4.512255388E-1,-5.159713192E-1,1.104972315E0,1.300305621E0
7.674916665E-2,3.790404922E-1,9.751986265E-3,8.064386272E-1,8.911285291E-1
8.676016668E-2,2.137584168E-1,1.913429694E-1,4.131443775E-1,5.029841641E-1
9.677016665E-2,3.583758473E-2,2.060053012E-1,8.574473977E-2,2.259970730E-1
1.067811667E-1,1.312542039E-1,2.623578420E-1,-2.281238562E-1,3.716178105E-1
1.167911667E-1,3.655854642E-1,1.743057910E-1,-3.551347357E-1,5.386612302E-1
1.268011667E-1,-2.386014819E-2,1.731629527E-1,3.700235009E-2,1.786725742E-1
1.368121667E-1,-3.035780811E-1,2.608087684E-1,6.564095986E-1,7.688006414E-1
1.468221667E-1,-2.757991290E-1,2.021411687E-1,6.747710252E-1,7.564668850E-1
1.568319167E-1,-2.902160239E-1,2.592523858E-1,4.124304324E-1,5.670414462E-1
1.668429167E-1,-2.040882915E-1,2.623544799E-1,-1.151597428E-1,3.517721851E-1
1.768529167E-1,-6.650272250E-2,1.553355230E-1,-5.721126294E-1,5.965438773E-1
1.868639167E-1,1.776875281E-1,-2.146892935E-2,-7.186105245E-1,7.405638788E-1
1.968739167E-1,3.596084404E-1,-1.985726130E-1,-5.899735343E-1,7.189006081E-1
2.068839167E-1,4.726836509E-1,-3.341221815E-1,-1.619082320E-1,6.010671689E-1
2.168949167E-1,5.115769905E-1,-3.427646586E-1,3.854449475E-1,7.264753512E-1
2.269049167E-1,4.666235965E-1,-3.010643631E-1,7.018184906E-1,8.949449846E-1
2.369149167E-1,2.164218235E-1,-3.314429873E-1,7.087070954E-1,8.117626541E-1
2.469259167E-1,3.347647905E-2,-3.623721269E-1,5.213535351E-1,6.358016526E-1
2.569359167E-1,-1.197158933E-2,-3.277551484E-1,3.286310613E-1,4.642899210E-1
2.669469166E-1,1.179348314E-1,-3.268669564E-1,2.911901700E-1,4.533677831E-1
2.769569167E-1,-8.597102702E-2,-3.525914893E-1,1.883388162E-2,3.634095360E-1
2.869669167E-1,-2.574306858E-1,-2.360281223E-1,-4.782981473E-1,5.922406185E-1
2.969779167E-1,-2.389634246E-1,-7.980484575E-2,-1.051498944E0,1.081259617E0
3.069879166E-1,-4.157650995E-1,1.012509710E-1,-1.372646738E0,1.437800906E0
3.169989167E-1,-6.329774666E-1,2.012696412E-1,-1.168689424E0,1.344248828E0
3.270089166E-1,-3.403412801E-1,1.339649731E-1,-7.660390449E-1,8.488784478E-1
3.370189167E-1,-3.073413491E-2,-1.299432582E-1,-2.076422292E-1,2.468706802E-1
3.470299167E-1,-1.166408426E-1,-2.407903871E-1,1.043450251E0,1.077206351E0
3.570399167E-1,9.820924938E-2,-3.139913875E-1,1.576231585E0,1.610199260E0
3.670499166E-1,5.180896193E-1,-5.283511904E-1,1.025055496E0,1.264243095E0
3.770609167E-1,7.422057939E-1,-7.131015703E-1,8.052007717E-1,1.306802040E0
3.870709167E-1,1.222825286E0,-8.330291328E-1,4.384984893E-1,1.543217464E0
3.970819167E-1,2.022088210E0,-1.120528248E0,1.519901848E-1,2.316792028E0
4.070919167E-1,2.379944825E0,-1.417042600E0,6.350877267E-1,2.841739524E0
4.171019167E-1,2.342883418E0,-1.638719316E0,8.034238029E-1,2.969847389E0
4.271129167E-1,1.588355786E0,-1.027975010E0,1.143890798E0,2.210903183E0
4.371229167E-1,7.585218644E-1,-1.527608478E-1,1.825061016E0,1.982306487E0
4.471329167E-1,5.381192565E-1,1.285457736E-1,1.717091594E0,1.804023252E0
4.571439167E-1,3.215494984E-1,2.596292388E-1,1.285918497E0,1.350699005E0
4.671539167E-1,-9.916409969E-1,8.731044871E-1,5.678909397E-1,1.438111064E0
4.771649167E-1,-2.537281119E0,2.335628192E0,-9.599140048E-2,3.449952011E0
4.871749167E-1,-3.072328833E0,2.761132999E0,-4.124052894E-1,4.151281491E0
4.971849167E-1,-2.605774818E0,2.195364306E0,-8.153456908E-1,3.503494746E0
5.071959167E-1,-1.765025314E0,1.482756533E0,-9.519957054E-1,2.494028292E0
5.172059167E-1,-1.129304919E0,8.209017152E-1,-7.644199508E-1,1.591711999E0
5.272159167E-1,-4.542725229E-1,4.554112682E-1,-3.583331627E-1,7.363189552E-1
5.372269167E-1,3.083470702E-2,3.491623896E-1,1.441981852E-1,3.790227831E-1
5.472369167E-1,4.368542522E-1,2.244389409E-1,4.346878588E-1,6.558719467E-1
5.572479166E-1,4.912234175E-1,7.446546078E-2,1.016693392E0,1.131596662E0
5.672579167E-1,4.894645751E-1,-7.342348695E-2,1.270769531E0,1.363752829E0
5.772679167E-1,1.090147285E0,-2.634720290E-1,1.160290484E0,1.613726315E0
5.872789167E-1,1.437450845E0,-4.536731833E-1,1.437512240E0,2.082912799E0
5.972889166E-1,1.322831969E0,-5.806124344E-1,1.854594718E0,2.350854480E0
6.072989167E-1,9.289857423E-1,-4.089919773E-1,2.283302044E0,2.498751123E0
6.173099166E-1,6.774975818E-1,-1.209218815E-1,2.320508462E0,2.420410006E0
6.273199167E-1,6.475054586E-1,1.981679857E-2,1.750435342E0,1.866461869E0
6.373309167E-1,6.512862682E-1,-1.366520610E-1,1.285146664E0,1.447221316E0
6.473409167E-1,2.809025788E-1,-1.400785294E-1,7.093070197E-1,7.756575929E-1
6.573509166E-1,-6.775753498E-2,-2.089905971E-1,3.580589283E-1,4.200885018E-1
6.673619167E-1,-2.730848515E-1,1.858055100E-2,3.548192784E-1,4.481264256E-1
6.773719167E-1,-1.454635227E-1,4.264915243E-2,3.187381572E-1,3.529484374E-1
6.873819167E-1,5.142006361E-1,-3.109359249E-1,3.180592954E-1,6.798861368E-1
6.973929167E-1,8.839826471E-1,-7.678012495E-1,4.232854959E-1,1.245036020E0
7.074029167E-1,1.350755348E0,-1.072936736E0,1.217732361E-1,1.729324137E0
7.174139167E-1,1.126999946E0,-1.324571808E0,-1.752174304E0,2.468751536E0
7.274239167E-1,3.485222949E0,-1.302055058E0,-3.342627486E0,5.001528256E0
7.374339167E-1,4.630567365E0,-2.365459810E0,-2.829229088E0,5.919636092E0
7.474449167E-1,4.508110297E0,-2.578445809E0,-1.040237791E0,5.296558874E0
7.574549167E-1,1.863106509E0,-1.326198211E0,7.634791338E-1,2.410988998E0
7.674659167E-1,1.407196766E-1,2.944292352E-2,2.024973080E0,2.030070168E0
7.774759167E-1,4.583573878E-2,-3.138010606E-1,1.733386030E0,1.762157527E0
7.874859167E-1,7.830328077E-1,-3.336102578E-1,-1.709515357E-1,8.681362852E-1
7.974969167E-1,-1.482344597E0,7.204297395E-1,-2.465379370E0,2.965545473E0
8.075069167E-1,-3.161121726E0,1.652066463E0,-2.872068713E0,4.579387826E0
8.175169167E-1,-3.895340808E0,2.290890999E0,-2.100567200E0,4.983396848E0
8.275279167E-1,-4.022837591E0,2.633881799E0,-1.241913960E0,4.966176185E0
8.375379167E-1,-2.933624107E0,1.929676475E0,-1.005019426E-2,3.511396119E0
8.475489166E-1,-1.281585710E0,9.773515713E-1,6.874192104E-1,1.752205238E0
8.575589167E-1,-7.052051979E-1,2.421767619E-1,9.043625325E-1,1.172107310E0
8.675689167E-1,-1.355782199E-1,-2.035766602E-2,4.268900120E-1,4.483647741E-1
8.775799167E-1,8.971792281E-2,-1.275055540E-1,-1.748417248E-1,2.342575521E-1
8.875899166E-1,2.061897808E-1,-4.582764038E-1,-5.239696159E-1,7.259997565E-1
8.975999167E-1,2.510045958E-1,-7.057247230E-1,-7.541633499E-1,1.062926644E0
9.076109166E-1,4.766463089E-1,-1.041097624E0,-1.463465692E0,1.858173242E0
9.176209167E-1,2.211416960E-3,-1.046628505E0,-1.803988820E0,2.085620239E0
9.276319167E-1,-6.706089771E-1,-1.095029418E0,-9.820001078E-1,1.616517874E0
9.376419167E-1,-1.463337053E0,-1.077968412E0,-2.803190267E-1,1.839007880E0
9.476519166E-1,-3.723302275E0,-1.086300109E0,3.320037353E-1,3.892718104E0
9.576629167E-1,-6.930510585E0,-3.722191304E-1,1.122156698E0,7.030630107E0
9.676729167E-1,-7.651179914E0,8.240700290E-1,1.382453688E0,7.818620319E0
9.776829167E-1,-7.099443662E0,2.338047186E-1,2.373375478E0,7.489304114E0
9.876939167E-1,-7.545887933E0,2.315731287E-1,9.032515615E0,1.177201721E1
9.977039167E-1,3.401065729E0,6.838213456E-1,3.758014855E0,5.114443799E0
1.007714917E0,6.883674388E0,6.644296396E-1,-1.704744029E0,7.122681520E0
1.017724917E0,5.615965290E0,5.935853595E-1,-3.382320140E0,6.582666576E0
1.027734917E0,3.570802798E0,4.252598083E-1,-5.478174484E0,6.553004975E0
1.037745917E0,7.950733357E0,7.134433401E-1,-1.765525982E0,8.175588316E0
1.047755917E0,8.357816511E0,-1.037571753E0,1.733267916E0,8.598480659E0
1.057766917E0,6.025623558E0,5.333107987E-1,-2.065273991E0,6.392019737E0
1.067776917E0,4.039017422E0,2.292497668E0,-3.416288370E0,5.765434374E0
1.077786917E0,3.472645004E0,2.632498348E0,-2.827768453E0,5.194765182E0
1.087797917E0,4.424862903E0,2.562211892E0,-1.898333060E0,5.454173622E0
1.097807917E0,5.523579283E0,1.608813147E0,-1.089377207E0,5.855335220E0
1.107817917E0,6.136422447E0,1.198215525E0,1.013217223E-1,6.253132574E0
1.117828917E0,4.861661607E0,5.923691386E-1,1.498930370E0,5.121859724E0
1.127838917E0,1.741143531E0,-8.186008358E-1,2.367773845E0,3.050908243E0
1.137849917E0,-1.146920241E0,1.880347610E-2,2.342806234E0,2.608547615E0
1.147859917E0,-3.156875478E0,4.243067122E-1,-3.303135976E-2,3.185434043E0
1.157869667E0,-5.605350255E0,2.480295324E-1,-2.259469378E0,6.048691759E0
1.167880667E0,-6.197798916E0,7.379308945E-1,-1.459490316E0,6.409942697E0
1.177890667E0,-1.725086492E0,3.224027241E0,-1.225363562E0,3.856396105E0
1.187900667E0,-1.239500960E0,2.550632651E0,-1.586766513E0,3.249602671E0
1.197911667E0,-1.803848487E0,-1.837924891E0,-5.126534629E-1,2.625766715E0
1.207921667E0,-4.358198798E-1,-1.355581639E0,1.742644658E0,2.250411285E0
1.217932667E0,1.165682201E0,-1.368171864E0,5.990787016E0,6.254617360E0
1.227942667E0,2.771773177E0,-2.754241471E0,4.636834411E0,6.063728719E0
1.237952667E0,7.607379591E-1,-2.985837988E0,1.303542151E0,3.345619954E0
1.247963667E0,-2.215963755E0,-3.977060325E0,-2.955609053E0,5.427994939E0
1.257973667E0,-6.411891793E0,-5.841331599E0,-4.044618469E0,9.570394442E0
1.267983667E0,-7.807949613E0,-5.889621415E0,-2.943430472E0,1.021349600E1
1.277994667E0,-5.377273176E0,-2.646288421E0,-2.456962595E0,6.477235090E0
1.288004667E0,-2.501951072E0,2.895798469E-1,-1.247902240E0,2.810849632E0
1.298015667E0,-8.405489445E-1,1.169910908E-1,3.428538287E-1,9.152913149E-1
1.308025667E0,2.203451883E0,2.484458542E-1,1.877595325E0,2.905561864E0
1.318035667E0,4.740221370E0,-4.766708672E-2,1.924517330E0,5.116222996E0
1.328046667E0,4.523839892E0,-4.288576001E-1,1.176286712E0,4.693899939E0
1.338056667E0,4.161219551E0,9.999498904E-2,-7.265180066E-2,4.163054820E0
1.348066667E0,4.532401970E0,2.402091739E0,-1.286482315E0,5.288454319E0
1.358077667E0,3.467905836E0,3.387000251E0,-1.258720758E0,5.008245155E0
1.368087667E0,1.281166465E0,3.213778242E0,8.032934099E-1,3.551765533E0
1.378098667E0,2.136104822E0,1.405834365E0,1.602123640E0,3.017633880E0
1.388108667E0,2.194356539E0,7.979835534E-1,-2.517949931E-1,2.348484424E0
1.398118667E0,1.842609095E0,-6.438725835E-1,1.052814713E0,2.217701288E0
1.408129667E0,-1.383188099E-1,-1.767380573E0,7.924984266E-1,1.941859917E0
1.418139667E0,-2.550793449E0,-2.331729854E0,-1.639899723E0,3.825282007E0
1.428149667E0,-3.874481451E0,-2.899938882E0,-2.240521622E0,5.333028143E0
1.438160667E0,-4.897172332E0,-2.959011548E0,-9.780947524E-1,5.804714940E0
1.448170667E0,-6.271137033E0,-1.517039051E0,1.509289151E-1,6.453785456E0
1.458181667E0,-4.979820387E0,1.056530473E0,5.182935409E-1,5.116981133E0
1.468191667E0,-2.950322000E0,3.845503235E0,5.704308240E-1,4.880336706E0
1.478201667E0,-8.097002041E-1,3.937552443E0,5.288128281E-1,4.054574782E0
1.488212667E0,-5.809214598E-1,3.410584411E0,2.154050512E0,4.075474129E0
1.498222667E0,-1.016534933E0,4.523925261E0,4.884058197E0,6.734483463E0
1.508232667E0,-1.907448285E0,4.194370340E0,2.946861911E0,5.469469502E0
1.518243667E0,-4.923649694E0,7.779176635E-1,-9.805482441E-1,5.080251673E0
1.528253667E0,-4.517938882E0,-2.306565192E0,-2.023441840E0,5.461348882E0
1.538264667E0,-3.452683194E0,-2.635480428E0,-5.921305722E-1,4.383765156E0
1.548274667E0,-1.779191948E0,-2.355613391E0,-1.049692154E-1,2.953888449E0
1.558284667E0,-1.666251808E-1,-2.614432206E0,-4.711762387E-1,2.661771357E0
1.568295667E0,1.248383465E0,-2.138370618E0,-3.914351276E-1,2.506852935E0
1.578305667E0,3.274340193E0,-4.793822211E-1,-2.607152130E-1,3.319500480E0
1.588315667E0,6.647624046E0,2.758038653E0,-1.443124983E-1,7.198507398E0
1.598326667E0,6.474609028E0,5.148414325E0,8.966430384E-1,8.320498835E0
1.608336667E0,3.382304937E0,-2.299721611E-1,3.065517411E0,4.570587586E0
1.618347667E0,2.273555905E0,-1.890389033E0,2.148068518E0,3.654699099E0
1.628357667E0,-8.931154132E-2,-7.966585743E-1,5.252115279E-2,8.033678528E-1
1.638367667E0,-1.792131252E0,3.562714344E-1,-2.628146558E-1,1.846005228E0
1.648378667E0,-2.322311159E0,2.985067910E-1,4.672511490E-1,2.387584356E0
1.658388667E0,-1.308472085E0,-1.111959153E0,-1.053626307E0,2.014616775E0
1.668398667E0,1.157688765E0,-2.735900509E-1,-3.182444767E0,3.397506364E0
1.678409667E0,3.460255631E0,2.858540595E0,-1.689779981E0,4.795829412E0
1.688419667E0,3.477427441E0,3.059716973E0,-1.441603245E-1,4.634129019E0
1.698430667E0,2.796932577E0,1.562294161E0,3.524760067E-2,3.203878475E0
1.708440667E0,2.663213772E0,1.178236173E0,2.448767138E-1,2.922483991E0
1.718450667E0,3.860938715E0,8.152331904E0,2.473137163E0,9.353275932E0
1.728461667E0,4.206206859E0,1.003237897E1,5.640332392E0,1.225374038E1
1.738471667E0,1.022751108E0,1.449468042E0,4.277237665E0,4.630522592E0
1.748481667E0,-3.711148837E0,-4.006341426E0,-2.236185034E-1,5.465656644E0
1.758492667E0,-9.275485552E0,-5.922718409E0,-4.752350834E0,1.198741273E1
1.768502667E0,-1.134549520E1,-5.943803469E0,-4.509282664E0,1.357875882E1
1.778513667E0,-8.433498192E0,-3.763144618E0,-4.015208729E0,1.007010677E1
1.788523667E0,-6.277765437E0,-1.836619207E0,-2.556596811E0,7.022798320E0
1.798533667E0,-3.037068076E0,-2.004663507E0,2.029614600E-1,3.644674420E0
1.808544667E0,1.468851562E0,-1.566416448E0,1.964444019E0,2.910365219E0
1.818554667E0,2.425021010E0,-9.531785971E-1,1.111740468E0,2.832886020E0
1.828564667E0,-1.081939841E0,-1.330067314E0,1.186653752E0,2.085142682E0
1.838575667E0,3.828850365E-1,-6.114307108E0,2.728531848E0,6.706432614E0
1.848585667E0,5.353363327E0,-1.693610930E0,1.442632062E0,5.797241082E0
1.858596667E0,8.662125494E0,4.790776396E0,-1.102021299E0,9.959839732E0
1.868606667E0,6.283242524E0,4.782756355E0,-2.116870406E0,8.175269738E0
1.878616667E0,4.808108713E0,4.052005842E0,-1.224896296E0,6.406015273E0
1.888627667E0,6.307654649E0,1.171246061E1,1.286787978E0,1.336503139E1
1.898637667E0,4.748192294E0,3.265234324E0,1.953494523E0,6.084671405E0
1.908647667E0,4.551984003E0,3.310627429E0,2.343654081E0,6.097009659E0
1.918658667E0,2.378131603E0,5.722774624E0,1.229732602E0,6.318061538E0
1.928668667E0,-7.125150946E-1,5.913426599E0,-1.122460753E-1,5.957255331E0
1.938679667E0,-1.584645728E0,1.993087775E0,-5.748338505E-1,2.610351493E0
1.948689667E0,-1.617121456E0,-2.539810624E0,-7.056951946E-1,3.092527367E0
1.958699667E0,-1.311345114E0,-4.642760564E0,-2.798009634E-2,4.824482827E0
1.968710667E0,-3.492126757E-1,-6.080135980E0,1.194899569E0,6.206270056E0
1.978720667E0,5.247346875E-1,-3.884552695E0,7.899898249E-1,3.998647278E0
1.988730667E0,1.616148479E0,-1.873706927E0,3.848016076E-3,2.474414751E0
1.998741667E0,7.176109430E-1,-8.709901339E-1,1.807871372E-1,1.142923124E0
2.008751667E0,-6.899024498E-1,-2.052772644E0,-8.780705273E-2,2.167383444E0
2.018762667E0,-3.169354606E-1,-2.802095084E0,-4.011482298E-1,2.848351250E0
2.028772667E0,-1.000718945E0,9.392476058E-1,-1.386043294E0,1.950574399E0
2.038782667E0,-3.109873804E0,-1.049382252E-1,-1.244363505E0,3.351233749E0
2.048793667E0,-1.163738733E0,-1.123252466E0,1.444613099E0,2.168614984E0
2.058803667E0,1.197260528E-1,3.132505453E-1,2.458037313E0,2.480807865E0
2.068813667E0,1.319498472E0,1.026779255E0,1.926368705E0,2.550734844E0
2.078824667E0,1.534701297E0,2.378944366E0,6.670410061E-1,2.908543978E0
2.088834667E0,2.328430708E-2,-5.050140756E-1,-8.773057115E-1,1.012544659E0
2.098845667E0,-1.447395789E0,-1.789930944E0,-1.882070199E0,2.973381171E0
2.108855667E0,-1.847815017E0,-7.473647922E-1,-2.825931258E0,3.458158751E0
2.118865667E0,-3.170481364E0,-8.093359226E-1,-2.140796628E0,3.910241286E0
2.128876667E0,-1.509249683E0,-2.128335627E0,4.035426646E-1,2.640169280E0
2.138886667E0,1.275109334E0,-4.988491808E0,9.568874860E-1,5.237040003E0
2.148896667E0,2.619851405E0,-6.743680351E0,-1.268037127E0,7.344982247E0
2.158907542E0,1.660356792E0,-5.701625830E0,-1.772050744E0,6.197215957E0
2.168917542E0,-3.536515895E-1,-3.738630166E0,-1.904694246E0,4.210734513E0
2.178928542E0,-1.088955915E0,-2.898056079E0,-1.092398390E0,3.282969427E0
2.188938542E0,1.139255052E-1,-3.900432563E0,-3.028630397E-1,3.913831783E0
2.198948542E0,1.210118263E0,-4.573663432E0,-3.753831319E-1,4.745913600E0
2.208959542E0,1.323858740E0,-3.166139222E0,-2.031568301E-1,3.437777223E0
2.218969542E0,2.756207158E-1,-4.848803580E-1,2.941541237E-1,6.305572052E-1
2.228979542E0,-1.483031352E0,1.285066558E0,4.262754697E-1,2.008105781E0
2.238990542E0,-2.501294430E0,2.200400805E0,3.221768681E-1,3.346944198E0
2.249000542E0,-2.658702060E0,2.757822306E0,-1.673222055E-1,3.834354865E0
2.259011542E0,-2.246259641E0,2.851688828E0,-1.008240073E0,3.767540257E0
2.269021542E0,-1.662562800E0,2.942550466E0,-1.473976647E0,3.687183948E0
2.279031542E0,-1.329925373E0,3.828673194E0,-1.062806874E0,4.190107203E0
2.289042542E0,-1.297633686E0,3.202582578E0,-1.188474648E0,3.654156584E0
2.299052542E0,-1.265673828E0,2.296907346E0,-1.469286010E0,3.006079669E0
2.309062542E0,-7.514381819E-1,2.108445153E0,-8.439286351E-1,2.392157153E0
2.319073542E0,2.370454647E-1,8.573088187E-1,-1.997712922E-1,9.116345387E-1
2.329083542E0,7.360228018E-1,-7.370134664E-1,-8.932440519E-2,1.045417268E0
2.339094542E0,1.068646781E0,-1.901301692E0,2.881495814E-1,2.199996419E0
2.349104542E0,1.097130468E0,-3.814869087E0,-2.675919771E-2,3.969589081E0
2.359114542E0,-5.795592047E-1,-3.612594017E0,-1.328206730E-1,3.661197309E0
2.369125542E0,-1.531235506E0,-2.706075616E0,-1.891539180E-1,3.115013101E0
2.379135542E0,-1.305968892E0,-1.446502919E0,-2.003723860E-1,1.959100440E0
2.389145542E0,-2.553690306E-1,-7.051186591E-1,-3.590635530E-1,8.314639501E-1
2.399156542E0,2.716751609E-1,4.404754329E-1,-2.647666756E-1,5.813152265E-1
2.409166542E0,1.029979290E0,8.695891410E-1,1.027274660E-1,1.351885921E0
2.419177542E0,1.155668114E0,1.084525187E0,5.061957979E-1,1.663730103E0
2.429187542E0,1.000912196E0,6.750739110E-1,7.176135743E-1,1.404464044E0
2.439197542E0,9.228448503E-1,7.341524237E-1,7.152782694E-1,1.379219128E0
2.449208542E0,9.214252194E-1,1.035578145E0,5.422426399E-1,1.488446710E0
2.459218542E0,9.894606433E-1,9.702390182E-1,5.623102840E-1,1.495522976E0
2.469228542E0,1.074776928E0,8.117496532E-1,5.798110005E-1,1.466377762E0
2.479239542E0,7.394904200E-1,3.231381869E-1,4.548807795E-1,9.263805334E-1
2.489249542E0,4.953133987E-1,-9.022487640E-2,1.551886848E-1,5.268390828E-1
2.499260542E0,2.721209380E-1,-3.074594629E-1,5.368796468E-2,4.140815424E-1
2.509270542E0,7.393628776E-2,-3.294952798E-1,1.449920909E-1,3.675002319E-1
2.519280542E0,-7.165514275E-2,-1.452875215E-1,1.657404971E-1,2.317602981E-1
2.529291542E0,-1.049752819E-1,-3.108964562E-3,5.018065855E-2,1.163940461E-1
2.539301542E0,-7.792474665E-2,1.685208482E-1,7.773415665E-1,7.992067652E-1
2.549311542E0,-2.345357667E-1,5.492658037E-1,1.030785621E0,1.191309760E0
2.559322542E0,-4.216968074E-1,9.781310052E-1,7.618091691E-1,1.309550179E0
2.569332542E0,-5.534540912E-1,1.045190383E0,6.266297293E-1,1.338431614E0
2.579343542E0,-4.604030362E-1,6.633432269E-1,7.395888725E-1,1.094982599E0
2.589353542E0,-3.167185289E-1,-1.544764209E-1,7.275808842E-1,8.084228685E-1
2.599363542E0,-5.681213200E-2,-6.578567845E-1,6.587951164E-1,9.327455026E-1
2.609374542E0,1.938090326E-1,-8.156152475E-1,4.619570799E-1,9.571805037E-1
2.619384542E0,5.573674133E-1,-1.112532765E0,2.359468460E-1,1.266514312E0
2.629394542E0,5.197307865E-1,-1.638081678E0,9.133219287E-2,1.720980314E0
2.639405542E0,2.035157029E-1,-7.479541916E-1,-1.340287077E-1,7.866497369E-1
2.649415542E0,-5.819032073E-1,2.578177714E-1,-4.432551992E-1,7.756007462E-1
2.659426542E0,-1.121398606E0,8.322780579E-1,-3.818689366E-1,1.447772594E0
2.669436542E0,-1.506546807E0,5.491172844E-1,-1.597109945E-1,1.611434354E0
2.679446542E0,-1.494819632E0,-4.476511359E-2,2.819843137E-1,1.521842567E0
2.689457542E0,-1.058952536E0,-1.675198048E-1,6.758644545E-1,1.267373709E0
2.699467542E0,-5.836893855E-1,-7.870936990E-3,8.377844540E-1,1.021096490E0
2.709477542E0,-2.753078167E-1,1.481199127E-1,8.021223588E-1,8.608915036E-1
2.719488542E0,-1.129291762E-1,4.655009311E-1,7.887216369E-1,9.227816298E-1
2.729498542E0,-6.273302257E-2,1.032441114E0,8.161274636E-1,1.317548527E0
2.739509542E0,-1.336192565E-1,1.650688859E0,8.231442685E-1,1.849376734E0
2.749519542E0,-2.902100305E-1,2.231807955E0,1.012115680E0,2.467704755E0
2.759529542E0,-1.821705884E-1,2.288941099E0,1.167231787E0,2.575823659E0
2.769540542E0,2.251863612E-1,1.159743184E0,1.341325543E0,1.787419191E0
2.779550542E0,1.606635059E-1,2.431430143E-1,1.226928277E0,1.261064742E0
2.789560542E0,1.350702430E-1,5.054157794E-2,1.137092898E0,1.146201850E0
2.799571542E0,2.554668984E-1,2.433020586E-1,1.065554481E0,1.122437339E0
2.809581542E0,1.168371628E-1,3.868003321E-1,7.961019194E-1,8.927730314E-1
2.819591542E0,9.503655016E-2,4.289020389E-1,4.773444664E-1,6.487269414E-1
2.829602542E0,-6.599898487E-2,5.139720100E-1,1.965623768E-1,5.542200475E-1
2.839612542E0,1.516808671E-1,5.637359083E-1,-9.244564891E-2,5.910596059E-1
2.849623542E0,-2.798398474E-1,3.657012391E-1,-5.993150461E-1,7.557951183E-1
2.859633542E0,-5.421400943E-1,1.867852110E-1,-8.268220210E-1,1.006200403E0
2.869643542E0,-2.218347372E-1,4.538135165E-1,-1.065625817E0,1.179286114E0
2.879654542E0,1.238680011E-1,3.399565333E-1,-7.347084939E-1,8.189690454E-1
2.889664542E0,7.085123831E-1,8.183587611E-2,-7.680118954E-1,1.048107427E0
2.899674542E0,9.430468342E-1,4.330623329E-1,-1.082174606E0,1.499327247E0
2.909685542E0,9.030667895E-1,1.168295907E0,-1.348338693E0,1.999615509E0
2.919695542E0,8.446425802E-1,1.325970755E0,-4.401760189E-1,1.632597457E0
2.929706542E0,1.533884295E0,5.196046329E-1,4.659190071E-1,1.685191540E0
2.939716542E0,2.796157236E0,-1.024881833E0,6.397204757E-2,2.978753176E0
2.949726542E0,3.619080918E0,-2.378656098E0,-8.338166066E-3,4.330799124E0
2.959737542E0,3.026216228E0,-1.450052764E0,3.666064246E-1,3.375653707E0
2.969747542E0,1.202755010E0,4.069954455E-2,1.010059726E-1,1.207674739E0
2.979757542E0,6.416687679E-1,4.536129570E-1,-1.713994324E-1,8.042893061E-1
2.989768542E0,4.160595068E-1,7.478267223E-1,2.286998435E-1,8.858069418E-1
2.999778542E0,3.530157048E-1,4.025930768E-1,6.617434287E-1,8.512377099E-1
3.009789542E0,3.098360637E-1,-2.518980503E-1,1.061384246E0,1.134013903E0
3.019799542E0,4.864006341E-3,-5.018957555E-1,1.228607597E0,1.327177319E0
3.029809542E0,-2.607200369E-1,-2.437540483E-1,1.251049211E0,1.300966987E0
3.039820542E0,-2.934892952E-1,1.832213330E-1,8.397548926E-1,9.082369200E-1
3.049830542E0,-3.747919053E-2,2.372139376E-1,3.305317719E-2,2.424204085E-1
3.059840542E0,-3.691610366E-2,8.251140493E-1,-3.361856639E-1,8.917380746E-1
3.069851542E0,-2.593824863E-2,1.354928505E0,-4.253673971E-1,1.420366667E0
3.079861542E0,-3.670648098E-2,1.368484105E0,-5.933286301E-1,1.492023785E0
3.089872542E0,1.052908123E-2,1.024128127E0,-7.591755831E-1,1.274871307E0
3.099882542E0,1.116028816E-1,4.431943882E-1,-1.072981614E0,1.166261554E0
3.109892542E0,4.023290750E-1,-1.465534437E-1,-1.041955045E0,1.126506508E0
3.119903542E0,-1.678794086E-1,-2.397943139E-1,-9.176900911E-1,9.632444717E-1
3.129913542E0,-4.759624770E-1,-2.031808037E-1,-6.026619192E-1,7.943702584E-1
3.139923542E0,-4.312505731E-1,-9.061547041E-2,-3.014274752E-1,5.338976897E-1
3.149934542E0,-1.401858258E-1,-1.263448817E-1,-2.367630808E-1,3.027735974E-1
3.159944958E0,3.812150717E-2,1.276260066E-1,7.941808898E-2,1.550770122E-1
3.169954958E0,-7.872106433E-3,3.219096869E-1,3.954963112E-1,5.100050478E-1
3.179965958E0,-1.201272449E-1,5.033809483E-2,4.809978433E-1,4.983205836E-1
3.189975958E0,-3.854122031E-1,-6.657323992E-1,3.419486797E-1,8.418260469E-1
3.199986958E0,-5.085408238E-1,-1.325604719E0,1.178389736E-1,1.424685110E0
3.209996958E0,-6.665103713E-1,-1.561256865E0,-2.527868271E-1,1.716292590E0
3.220006958E0,-1.163657018E0,-1.069595491E0,-6.465383291E-1,1.707672094E0
3.230017958E0,-1.388174312E0,-5.339805973E-1,-8.826173222E-1,1.729501817E0
3.240027958E0,-1.247696125E0,-2.679732156E-1,-9.164025342E-1,1.571097982E0
3.250038958E0,-1.101442059E0,-1.184528947E-1,-7.838613582E-1,1.357071968E0
3.260048958E0,-6.532515174E-1,-2.215375525E-1,-5.532120895E-1,8.842285045E-1
3.270058958E0,-2.727898595E-1,-3.788089424E-1,-4.532235324E-1,6.506320716E-1
3.280069958E0,-2.025560287E-1,-3.152099472E-1,-4.798634470E-1,6.088145722E-1
3.290079958E0,-4.734581146E-1,-1.722098565E-1,-8.448583424E-1,9.836688669E-1
3.300089958E0,-2.745188811E-1,-8.736909628E-2,-1.125311270E0,1.161602096E0
3.310100958E0,7.380545631E-1,-5.044088888E-1,-7.429904902E-1,1.162406011E0
3.320110958E0,1.460300886E0,-8.364640796E-1,-1.662690854E-1,1.691093210E0
3.330120958E0,1.516903980E0,-1.011603976E0,-1.979305887E-1,1.833989315E0
3.340131958E0,1.495913353E0,-1.207942953E0,-5.494915062E-1,1.999705941E0
3.350141958E0,1.243785507E0,-9.741765332E-1,-8.579625374E-1,1.797810341E0
3.360152958E0,5.270425835E-1,-1.714707685E-1,-1.025979356E0,1.166108806E0
3.370162958E0,2.290284204E-1,-5.897033930E-2,-1.369282250E0,1.389555828E0
3.380172958E0,6.650564611E-2,2.659021318E-2,-1.278920549E0,1.280924592E0
3.390183958E0,-1.172424333E0,1.591241972E0,-4.393860966E-1,2.024769116E0
3.400193958E0,-8.080501199E-1,1.692238004E0,1.791651195E-1,1.883803227E0
3.410203958E0,1.124840569E-1,7.017015463E-1,5.127891183E-1,8.763506165E-1
3.420214958E0,6.232897997E-1,5.297401965E-2,1.086458277E0,1.253669816E0
3.430224958E0,5.803443396E-1,-3.776061702E-1,1.018508953E0,1.231562609E0
3.440235958E0,3.752734235E-1,-6.413115031E-1,5.123084772E-1,9.025356293E-1
3.450245958E0,-2.796460122E-1,-5.364434445E-1,7.035369873E-2,6.090345673E-1
3.460255958E0,-1.223454154E0,2.859007788E-1,-9.616798639E-2,1.260090316E0
3.470266958E0,-1.215296996E0,4.834846276E-1,-4.294838369E-1,1.376648299E0
3.480276958E0,-1.071066066E0,6.386463422E-1,-1.120256352E-1,1.252038902E0
3.490286958E0,-8.405536222E-1,5.117348653E-1,2.806043708E-1,1.023299456E0
3.500297958E0,-1.917065200E-1,-1.284639126E-1,2.294108284E-1,3.253977486E-1
3.510307958E0,2.015894839E-1,2.973133743E-2,2.360076571E-1,3.118042441E-1
3.520318958E0,1.689652365E-1,5.992770392E-1,2.043438148E-1,6.553156610E-1
3.530328958E0,-4.710019916E-2,8.502833891E-1,1.107907033E-1,8.587635591E-1
3.540338958E0,-4.579834583E-1,2.729059267E-1,-1.848047773E-1,5.642510954E-1
3.550349958E0,-7.790002754E-1,-2.677019048E-1,-2.587463093E-1,8.633975860E-1
3.560359958E0,-9.336831030E-1,-5.893934906E-1,-3.011315878E-1,1.144477635E0
3.570369958E0,-1.028612942E0,-1.181351570E0,-3.736253858E-1,1.610351528E0
3.580380958E0,-1.204751250E0,-1.353094234E0,-2.967590582E-1,1.835852804E0
3.590390958E0,-1.363951636E0,-7.078650963E-1,-1.682232249E-1,1.545877134E0
3.600400958E0,-1.171199926E0,-7.441166639E-3,-4.593514144E-1,1.258081222E0
3.610411958E0,-4.649393061E-1,-3.048153520E-3,-3.964108157E-1,6.109986779E-1
3.620421958E0,2.624613377E-1,-3.741703463E-1,1.765484905E-1,4.899579281E-1
3.630432958E0,7.014550862E-1,-4.587140679E-3,5.540002942E-1,8.938549131E-1
3.640442958E0,8.668315941E-1,4.733689445E-1,5.182083178E-1,1.115354218E0
3.650452958E0,1.118200179E0,3.394782311E-1,2.711306938E-1,1.199637013E0
3.660463958E0,9.776190814E-1,-4.926045299E-2,-1.337493936E-2,9.789507391E-1
3.670473958E0,5.304152575E-1,-1.967254776E-1,-4.897850025E-1,7.482851112E-1
3.680483958E0,2.643274766E-1,-9.796074271E-2,-4.423547280E-1,5.245407776E-1
3.690494958E0,-1.442437935E-1,2.301738900E-1,-2.172451115E-1,3.478242804E-1
3.700504958E0,-4.928059664E-1,4.086355895E-1,-1.693903291E-1,6.622188831E-1
3.710515958E0,-5.556591493E-1,2.464022523E-1,-1.521561543E-2,6.080318043E-1
3.720525958E0,-7.000216413E-1,-1.663474381E-2,1.400981176E-1,7.140969790E-1
3.730535958E0,-8.412994346E-1,-1.077595067E-1,2.505800879E-1,8.844134951E-1
3.740546958E0,-1.076619459E0,-8.202006340E-2,1.930750608E-1,1.096865867E0
3.750556958E0,-1.242340953E0,-1.201596969E-1,1.848877895E-1,1.261757857E0
3.760566958E0,-1.354537327E0,-2.446381474E-1,3.075799155E-1,1.410398737E0
3.770577958E0,-1.469402662E0,-2.840694308E-1,4.117995179E-1,1.552230160E0
3.780587958E0,-1.434792116E0,-5.630851132E-1,4.134297216E-1,1.595812456E0
3.790598958E0,-1.143855130E0,-1.421649329E0,1.602581477E-1,1.831713418E0
3.800608958E0,-4.066431507E-1,-2.769393945E0,-1.004575038E-1,2.800891499E0
3.810618958E0,-5.884982818E-1,-2.757472057E0,7.539985497E-2,2.820579287E0
3.820629958E0,-7.553687534E-1,-1.393476275E0,-2.720732832E-1,1.608223229E0
3.830639958E0,-5.865368333E-1,4.713364524E-1,-3.225979042E-1,8.186897556E-1
3.840649958E0,5.320884383E-1,2.048611765E0,-1.210841417E-2,2.116618738E0
3.850660958E0,2.291434352E0,1.502773599E0,-2.528336048E-3,2.740256607E0
3.860670958E0,2.304405815E0,7.604508609E-1,-2.103325331E-1,2.435736325E0
3.870680958E0,1.604648760E0,9.008851933E-1,-6.147668982E-1,1.940213935E0
3.880691958E0,9.702366793E-1,2.214434123E0,-5.703549564E-1,2.484025458E0
3.890701958E0,1.179021162E0,2.418185030E0,3.757034862E-1,2.716406238E0
3.900712958E0,1.348405352E0,1.895981895E0,8.016170132E-1,2.460799499E0
3.910722958E0,1.515030240E0,1.372128675E0,8.077367091E-1,2.197838102E0
3.920732958E0,1.323250630E0,4.962333119E-1,6.344673371E-1,1.549125086E0
3.930743958E0,5.975418779E-1,4.118977511E-1,4.066317487E-1,8.319047014E-1
3.940753958E0,-1.454588449E-1,6.076981992E-1,-3.904655496E-2,6.260830698E-1
3.950763958E0,-4.861649913E-1,8.949046612E-2,-6.630532050E-1,8.270456426E-1
3.960774958E0,-6.042024413E-1,-1.134091449E0,-1.054973359E0,1.662586176E0
3.970784958E0,-6.933046523E-1,-2.237166343E0,-8.729390109E-1,2.499521375E0
3.980795958E0,-4.906068286E-1,-3.150844075E0,-4.012288849E-1,3.213953650E0
3.990805958E0,-5.541201621E-2,-2.923972692E0,1.423995817E-1,2.927962506E0
4.000815958E0,5.991235498E-1,-1.506004186E0,1.990006292E-1,1.632972408E0
4.010826958E0,1.194232109E0,-7.465520293E-1,-1.446086232E-1,1.415783146E0
4.020836958E0,1.668078479E0,-6.734665114E-1,-3.914933074E-1,1.841007866E0
4.030846958E0,1.919321641E0,-6.333037412E-1,-6.129928529E-1,2.112020224E0
4.040857958E0,2.157356235E0,-9.275660384E-1,-5.636879246E-1,2.415017341E0
4.050867958E0,1.720875035E0,-6.211122966E-1,-2.289418817E-2,1.829676342E0
4.060878958E0,2.846830961E-1,1.970593536E-1,5.491950524E-1,6.492241983E-1
4.070888958E0,-9.760488117E-1,3.144696897E-1,6.874770248E-1,1.234579737E0
4.080898958E0,-1.907126688E0,3.351822817E-1,2.580118990E-1,1.953471143E0
4.090909958E0,-3.163928097E0,1.799633229E0,-2.197441749E-1,3.646561156E0
4.100919958E0,-3.602867467E0,3.450814424E0,-3.318364318E-1,4.999888958E0
4.110929958E0,-3.455170600E0,3.667004698E0,-5.436752077E-1,5.067613843E0
4.120940958E0,-2.904235708E0,2.567511224E0,-1.154212303E0,4.044614317E0
4.130950958E0,-1.897579062E0,6.996105820E-1,-8.888013375E-1,2.209124052E0
4.140960958E0,-1.253908792E0,-4.164404529E-1,1.227190232E-1,1.326940039E0
4.150971958E0,-5.776136899E-1,-6.340130085E-1,1.016165389E0,1.329737631E0
4.160982208E0,-4.165878028E-1,-4.102581918E-1,1.343884284E0,1.465565472E0
4.170993208E0,-3.058222425E-1,-7.700800556E-1,7.537600382E-1,1.120136032E0
4.181003208E0,7.261715591E-2,-7.353844321E-1,6.843581931E-1,1.007179056E0
4.191013208E0,5.491514906E-1,-1.633185804E-1,8.021958876E-1,9.857781497E-1
4.201024208E0,9.311851725E-1,1.375054622E-1,4.414390540E-1,1.039654758E0
4.211034208E0,3.597101820E-1,5.401195890E-1,1.753767085E-1,6.722183985E-1
4.221044208E0,-7.441672423E-1,7.752501637E-1,-9.971962173E-2,1.079231997E0
4.231055208E0,-1.230674003E0,3.345899588E-1,-5.432028258E-1,1.386210032E0
4.241065208E0,-8.904183850E-1,-3.728114533E-1,-3.858834887E-1,1.039586142E0
4.251076208E0,-5.729648611E-1,-1.128500926E0,-9.435414355E-2,1.269135839E0
4.261086208E0,-7.458930480E-1,-1.106161639E0,1.033238089E-1,1.338142676E0
4.271096208E0,-1.366376184E0,-3.428035426E-1,5.640691996E-2,1.409851016E0
4.281107208E0,-1.868072842E0,2.309416294E-1,-1.487309102E-1,1.888160762E0
4.291117208E0,-1.976569683E0,1.386380678E-1,-1.751533083E-1,1.989152308E0
4.301127208E0,-1.766504367E0,-4.153704125E-1,-8.145522237E-2,1.816509073E0
4.311138208E0,-1.179990923E0,-1.420723715E0,6.900653679E-2,1.848133208E0
4.321148208E0,-8.554043806E-1,-1.670743055E0,7.680984342E-1,2.028071550E0
4.331158208E0,-5.260523576E-1,-2.099355657E0,1.175886762E0,2.463074285E0
4.341169208E0,-8.447051454E-1,-1.147699090E0,5.666279411E-1,1.533560304E0
4.351179208E0,4.641388223E-1,1.036606085E-1,6.516838789E-1,8.067603399E-1
4.361190208E0,2.414829021E0,4.394913465E-1,1.076695765E0,2.680265960E0
4.371200208E0,3.768941840E0,7.707589173E-1,6.193148625E-1,3.896478256E0
4.381210208E0,4.402494380E0,8.119098669E-1,-3.622478370E-1,4.491367040E0
4.391221208E0,4.231727909E0,6.993416101E-1,-9.132637489E-1,4.385276554E0
4.401231208E0,3.163992124E0,6.176004589E-1,-8.884236073E-1,3.343885912E0
4.411241208E0,1.761019094E0,3.674624205E-1,-6.919747031E-1,1.927445426E0
4.421252208E0,9.328095290E-1,3.370802879E-2,-7.266708382E-1,1.182928720E0
4.431262208E0,5.268212664E-1,1.814624906E-1,-8.452091023E-1,1.012347622E0
4.441273208E0,3.991265550E-1,4.803704005E-1,-1.214554399E0,1.365723295E0
4.451283208E0,7.785737211E-1,3.601042843E-1,-1.004406565E0,1.320865127E0
4.461293208E0,1.162560665E0,2.988973850E-1,-9.152447855E-1,1.509489968E0
4.471304208E0,-1.440020111E-1,4.166720027E-1,-1.199669727E0,1.278107817E0
4.481314208E0,-6.196042997E-1,3.482864767E-1,-7.637235475E-1,1.043305619E0
4.491324208E0,-6.503863817E-1,2.206388354E-1,-2.163037097E-1,7.200494678E-1
4.501335208E0,-5.004275197E-1,4.957322055E-1,-1.075268606E-1,7.125588732E-1
4.511345208E0,-3.957360470E-1,8.920272464E-1,-4.840126312E-1,1.089306134E0
4.521355208E0,-5.646141601E-1,1.160184065E0,-1.344009415E0,1.863109637E0
4.531366208E0,-4.742550901E-1,1.234850085E0,-2.257371397E0,2.616390308E0
4.541376208E0,-5.347262634E-1,1.233976511E0,-3.307366437E0,3.570336532E0
4.551387208E0,-9.106159835E-1,1.160900348E0,-3.230919939E0,3.551866375E0
4.561397208E0,-8.627664636E-1,2.177134734E-1,-2.456777823E0,2.612952812E0
4.571407208E0,-8.795526503E-1,-6.469973356E-1,-2.635797347E0,2.853006497E0
4.581418208E0,-3.974909426E-1,-1.417218894E-1,-3.037259865E0,3.066436308E0
4.591428208E0,-2.227099192E-1,4.891242671E-1,-3.431822960E0,3.473650974E0
4.601438208E0,7.147762129E-1,6.667047912E-1,-4.495471541E0,4.600507003E0
4.611449208E0,-5.741629556E-2,1.960310622E0,-3.932002265E0,4.393945401E0
4.621459208E0,-2.502263314E-1,1.989471856E0,-1.525542072E0,2.519501954E0
4.631470208E0,-9.671323925E-2,2.015786666E0,2.408093905E0,3.141920685E0
4.641480208E0,-7.489507033E-1,2.475829221E0,6.871867690E0,7.342562430E0
4.651490208E0,-2.436774791E0,2.931112143E0,8.626468588E0,9.431078945E0
4.661501208E0,-4.065166755E0,4.025700388E0,7.323068086E0,9.292963497E0
4.671511208E0,-4.465035614E0,4.833690866E0,4.077046835E0,7.741021982E0
4.681521208E0,-3.997689301E0,4.729136803E0,1.923757046E0,6.484373202E0
4.691532208E0,-3.126468787E0,3.776693201E0,1.671870106E0,5.180093461E0
4.701542208E0,-1.929315263E0,2.340792453E0,1.221900549E0,3.270261097E0
4.711552208E0,1.695401640E-1,1.020606349E0,3.674603739E-1,1.097910886E0
4.721563208E0,2.100323225E0,-2.302896649E-1,-4.037622276E-1,2.151142699E0
4.731573208E0,2.276234369E0,-2.441261067E0,-6.297302154E-1,3.396698197E0
4.741584208E0,2.387172275E0,-4.937779491E0,-1.471942985E-1,5.486522025E0
4.751594208E0,2.502212150E0,-6.613508466E0,6.303047043E-1,7.099073454E0
4.761604208E0,2.157941103E0,-7.523562094E0,8.355136147E-1,7.871389927E0
4.771615208E0,2.543674172E0,-7.910865287E0,-2.058249146E-2,8.309782880E0
4.781625208E0,3.685697369E0,-7.799362392E0,-3.061309755E-3,8.626379785E0
4.791635208E0,3.937441930E0,-7.415000934E0,2.268032918E0,8.696531557E0
4.801646208E0,3.471026787E0,-7.378903148E0,2.815490470E0,8.626889660E0
4.811656208E0,3.533848979E0,-8.454589099E0,1.524536643E0,9.289369054E0
4.821667208E0,3.555142200E0,-1.029106330E1,2.755000439E-1,1.089132316E1
4.831677208E0,3.239004300E0,-1.214161232E1,3.174786669E-1,1.257023036E1
4.841687208E0,2.465391941E0,-1.339482734E1,6.747382808E-1,1.363652554E1
4.851698208E0,1.984068152E0,-1.411174393E1,2.752623546E-1,1.425319657E1
4.861708208E0,1.821759678E0,-1.413291670E1,-2.278636551E-1,1.425166883E1
4.871718208E0,1.597350412E0,-1.360375187E1,-7.434310779E-1,1.371737158E1
4.881729208E0,9.942994335E-1,-1.246823077E1,-1.259288230E0,1.257104677E1
4.891739208E0,3.314233992E-1,-1.091158970E1,-1.825953301E0,1.106827614E1
4.901750208E0,-3.967283195E-1,-8.371168043E0,-1.997185357E0,8.615253746E0
4.911760208E0,-8.480500451E-1,-4.967393299E0,-2.068684233E0,5.447351607E0
4.921770208E0,-1.500141183E-1,-1.528220097E0,-2.013236256E0,2.532011280E0
4.931781208E0,1.458896677E0,1.417294323E0,-1.725405750E0,2.667232220E0
4.941791208E0,2.417926876E0,3.368277467E0,-1.920223281E0,4.569345787E0
4.951801208E0,1.536659091E0,4.962010937E0,-1.938895780E0,5.544564054E0
4.961812208E0,1.739841941E-1,6.295666687E0,-2.219114234E0,6.677586205E0
4.971822208E0,-1.742950467E0,7.267587365E0,-2.759558344E0,7.966860404E0
4.981832208E0,-3.191811714E0,8.237856204E0,-3.067664509E0,9.352031993E0
4.991843208E0,-4.087907746E0,9.548363997E0,-2.759416841E0,1.074693566E1
5.001853208E0,-4.646816485E0,1.060230474E1,-1.872001294E0,1.172630198E1
5.011864208E0,-4.920318536E0,1.092483949E1,-7.950119984E-1,1.200806797E1
5.021874208E0,-4.658301001E0,1.114248689E1,-2.212586403E-3,1.207703553E1
5.031884208E0,-3.798828713E0,1.146747631E1,1.046780241E-1,1.208077274E1
5.041895208E0,-2.407664866E0,1.181190421E1,-4.928430963E-1,1.206485911E1
5.051905208E0,-8.718754023E-1,1.108040233E1,-1.833925395E0,1.126493519E1
5.061915208E0,-9.237457600E-1,8.779700137E0,-3.351950287E0,9.443093320E0
5.071926208E0,-1.812419482E0,7.431149774E0,-4.281564020E0,8.765765329E0
5.081936208E0,-2.434450376E0,6.558499031E0,-3.960854766E0,8.039205723E0
5.091946208E0,-2.962028126E0,6.362677533E0,-2.714901989E0,7.525155734E0
5.101957208E0,-3.006665186E0,6.730828171E0,-1.860309201E0,7.602949015E0
5.111967208E0,-2.663476312E0,7.582623065E0,-1.094133332E0,8.110943617E0
5.121978208E0,-1.860629483E0,8.833574628E0,2.102893368E-1,9.029850740E0
5.131988208E0,-1.287461869E0,9.951220783E0,2.155107104E0,1.026298396E1
5.141998208E0,-1.527814008E0,1.074932947E1,4.131812149E0,1.161697772E1
5.152009208E0,-1.813464526E0,1.124589139E1,4.766282995E0,1.234812457E1
5.162018167E0,-1.950234554E0,1.156280814E1,4.122610971E0,1.242971714E1
5.172028167E0,-1.811246969E0,1.138973290E1,2.797606176E0,1.186731778E1
5.182039167E0,-2.419300971E0,1.076233367E1,1.118269395E0,1.108744198E1
5.192049167E0,-3.813081594E0,9.455197386E0,-1.861472797E-1,1.019681321E1
5.202060167E0,-5.157652341E0,8.051992514E0,-5.808085354E-1,9.579838186E0
5.212070167E0,-5.297646963E0,7.211616647E0,-4.544981524E-1,8.959857509E0
5.222080167E0,-4.932377833E0,6.578176666E0,-1.007382798E0,8.283452145E0
5.232091167E0,-4.352255688E0,5.367701284E0,-1.755959937E0,7.130059042E0
5.242101167E0,-1.963274576E0,2.935024515E0,-3.725380375E0,5.132959663E0
5.252111167E0,1.498184558E0,-2.848360008E-1,-3.181066579E0,3.527729170E0
5.262122167E0,2.879766573E0,-5.267667704E0,-3.249272887E-1,6.012233885E0
5.272132167E0,4.010405534E0,-1.292095846E1,-3.268008828E-2,1.352906457E1
5.282142167E0,7.223606363E0,-2.169231872E1,-5.962667756E0,2.362817358E1
5.292153167E0,6.625169569E0,-2.654208358E1,-9.111196918E0,2.883381664E1
5.302163167E0,2.284172841E0,-2.210554846E1,-6.032011056E0,2.302732889E1
5.312174167E0,3.548123787E0,-1.661762550E1,-3.343099941E0,1.731793801E1
5.322184167E0,5.547852244E0,-1.701795512E1,-2.058593254E0,1.801741566E1
5.332194167E0,3.234303723E0,-1.758018011E1,3.470942587E0,1.820908827E1
5.342205167E0,1.382438047E0,-1.710816479E1,7.495087323E0,1.872903552E1
5.352215167E0,2.666361035E0,-1.630829610E1,6.705158894E0,1.783337205E1
5.362225167E0,5.607838245E0,-1.443407754E1,3.906315155E0,1.597027684E1
5.372236167E0,8.057014688E0,-1.235035792E1,1.483340378E0,1.482049679E1
5.382246167E0,8.535805171E0,-1.231890692E1,-1.460983841E-1,1.498788785E1
5.392257167E0,7.634684919E0,-1.304152220E1,-1.556758164E0,1.519187978E1
5.402267167E0,5.159394811E0,-1.320289717E1,-1.761591975E0,1.428422398E1
5.412277167E0,2.030540653E0,-1.409818190E1,-1.877777174E0,1.436690208E1
5.422288167E0,-1.835832464E0,-1.471848026E1,-2.591349152E0,1.505719205E1
5.432298167E0,-4.775003532E0,-1.241894342E1,-3.504994140E0,1.375920777E1
5.442308167E0,-5.075798923E0,-6.637262780E0,-4.707065903E0,9.590279523E0
5.452319167E0,-3.643305348E0,-1.883807407E0,-5.261559702E0,6.671312817E0
5.462329167E0,-2.057535785E0,1.041250529E0,-4.813878745E0,5.337704071E0
5.472339167E0,-9.329291046E-1,3.249769608E0,-4.024933233E0,5.256562256E0
5.482350167E0,-7.596626562E-1,4.680684435E0,-2.978026693E0,5.599512221E0
5.492360167E0,-3.379500613E-1,6.236135015E0,-1.547431709E0,6.434138254E0
5.502371167E0,-6.025400779E-1,8.330215314E0,-3.154356498E-1,8.357932841E0
5.512381167E0,-9.934874015E-1,9.926551380E0,2.276981972E-1,9.978741704E0
5.522391167E0,-1.665777014E0,1.110529860E1,2.627393728E-1,1.123260887E1
5.532402167E0,-2.184722666E0,1.197900594E1,-4.855217975E-1,1.218627620E1
5.542412167E0,-2.202223236E0,1.297156962E1,-1.479433853E0,1.324009555E1
5.552422167E0,-2.783406213E0,1.297003181E1,-3.412276595E0,1.369717879E1
5.562433167E0,-3.615862611E0,9.889927930E0,-3.546188943E0,1.111128223E1
5.572443167E0,-3.471122389E0,7.587982038E0,-2.019379195E0,8.585106545E0
5.582453167E0,-3.554191443E0,7.575095944E0,-1.140395333E0,8.444812425E0
5.592464167E0,-3.448613532E0,7.555793116E0,-3.752719617E-1,8.314070841E0
5.602474167E0,-3.284112060E0,7.858141528E0,2.776632396E-1,8.521318981E0
5.612485167E0,-2.905749845E0,8.586446736E0,9.189016342E-1,9.111247441E0
5.622495167E0,-2.644761421E0,9.467748435E0,1.646634400E0,9.967167513E0
5.632505167E0,-2.299355575E0,1.018775001E1,2.677195634E0,1.078168182E1
5.642516167E0,-2.110452502E0,1.066050324E1,3.624318269E0,1.145582918E1
5.652526167E0,-2.006141683E0,1.070287451E1,3.918070689E0,1.157270086E1
5.662536167E0,-1.962780779E0,1.057158113E1,3.418417926E0,1.128257138E1
5.672547167E0,-1.869916031E0,1.039453796E1,2.500306835E0,1.085331929E1
5.682557167E0,-1.648347049E0,1.009081370E1,1.757370139E0,1.037448403E1
5.692567167E0,-1.557493013E0,9.837079625E0,1.190276687E0,1.003048746E1
5.702578167E0,-1.721074279E0,9.600127058E0,3.802491117E-1,9.760590433E0
5.712588167E0,-2.189375880E0,9.346732121E0,-6.609294963E-1,9.622452696E0
5.722599167E0,-3.041258483E0,9.240822088E0,-1.787264614E0,9.891226457E0
5.732609167E0,-4.065918122E0,9.212685286E0,-2.386267273E0,1.034889037E1
5.742619167E0,-5.400981882E0,9.410001333E0,-2.993961525E0,1.125533367E1
5.752630167E0,-6.874831059E0,9.477319157E0,-3.957146462E0,1.235887894E1
5.762640167E0,-7.695826330E0,9.067942725E0,-5.417330697E0,1.306907801E1
5.772650167E0,-7.327842922E0,7.603827993E0,-6.684099562E0,1.249770655E1
5.782661167E0,-5.116454614E0,5.106688594E0,-5.189927802E0,8.898973357E0
5.792671167E0,-5.460908387E-1,2.472727273E0,-1.790531892E0,3.101386759E0
5.802682167E0,3.392703333E0,-4.835822761E-1,3.779848066E0,5.102111242E0
5.812692167E0,3.118899274E0,-4.375620577E0,7.387314953E0,9.134878780E0
5.822702167E0,5.231167045E0,-1.317722438E1,6.016475004E0,1.540137405E1
5.832713167E0,8.900494841E0,-2.721369243E1,-1.674594908E0,2.868114594E1
5.842723167E0,8.154232249E0,-3.710947108E1,-1.207133581E1,3.986629524E1
5.852733167E0,-4.314064745E-1,-2.890271446E1,-1.275968524E1,3.159687615E1
5.862744167E0,4.843888410E0,-1.683233526E1,-7.692661232E0,1.913028494E1
5.872754167E0,1.146884806E1,-1.256163654E1,5.011467272E-1,1.701706016E1
5.882764167E0,8.468577978E0,-1.154454612E1,6.814777815E0,1.585668801E1
5.892775167E0,5.120272261E0,-1.119601698E1,7.023668425E0,1.417391627E1
5.902785167E0,4.860600337E0,-1.100680459E1,3.052180789E0,1.241333922E1
5.912796167E0,5.295561261E0,-1.033999397E1,4.420375165E-1,1.162556844E1
5.922806167E0,6.649354237E0,-1.210382060E1,1.484078881E-1,1.381080772E1
5.932816167E0,6.634001788E0,-1.542719671E1,5.415024555E-1,1.680183332E1
5.942827167E0,5.512405838E0,-1.787780339E1,1.413990061E0,1.876171207E1
5.952837167E0,4.216864579E0,-1.860335163E1,1.423198403E0,1.912830710E1
5.962847167E0,1.797400616E0,-1.787593929E1,-3.098297779E-1,1.796874645E1
5.972858167E0,-3.468096162E-1,-1.582032607E1,-2.621217899E0,1.603975615E1
5.982868167E0,-2.191011200E0,-1.156517393E1,-3.546052119E0,1.229342359E1
5.992879167E0,-2.467532899E0,-6.396616527E0,-3.338574196E0,7.625713033E0
6.002889167E0,-1.419768426E0,-2.459565191E0,-2.706949775E0,3.923363404E0
6.012899167E0,-6.670750661E-1,-3.025267518E-1,-2.311824178E0,2.425086103E0
6.022910167E0,-3.216950941E-1,1.600608042E0,-2.058294754E0,2.627167892E0
6.032920167E0,-1.343205861E0,3.157643802E0,-1.771540282E0,3.861770493E0
6.042930167E0,-2.348681370E0,4.396675816E0,-1.571696484E0,5.226594708E0
6.052941167E0,-3.078716331E0,6.777862589E0,-1.845167252E0,7.669586541E0
6.062951167E0,-3.776620403E0,9.412053121E0,-2.488351618E0,1.044229378E1
6.072961167E0,-4.219930566E0,1.147266980E1,-2.901852091E0,1.256386533E1
6.082972167E0,-4.537727029E0,1.257349118E1,-3.055635032E0,1.371205865E1
6.092982167E0,-4.865254721E0,1.350418665E1,-2.378653175E0,1.454963063E1
6.102992167E0,-4.669970874E0,1.429821047E1,-8.655469608E-1,1.506640707E1
6.113003167E0,-4.239710235E0,1.463061298E1,3.659140778E-1,1.523692463E1
6.123013167E0,-2.856356075E0,1.373236138E1,3.979305071E-1,1.403192316E1
6.133024167E0,-1.529734233E0,1.125360153E1,-5.482513118E-1,1.137032162E1
6.143034167E0,-1.416618385E0,8.843763401E0,-1.653687311E0,9.107888914E0
6.153044167E0,-1.544264272E0,7.136905603E0,-2.085970795E0,7.594171969E0
6.163055958E0,-1.861248264E0,5.706131110E0,-2.083348904E0,6.353307800E0
6.173065958E0,-1.997564549E0,4.813304549E0,-2.205017767E0,5.658645435E0
6.183075958E0,-1.981566275E0,4.563330233E0,-2.422786789E0,5.533577824E0
6.193086958E0,-2.155406042E0,5.050909081E0,-2.046396840E0,5.860477606E0
6.203096958E0,-1.909962587E0,6.309118207E0,-1.088435805E0,6.681139284E0
6.213106958E0,-1.111788999E0,7.930645832E0,7.675091811E-3,8.008200610E0
6.223117958E0,-7.755280526E-1,9.061699069E0,8.998842231E-1,9.139235492E0
6.233127958E0,-1.200512311E0,9.873638756E0,1.271094636E0,1.002724557E1
6.243138958E0,-2.038209130E0,1.048568553E1,1.380615324E0,1.077079366E1
6.253148958E0,-2.685547796E0,1.089618463E1,1.314125465E0,1.129893500E1
6.263158958E0,-3.237843335E0,1.112583519E1,9.705325484E-1,1.162797367E1
6.273169958E0,-3.656282659E0,1.112021602E1,4.366092539E-1,1.171401873E1
6.283179958E0,-3.779444316E0,1.106526271E1,-1.096328815E-1,1.169342797E1
6.293189958E0,-4.004551594E0,1.078018172E1,1.026307969E0,1.154565110E1
6.303200958E0,-4.184824761E0,1.023803724E1,2.174138621E0,1.127195828E1
6.313210958E0,-4.265659009E0,9.624635078E0,2.611164197E0,1.084654902E1
6.323220958E0,-3.715132545E0,8.672732928E0,2.541776458E0,9.771342478E0
6.333231958E0,-2.306769698E0,7.560360961E0,2.451562107E0,8.275892765E0
6.343241958E0,-1.180413384E0,5.269785565E0,-2.120924281E0,5.801925152E0
6.353252958E0,5.778706750E-1,1.610823128E0,-6.895828410E0,7.105007750E0
6.363262958E0,1.557927753E0,-3.886678158E0,-4.190869027E0,5.924254315E0
6.373272958E0,1.868823625E0,-1.025957370E1,1.687456297E0,1.056403630E1
6.383283958E0,4.508774541E0,-1.803482451E1,4.535756810E-1,1.859542078E1
6.393293958E0,8.064103267E0,-3.154563957E1,-2.903317988E-1,3.256134871E1
6.403303958E0,5.784256343E0,-3.451529305E1,-8.339917307E-1,3.500655107E1
6.413314958E0,3.832829395E0,-2.336810032E1,-6.291936164E0,2.450198266E1
6.423324958E0,6.030930490E0,-1.541027955E1,-3.678071723E0,1.695219897E1
6.433334958E0,3.103517004E0,-1.707728916E1,2.822495142E0,1.758499649E1
6.443345958E0,2.948941619E-1,-2.411250466E1,3.936102041E0,2.443343494E1
6.453355958E0,1.043817164E-1,-2.652510794E1,-1.489980476E0,2.656712797E1
6.463366958E0,5.048200065E0,-2.152884694E1,-7.759717101E0,2.343477723E1
6.473376958E0,8.213780293E0,-1.452364870E1,-1.447306765E0,1.674805228E1
6.483386958E0,7.431759639E0,-1.088341782E1,2.810383512E0,1.347509147E1
6.493397958E0,6.151777820E0,-1.087976214E1,3.440822117E0,1.296352002E1
6.503407958E0,4.412625266E0,-1.254902994E1,2.985118196E0,1.363306073E1
6.513417958E0,1.601728368E0,-1.350602151E1,6.802052812E-1,1.361766610E1
6.523428958E0,-2.812080081E0,-1.193260477E1,-2.509916149E0,1.251377361E1
6.533438958E0,-6.393912774E0,-7.722139969E0,-4.775016396E0,1.110469936E1
6.543448958E0,-7.577948801E0,-2.768667136E0,-4.023050430E0,9.015307011E0
6.553459958E0,-6.334950036E0,8.937346333E-1,-2.377737501E0,6.825246456E0
6.563469958E0,-3.591381488E0,3.228840669E0,-1.995356494E0,5.225407219E0
6.573480958E0,-1.342510335E0,4.613665988E0,-2.274621853E0,5.316215987E0
6.583490958E0,-1.290685147E0,6.026783060E0,-1.623647826E0,6.373712770E0
6.593500958E0,-2.024537170E0,7.556720484E0,-3.479093313E-3,7.823221033E0
6.603511958E0,-2.907770935E0,9.803396155E0,1.275084776E0,1.030473431E1
6.613521958E0,-3.398051197E0,1.126045330E1,1.672440501E0,1.188030377E1
6.623531958E0,-4.214375127E0,1.249259729E1,1.078641719E0,1.322835639E1
6.633542958E0,-4.168936414E0,1.347249474E1,-7.974140346E-2,1.410299628E1
6.643552958E0,-3.202547202E0,1.398782740E1,-9.203669465E-1,1.437924543E1
6.653562958E0,-1.442714947E0,1.355705016E1,-2.521318805E0,1.386477854E1
6.663573958E0,-9.115171856E-1,1.064620095E1,-4.561279614E0,1.161799165E1
6.673583958E0,-1.664431570E0,7.775812731E0,-6.275762765E0,1.013009350E1
6.683594958E0,-2.156118964E0,6.080828290E0,-7.020706226E0,9.534969197E0
6.693604958E0,-2.310023235E0,5.775609480E0,-3.302922553E0,7.042951768E0
6.703614958E0,-2.844335662E0,6.507583231E0,-9.637380107E-1,7.167124655E0
6.713625958E0,-3.171986437E0,7.347172063E0,1.652072310E-1,8.004356858E0
6.723635958E0,-2.907894604E0,8.318667063E0,1.169390579E0,8.889518944E0
6.733645958E0,-2.319428043E0,9.681339621E0,2.617910714E0,1.029376218E1
6.743656958E0,-1.852281267E0,1.067834427E1,4.055030022E0,1.157157080E1
6.753666958E0,-1.791450782E0,1.122900697E1,4.553253726E0,1.224875557E1
6.763676958E0,-1.658265389E0,1.158355523E1,4.410879872E0,1.250537713E1
6.773687958E0,-1.230632050E0,1.163002306E1,4.155612656E0,1.241132580E1
6.783697958E0,-7.250945020E-1,1.128881814E1,3.638224118E0,1.188275439E1
6.793707958E0,-6.096679799E-1,1.058667279E1,2.815442523E0,1.097160209E1
6.803718958E0,-1.278719697E0,9.687831200E0,1.510621147E0,9.887930707E0
6.813728958E0,-1.677603885E0,9.211622263E0,-6.603984960E-1,9.386397908E0
6.823739958E0,-2.564576506E0,9.264433730E0,-2.780287893E0,1.000683695E1
6.833749958E0,-3.518126401E0,9.158611405E0,-3.426806341E0,1.039232303E1
6.843759958E0,-4.507497509E0,8.845781860E0,-3.450917920E0,1.051067196E1
6.853770958E0,-5.569037876E0,8.652546585E0,-4.021686859E0,1.104783737E1
6.863780958E0,-5.974004923E0,8.645162137E0,-5.032756984E0,1.165144652E1
6.873790958E0,-5.141625708E0,8.113527442E0,-4.422133423E0,1.057454049E1
6.883801958E0,-1.572064420E0,6.119447395E0,-4.160700903E0,7.565081293E0
6.893811958E0,3.869423317E0,1.587457654E0,-5.905837498E0,7.236806973E0
6.903822958E0,2.444005311E0,-3.094677476E0,-1.757300119E0,4.317209092E0
6.913832958E0,-2.434161524E-1,-7.222324653E0,2.301240717E0,7.583991934E0
6.923842958E0,-1.006718262E0,-1.365348010E1,1.286073740E0,1.375081765E1
6.933853958E0,-1.151491959E0,-2.387997025E1,-3.968324292E0,2.423482021E1
6.943863958E0,-1.035367426E0,-3.084507998E1,-3.091596285E0,3.101691333E1
6.953873958E0,3.575887829E0,-2.753715338E1,-2.819089724E0,2.791109201E1
6.963884958E0,6.927750700E0,-1.585055501E1,-6.975870945E0,1.865198647E1
6.973894958E0,6.992186431E0,-1.239872141E1,-1.533677596E0,1.431681287E1
6.983904958E0,6.442307839E0,-1.522412291E1,2.873058647E0,1.677890684E1
6.993915958E0,5.194007404E0,-2.102160800E1,-9.560802779E-1,2.167486575E1
7.003925958E0,3.204031226E0,-2.211194064E1,-2.447728087E0,2.247654572E1
7.013936958E0,2.588335497E0,-1.776941004E1,5.840549827E-1,1.796642797E1
7.023946958E0,4.658880168E0,-1.464611746E1,1.096584192E0,1.540832301E1
7.033956958E0,6.093198659E0,-1.399385237E1,1.402819248E0,1.532719400E1
7.043967958E0,5.872435278E0,-1.414105134E1,1.821831014E0,1.541991885E1
7.053977958E0,4.875469807E0,-1.431493818E1,1.344910763E0,1.518210940E1
7.063987958E0,3.271260465E0,-1.404817300E1,-2.405193686E-2,1.442403855E1
7.073998958E0,1.758457575E0,-1.384014895E1,-1.841025084E0,1.407235834E1
7.084008958E0,-7.325084791E-1,-1.255519641E1,-2.954033228E0,1.291881720E1
7.094018958E0,-3.019626124E0,-8.660197082E0,-3.227010491E0,9.722692638E0
7.104029958E0,-4.247588773E0,-4.060801224E0,-3.177060066E0,6.680256554E0
7.114039958E0,-3.636455335E0,-1.037072108E0,-2.977375313E0,4.812908654E0
7.124049958E0,-1.927777299E0,1.189161111E0,-3.107616194E0,3.845478888E0
7.134060958E0,1.283773738E-1,2.881599675E0,-3.460928353E0,4.505343772E0
7.144070958E0,-6.245941673E-1,5.186965603E0,-2.766495481E0,5.911702570E0
7.154081958E0,-1.204638399E0,7.226913548E0,-1.147813110E0,7.415990024E0
7.164091208E0,-1.396806702E0,9.200618387E0,-5.707490587E-1,9.323529491E0
7.174101208E0,-1.843330057E0,1.127634252E1,-8.480953610E-1,1.145744440E1
7.184112208E0,-1.616452827E0,1.262300657E1,-1.107431654E0,1.277417784E1
7.194122208E0,-1.778831321E0,1.343795992E1,-1.743233911E0,1.366681646E1
7.204132208E0,-2.335092295E0,1.371898529E1,-2.390267499E0,1.412007762E1
7.214143208E0,-2.479636635E0,1.387110996E1,-2.906665519E0,1.438766811E1
7.224153208E0,-2.447191167E0,1.306433570E1,-3.723568323E0,1.380328124E1
7.234163208E0,-2.569356605E0,9.339483327E0,-5.626904261E0,1.120221379E1
7.244174208E0,-3.138042766E0,6.825360691E0,-7.590122119E0,1.067908305E1
7.254184208E0,-3.422980508E0,6.065453036E0,-4.912178042E0,8.522676177E0
7.264195208E0,-4.131691112E0,6.454012796E0,-2.089275641E0,7.942935560E0
7.274205208E0,-4.629528023E0,7.502938380E0,1.886498515E-1,8.818287975E0
7.284215208E0,-4.798668383E0,8.641491839E0,1.990021495E0,1.008279649E1
7.294226208E0,-4.184630048E0,9.764136195E0,2.966983641E0,1.102961813E1
7.304236208E0,-3.987943162E0,1.062306001E1,3.069797573E0,1.175486078E1
7.314246208E0,-4.243829014E0,1.093175441E1,2.617455801E0,1.201517432E1
7.324257208E0,-4.001131265E0,1.115257685E1,2.524842921E0,1.211461322E1
7.334267208E0,-3.284452660E0,1.117929394E1,2.583849514E0,1.193484481E1
7.344277208E0,-2.860033974E0,1.037617303E1,2.174367832E0,1.098055720E1
7.354288208E0,-2.765577760E0,8.811412511E0,1.688251373E0,9.388269461E0
7.364298208E0,-2.625012450E0,7.854678807E0,1.682336329E0,8.450853510E0
7.374309208E0,-2.070557389E0,7.573388557E0,1.570011317E0,8.006769491E0
7.384319208E0,-1.443198365E0,7.919757147E0,1.181446295E0,8.136411380E0
7.394329208E0,-1.271114809E0,8.465102393E0,8.505523610E-1,8.602158491E0
7.404340208E0,-1.307698352E0,8.759247746E0,3.719846570E-1,8.864133835E0
7.414350208E0,-1.483642094E0,9.069877569E0,-4.226998973E-1,9.200138487E0
7.424360208E0,-1.652851598E0,9.354484944E0,-1.706327455E0,9.651417531E0
7.434371208E0,-1.686936918E0,9.468668202E0,-3.584175965E0,1.026390525E1
7.444381208E0,-1.738809030E0,9.280504217E0,-4.253457624E0,1.035582527E1
7.454391208E0,-1.143151856E-1,8.124380459E0,-3.595808415E0,8.885294816E0
7.464402208E0,2.526226957E0,6.032299908E0,-2.261111422E0,6.919760812E0
7.474412208E0,4.165610225E0,1.852145904E0,-3.292029190E0,5.623184968E0
7.484422208E0,3.181409225E0,-4.526462368E0,-1.285368859E0,5.679999941E0
7.494433208E0,1.606830941E-1,-1.138829682E1,5.064563498E0,1.246470726E1
7.504443208E0,-1.672371212E0,-1.703384201E1,8.562671957E0,1.913812817E1
7.514454208E0,2.175813264E-1,-2.683533314E1,3.608727254E0,2.707776502E1
7.524464208E0,6.202428887E-1,-3.149283453E1,-1.103989398E1,3.337757612E1
7.534474208E0,1.398782038E0,-2.354973355E1,-1.368194668E1,2.727163740E1
7.544485208E0,3.365931564E0,-1.862972023E1,-2.499209898E0,1.909560215E1
7.554495208E0,4.385368178E0,-2.033008821E1,2.867565480E0,2.099444861E1
7.564505208E0,3.965309760E0,-2.152569178E1,2.853995554E0,2.207315969E1
7.574516208E0,4.047036293E0,-1.885396563E1,1.784932745E-1,1.928425219E1
7.584526208E0,5.156636095E0,-1.628695142E1,-1.112252684E0,1.711995293E1
7.594536208E0,6.196584449E0,-1.684476644E1,-7.820709407E-1,1.796539591E1
7.604547208E0,6.633436362E0,-1.747403209E1,-8.314974546E-1,1.870924006E1
7.614557208E0,7.081603807E0,-1.662277690E1,-1.407260939E0,1.812308494E1
7.624568208E0,7.044621922E0,-1.543115294E1,-2.009470503E0,1.708171978E1
7.634578208E0,5.810654182E0,-1.519136330E1,-2.941115559E0,1.652850210E1
7.644588208E0,2.584009143E0,-1.472685348E1,-3.856356837E0,1.544114000E1
7.654599208E0,-1.040191306E0,-1.207525344E1,-4.222590172E0,1.283448524E1
7.664609208E0,-3.396359597E0,-7.865133628E0,-3.560554383E0,9.277560726E0
7.674619208E0,-3.717679008E0,-3.834638523E0,-3.148815676E0,6.200050804E0
7.684630208E0,-2.653434888E0,6.835745931E-2,-3.215273960E0,4.169337607E0
7.694640208E0,-8.775724907E-1,3.642092051E0,-2.600490689E0,4.560429783E0
7.704650208E0,5.523689210E-2,6.466363869E0,-1.960309453E0,6.757198085E0
7.714661208E0,-3.215337110E-1,8.449040092E0,-1.994370654E0,8.687184625E0
7.724671208E0,-1.282375669E0,9.785514784E0,-1.141530277E0,9.934982553E0
7.734681208E0,-1.959560571E0,1.037206477E1,8.323103090E-2,1.055587669E1
7.744692208E0,-2.839862249E0,1.118475992E1,5.463293320E-1,1.155258187E1
7.754702208E0,-2.935205194E0,1.207205151E1,6.745441532E-1,1.244206040E1
7.764713208E0,-3.410836426E0,1.281403043E1,1.383141321E-1,1.326093178E1
7.774723208E0,-3.921524640E0,1.318340372E1,-5.494763035E-1,1.376526111E1
7.784733208E0,-4.207478628E0,1.290095982E1,-1.338107235E0,1.363554808E1
7.794744208E0,-4.018413588E0,1.092658430E1,-1.721054252E0,1.176859890E1
7.804754208E0,-3.602729180E0,8.787030206E0,-1.927353376E0,9.690523640E0
7.814764208E0,-3.229421298E0,8.057950827E0,-1.945936997E0,8.896426487E0
7.824775208E0,-3.051984031E0,7.411824726E0,-1.398714795E0,8.136716498E0
7.834785208E0,-3.180977993E0,7.083901178E0,-8.100557148E-1,7.807462274E0
7.844795208E0,-3.272878974E0,7.015927881E0,-9.346668240E-2,7.742332777E0
7.854806208E0,-2.933750407E0,7.086785610E0,7.393803462E-1,7.705589207E0
7.864816208E0,-2.251875599E0,7.551115928E0,1.272868681E0,7.981885125E0
7.874826208E0,-1.605909566E0,8.317261392E0,1.552475371E0,8.611966232E0
7.884837208E0,-1.094648910E0,9.132968441E0,1.600138510E0,9.336477496E0
7.894847208E0,-8.242400368E-1,9.833213446E0,1.570384369E0,9.991874968E0
7.904858208E0,-8.768111832E-1,1.037635663E1,1.534059126E0,1.052572621E1
7.914868208E0,-1.239259178E0,1.072475128E1,1.501820941E0,1.090006970E1
7.924878208E0,-1.744607860E0,1.086463071E1,1.421132874E0,1.109520057E1
7.934889208E0,-2.272606902E0,1.073004301E1,1.091148913E0,1.102221262E1
7.944899208E0,-2.716525760E0,1.044378438E1,6.909841847E-1,1.081339926E1
7.954909208E0,-3.054469682E0,9.921798763E0,-3.645168856E-2,1.038138741E1
7.964920208E0,-3.202495455E0,8.992814190E0,-9.395749037E-1,9.592157484E0
7.974930208E0,-3.521744658E0,8.276644878E0,-1.159276138E0,9.069148640E0
7.984940208E0,-4.354144338E0,8.077711492E0,-1.713696116E0,9.335135256E0
7.994951208E0,-4.986045333E0,8.210670159E0,-2.895437111E0,1.003291127E1
8.004961208E0,-4.602757131E0,8.106013770E0,-4.834290791E0,1.050062855E1
8.014972208E0,-3.515170926E0,7.600387491E0,-4.167240137E0,9.353513084E0
8.024982208E0,-1.663575830E0,7.743816767E0,-1.252385885E0,8.018893507E0
8.034992208E0,2.071293992E0,7.958934662E0,9.407950714E-2,8.224582099E0
8.045003208E0,4.101437910E0,6.507928217E0,-8.686936399E-1,7.741417910E0
8.055013208E0,2.509016848E0,2.440232542E0,-1.317385580E0,3.739706561E0
8.065023208E0,3.116704814E-1,-5.630603794E0,-3.396928531E0,6.583309276E0
8.075034208E0,7.649500009E-1,-2.197335461E1,-8.540195260E0,2.358703874E1
8.085044208E0,3.358873975E0,-4.449779293E1,-1.006467899E1,4.574530984E1
8.095054208E0,4.260856106E0,-5.327726093E1,-8.453945321E0,5.411183436E1
8.105065208E0,1.993406448E0,-3.027032207E1,-8.049274728E0,3.138561599E1
8.115075208E0,1.015253106E1,-1.198527298E1,-9.946160603E0,1.859157783E1
8.125085208E0,8.845971310E0,-6.630339677E0,5.603062239E-1,1.106917141E1
8.135096208E0,4.591353598E0,-5.014796677E0,7.818657619E0,1.036147289E1
8.145106208E0,3.298360263E0,-1.002258371E0,9.137615224E0,9.766253849E0
8.155117208E0,3.087087571E-1,4.140833818E0,5.344518244E0,6.767989440E0
8.165127958E0,-7.148757617E-1,5.265601298E0,4.361357464E0,6.874521315E0
8.175137958E0,1.106505090E0,6.590349984E-1,6.031353244E0,6.167325401E0
8.185148958E0,3.379007108E0,-7.220058272E0,4.562667158E0,9.185034681E0
8.195158958E0,5.043389561E0,-1.594883735E1,1.569141251E-1,1.672799489E1
8.205168958E0,2.548537886E0,-2.411917049E1,-1.204000175E0,2.428330799E1
8.215179958E0,-1.031792511E0,-2.624825397E1,-1.846922001E-1,2.626917478E1
8.225189958E0,-1.073185389E0,-2.271410796E1,-1.542091739E0,2.279167554E1
8.235199958E0,-5.876372793E-1,-1.886037886E1,-3.438641106E0,1.918028834E1
8.245210958E0,-7.394529247E-1,-1.545818579E1,-3.466940460E0,1.585944433E1
8.255220958E0,-4.286623031E-2,-1.262148630E1,-3.309097797E0,1.304813711E1
8.265230958E0,1.547910742E0,-1.120850546E1,-3.026090806E0,1.171255087E1
8.275241958E0,2.113943436E0,-9.216842657E0,-2.626665165E0,9.814189488E0
8.285251958E0,2.041748157E0,-5.812511843E0,-2.544312980E0,6.665400063E0
8.295262958E0,1.630543739E0,-1.461635513E0,-2.204067156E0,3.106921835E0
8.305272958E0,1.719739798E0,1.732811249E0,-1.304980420E0,2.768232955E0
8.315282958E0,2.171474045E0,4.711468272E0,-7.606080779E-1,5.243258286E0
8.325293958E0,2.380227099E0,7.664398715E0,-1.780101775E0,8.220538366E0
8.335303958E0,1.401444714E0,8.821739278E0,-3.715668150E0,9.674364113E0
8.345313958E0,1.409269604E-1,9.370415098E0,-4.391400458E0,1.034934479E1
8.355324958E0,-1.038794406E0,1.007554545E1,-3.786797190E0,1.081367389E1
8.365334958E0,-1.648934110E0,1.066471207E1,-2.788084570E0,1.114578319E1
8.375344958E0,-1.804543429E0,1.067110775E1,-1.888959389E0,1.098622252E1
8.385355958E0,-1.584102229E0,1.093990660E1,-1.355345997E0,1.113678136E1
8.395365958E0,-1.919719398E0,1.078873034E1,-1.347514236E0,1.104073456E1
8.405376958E0,-1.954645109E0,8.673241051E0,-2.038779087E0,9.121533204E0
8.415386958E0,-2.187843764E0,6.537989337E0,-3.851099020E0,7.897020234E0
8.425396958E0,-3.793090256E0,6.529375804E0,-4.550130143E0,8.816119691E0
8.435407958E0,-5.191072102E0,7.670614305E0,-3.919489224E0,1.005723367E1
8.445417958E0,-5.437828696E0,9.221385359E0,-3.510822644E0,1.126631282E1
8.455427958E0,-5.109304639E0,1.074514169E1,-2.117586690E0,1.208500051E1
8.465438958E0,-4.561267335E0,1.152987779E1,-2.745314527E-1,1.240236305E1
8.475448958E0,-3.979736010E0,1.182504407E1,1.404402966E0,1.255556903E1
8.485458958E0,-3.672519792E0,1.164610641E1,2.984803616E0,1.257092871E1
8.495469958E0,-3.613929521E0,1.138718117E1,4.076442525E0,1.262322325E1
8.505479958E0,-3.003101308E0,1.093086212E1,4.170876228E0,1.207884815E1
8.515489958E0,-2.431879794E0,1.048353142E1,3.927464826E0,1.145615338E1
8.525500958E0,-2.094335968E0,9.957808256E0,3.442989095E0,1.074236298E1
8.535510958E0,-1.708692946E0,9.253780103E0,2.601756027E0,9.763258278E0
8.545520958E0,-1.201182694E0,8.386250351E0,1.945678550E0,8.692393217E0
8.555531958E0,-9.622461668E-1,7.880875502E0,1.795251911E0,8.139843106E0
8.565541958E0,-1.323084277E0,7.870645214E0,1.082932332E0,8.054213215E0
8.575552958E0,-1.456989462E0,7.843123539E0,3.957372896E-1,7.987115446E0
8.585562958E0,-1.773743220E0,7.560376164E0,-3.885954273E-1,7.775375178E0
8.595572958E0,-2.325813787E0,7.126806293E0,-1.970077811E0,7.751256949E0
8.605583958E0,-2.776411481E0,6.935477795E0,-3.735607156E0,8.352489077E0
8.615593958E0,-2.838730229E0,6.973498145E0,-2.975290196E0,8.095703641E0
8.625603958E0,-3.452004333E0,7.209775359E0,-8.026696582E-1,8.033770797E0
8.635614958E0,-2.304052789E0,7.702157695E0,1.497415649E0,8.177661404E0
8.645624958E0,2.109378661E0,8.548607649E0,4.263766265E0,9.783040112E0
8.655634958E0,4.882062542E0,9.028260012E0,6.471122918E0,1.213340205E1
8.665645958E0,3.694825750E0,8.059298025E0,6.106549022E0,1.076540584E1
8.675655958E0,3.496424168E0,4.997269063E0,1.115178777E0,6.200105141E0
8.685666958E0,5.854428193E0,-2.111880392E0,-9.369467849E0,1.124816856E1
8.695676958E0,4.107890313E0,-1.448251237E1,-1.503449888E1,2.127566882E1
8.705686958E0,-1.450263848E0,-2.707101335E1,-1.151226247E1,2.945293222E1
8.715697958E0,-3.757493284E0,-3.273487435E1,-3.454235630E0,3.313038633E1
8.725707958E0,2.437028852E0,-2.443956048E1,-2.218989104E-1,2.456176837E1
8.735717958E0,4.872240390E0,-1.272316353E1,-1.546187713E0,1.371161234E1
8.745728958E0,1.551177873E0,-1.047776138E1,-4.895728363E0,1.166866713E1
8.755738958E0,-1.893018233E0,-1.487260351E1,-7.376028657E0,1.670878966E1
8.765748958E0,-4.653854486E0,-2.009027986E1,-2.996426711E0,2.083881665E1
8.775759958E0,-2.776339853E0,-1.814194083E1,9.492337731E-1,1.837768007E1
8.785769958E0,1.234430986E0,-1.302960792E1,1.094223671E0,1.313361442E1
8.795779958E0,4.595414490E0,-1.117446882E1,-1.307375147E0,1.215301681E1
8.805790958E0,7.442162420E0,-1.040462207E1,-2.381946326E0,1.301213319E1
8.815800958E0,7.693880961E0,-1.102110922E1,-3.164689697E0,1.380854495E1
8.825810958E0,6.276939225E0,-1.327342044E1,-3.187527752E0,1.502477918E1
8.835821958E0,4.364706164E0,-1.545568786E1,-2.775500193E0,1.629823145E1
8.845831958E0,1.744421773E0,-1.528602037E1,-3.069059654E0,1.568835725E1
8.855842958E0,-1.961574206E-1,-1.452383464E1,-3.360090780E0,1.490873772E1
8.865852958E0,-4.423882033E-1,-1.574808840E1,-2.987961112E0,1.603514600E1
8.875862958E0,-1.018068511E0,-1.508902300E1,-2.095021116E0,1.526775006E1
8.885873958E0,-1.946179949E0,-9.626425495E0,-1.148298429E0,9.888087454E0
8.895883958E0,-1.957208821E0,-3.595755790E0,-1.384210192E0,4.321592754E0
8.905893958E0,-1.004679703E0,8.488730407E-1,-2.365156631E0,2.706276526E0
8.915904958E0,-5.128170387E-1,4.170616611E0,-3.379488333E0,5.392398875E0
8.925914958E0,-4.784358492E-1,6.437180416E0,-3.356493573E0,7.275454740E0
8.935924958E0,-5.579247992E-1,6.811503375E0,-3.163217368E0,7.530856686E0
8.945935958E0,-4.224857430E-1,6.891050650E0,-2.660003650E0,7.398695337E0
8.955945958E0,-2.870696372E-1,7.235494337E0,-1.834289677E0,7.469899992E0
8.965955958E0,-4.670279315E-1,8.070660335E0,-5.933959097E-1,8.105910932E0
8.975966958E0,-9.101790503E-2,9.128530989E0,9.783584619E-1,9.181260674E0
8.985976958E0,-3.920391449E-1,1.025635305E1,1.573925443E0,1.038381982E1
8.995987958E0,-7.783550352E-1,1.191404571E1,1.077768145E0,1.198799007E1
9.005997958E0,-6.840796463E-1,1.311399259E1,-2.633866596E-1,1.313446380E1
9.016007958E0,-1.110630227E0,1.336012529E1,-1.983608268E0,1.355216400E1
9.026018958E0,-2.297022097E0,1.196656891E1,-3.720317856E0,1.274032366E1
9.036028958E0,-3.509627473E0,1.058210845E1,-3.951858240E0,1.182859619E1
9.046038958E0,-4.043615672E0,9.759689387E0,-3.252558146E0,1.105357404E1
9.056049958E0,-4.257432269E0,9.027081213E0,-1.970011153E0,1.017324278E1
9.066059958E0,-4.326553082E0,8.530523381E0,-4.258936099E-1,9.574459571E0
9.076069958E0,-4.188083999E0,8.287751665E0,1.146361905E0,9.356335867E0
9.086080958E0,-3.813586208E0,8.346507996E0,2.322329285E0,9.465772488E0
9.096090958E0,-3.226037807E0,8.750435407E0,2.871524338E0,9.758232000E0
9.106100958E0,-2.523741891E0,9.312666827E0,2.868987815E0,1.006608800E1
9.116111958E0,-1.995456335E0,9.790520586E0,2.321360986E0,1.025791676E1
9.126121958E0,-1.757712932E0,1.004198009E1,1.473631661E0,1.030060723E1
9.136132958E0,-1.600916190E0,1.001070685E1,6.467231011E-1,1.015851539E1
9.146142958E0,-1.590636200E0,9.880309260E0,4.505279660E-2,1.000763031E1
9.156152958E0,-1.692830035E0,9.796399961E0,-3.491933068E-1,9.947716406E0
9.166163292E0,-1.718913733E0,9.755578794E0,-4.902445205E-1,9.917979720E0
9.176173292E0,-1.569883409E0,9.504874746E0,-4.305106080E-1,9.643262790E0
9.186183292E0,-1.589096482E0,9.188076695E0,-1.851520836E-1,9.326320940E0
9.196194292E0,-1.857862580E0,8.939850111E0,1.820014577E-1,9.132672002E0
9.206204292E0,-2.178902640E0,8.729209430E0,2.814604763E-1,9.001440661E0
9.216214292E0,-2.344820746E0,8.747456251E0,-4.676135302E-2,9.056398943E0
9.226225292E0,-2.365337603E0,8.975322829E0,-1.254259479E0,9.366130936E0
9.236235292E0,-2.776470538E0,9.098911334E0,-5.135604830E0,1.081080076E1
9.246245292E0,-2.560881943E0,8.261639169E0,-1.071442861E1,1.376995928E1
9.256256292E0,-1.694931524E0,4.740364627E0,-1.470979949E1,1.554741299E1
9.266266292E0,6.822086104E-1,-6.255275291E-1,-1.083918948E1,1.087863603E1
9.276276292E0,2.072643237E0,-4.798321059E0,5.080931025E0,7.289416646E0
9.286287292E0,1.333366021E0,-7.397659262E0,1.539681692E1,1.713374445E1
9.296297292E0,2.018770500E0,-1.282852568E1,1.129030567E1,1.720806519E1
9.306308292E0,5.602061196E0,-2.473755798E1,1.894065177E-1,2.536465532E1
9.316318292E0,1.864754255E0,-3.369818910E1,-9.893053851E0,3.516984179E1
9.326328292E0,-6.891268752E0,-2.803921637E1,-6.264906825E0,2.954549538E1
9.336339292E0,-8.071634627E-1,-1.767657263E1,-3.754096344E0,1.808883556E1
9.346349292E0,5.813939148E0,-1.082363822E1,-3.630337393E0,1.281141610E1
9.356359292E0,5.937814751E0,-7.992978321E0,5.487424779E-1,9.972284831E0
9.366370292E0,4.267441825E0,-7.642552933E0,4.070262018E0,9.653326264E0
9.376380292E0,3.522313008E0,-1.106613863E1,3.506174693E-1,1.161847863E1
9.386390292E0,4.034758894E0,-1.252470084E1,-2.417968976E0,1.337886335E1
9.396401292E0,4.560573563E0,-1.228744656E1,-5.642019314E-1,1.311863171E1
9.406411292E0,4.303861207E0,-1.465984438E1,2.291983113E0,1.544951278E1
9.416421292E0,3.761400393E0,-1.678102010E1,3.668987781E0,1.758443174E1
9.426432292E0,2.490029184E0,-1.712169759E1,3.951398357E0,1.774729057E1
9.436442292E0,7.462621535E-1,-1.694563442E1,3.167972324E0,1.725536096E1
9.446453292E0,-4.813062474E-1,-1.617122099E1,1.693175605E0,1.626674177E1
9.456463292E0,-5.135244057E-1,-1.471024037E1,5.752631092E-1,1.473043810E1
9.466473292E0,-4.292033167E-1,-1.289801282E1,2.891870601E-1,1.290839182E1
9.476484292E0,-9.476474234E-1,-1.092086806E1,-3.022775142E-1,1.096607344E1
9.486494292E0,-1.376210909E0,-7.639510041E0,-1.550258253E0,7.915767227E0
9.496504292E0,-4.840830901E-1,-3.707105488E0,-3.016143522E0,4.803549654E0
9.506515292E0,1.264510963E0,-7.491160333E-2,-4.291991944E0,4.475018947E0
9.516525292E0,3.446730144E0,2.406901073E0,-5.445135376E0,6.879143895E0
9.526535292E0,3.799165805E0,3.560528655E0,-6.448185461E0,8.287950341E0
9.536546292E0,2.254817041E0,4.842237157E0,-5.293817037E0,7.520369631E0
9.546556292E0,7.401263778E-1,6.762156968E0,-3.663612728E0,7.726358271E0
9.556566292E0,-5.091954195E-1,9.069680518E0,-2.985939730E0,9.562124280E0
9.566577292E0,-9.785889883E-1,1.103105533E1,-2.405521131E0,1.133262327E1
9.576587292E0,-1.257551315E0,1.187956000E1,-2.816530105E0,1.227347640E1
9.586597292E0,-1.548454094E0,1.222760148E1,-3.648846170E0,1.285402763E1
9.596608292E0,-1.294458355E0,1.253899027E1,-4.038993448E0,1.323689418E1
9.606618292E0,1.657619856E-1,1.318315346E1,-3.818284446E0,1.372597203E1
9.616629292E0,6.017274611E-1,1.193630372E1,-4.954427683E0,1.293768820E1
9.626639292E0,-2.017025252E0,8.692059145E0,-5.779377426E0,1.063115640E1
9.636649292E0,-4.070198284E0,7.362651397E0,-4.334634519E0,9.463836752E0
9.646660292E0,-4.755539321E0,6.739104320E0,-1.609982883E0,8.403732870E0
9.656670292E0,-4.789341782E0,7.106309463E0,1.294916192E0,8.666846995E0
9.666680292E0,-4.203435279E0,8.449144172E0,3.700776461E0,1.013669827E1
9.676691292E0,-3.730624451E0,9.846486626E0,5.195644040E0,1.174161721E1
9.686701292E0,-3.289633586E0,1.096718035E1,5.866084617E0,1.286513438E1
9.696711292E0,-2.925988228E0,1.138891663E1,5.288184414E0,1.289316576E1
9.706722292E0,-3.115831240E0,1.141268439E1,4.681777865E0,1.272308191E1
9.716732292E0,-2.481033828E0,1.111870042E1,3.655460540E0,1.196425592E1
9.726742292E0,-1.861597782E0,1.049238878E1,1.977081606E0,1.083810962E1
9.736753292E0,-2.014985451E0,9.397285978E0,-4.543881516E-1,9.621622457E0
9.746763292E0,-2.453550745E0,7.954144038E0,-2.112297299E0,8.587788919E0
9.756773292E0,-2.508628300E0,7.318040065E0,-1.910230390E0,7.968431871E0
9.766784292E0,-2.372614463E0,7.281510755E0,-3.161859206E-1,7.664833449E0
9.776794292E0,-2.067857291E0,7.441123955E0,1.850739648E0,7.941762822E0
9.786805292E0,-1.833041588E0,7.824539334E0,3.164347050E0,8.636929402E0
9.796815292E0,-1.993716058E0,8.573544855E0,3.093829629E0,9.330185254E0
9.806825292E0,-2.123410225E0,9.406474292E0,1.785763049E0,9.807118805E0
9.816836292E0,-2.364318872E0,1.012095610E1,-5.393775773E-1,1.040743408E1
9.826846292E0,-2.378766903E0,1.043781087E1,-4.611246411E0,1.165632966E1
9.836856292E0,-1.065481975E0,9.776444584E0,-1.013534025E1,1.412229594E1
9.846867292E0,2.842831758E0,8.148348196E0,-1.318590399E1,1.575897632E1
9.856877292E0,7.317305655E0,5.338711959E0,-6.792855434E0,1.132200037E1
9.866887292E0,6.311217942E0,-1.143895476E0,1.335999899E0,6.551706992E0
9.876898292E0,2.934334543E-1,-6.179653251E0,5.654377989E0,8.381301088E0
9.886908292E0,-1.832501159E0,-1.170755830E1,8.022896769E0,1.431055046E1
9.896918292E0,-7.814338866E-1,-2.275951042E1,1.321208782E0,2.281121536E1
9.906929292E0,2.779577456E0,-3.463596087E1,-2.433616300E1,4.242198328E1
9.916939292E0,3.982191256E0,-2.698554109E1,-2.951041325E1,4.018633804E1
9.926949292E0,5.553175550E0,-1.710091776E1,-4.146866975E0,1.845198235E1
9.936960292E0,6.984474539E0,-1.734556994E1,4.342659530E0,1.919662399E1
9.946970292E0,1.396626462E0,-1.630355050E1,2.954782841E0,1.662790023E1
9.956981292E0,-5.870771745E0,-1.435668613E1,2.448350816E0,1.570270102E1
9.966991292E0,-7.430132943E0,-1.286843994E1,7.327150612E0,1.656776262E1
9.977001292E0,-5.896280224E0,-1.123978456E1,8.741702006E0,1.541156161E1
9.987012292E0,5.018934897E-1,-1.275176694E1,6.841758038E0,1.447995546E1
9.997022292E0,7.170136499E0,-1.405044055E1,4.120560352E0,1.630351970E1
1.000703229E1,1.031250153E1,-1.419862771E1,1.504367258E0,1.761283161E1
1.001704329E1,1.129252645E1,-1.465532332E1,-6.348626089E-1,1.851223124E1
1.002705329E1,9.384002858E0,-1.455193519E1,-3.077781654E0,1.758667300E1
1.003706329E1,5.679402902E0,-1.428718496E1,-4.523166293E0,1.602617561E1
1.004707429E1,2.525817652E0,-1.574187866E1,-4.951205868E0,1.669433850E1
1.005708429E1,-1.600697212E-1,-1.640529673E1,-5.050305648E0,1.716580817E1
1.006709429E1,-1.106711716E0,-1.324633964E1,-5.892057949E0,1.453983052E1
1.007710529E1,-1.017417862E0,-6.276309480E0,-6.504290664E0,9.095768073E0
1.008711529E1,2.266547433E-1,-1.065304220E0,-6.070506785E0,6.167438535E0
1.009712529E1,1.342411517E0,1.031116135E0,-5.268602089E0,5.533844697E0
1.010713629E1,-1.783444628E-1,2.792010975E0,-4.379354024E0,5.196717589E0
1.011714629E1,-3.112743326E0,4.680456979E0,-2.491588637E0,6.148484567E0
1.012715729E1,-4.366412966E0,5.896757357E0,-1.508074100E0,7.490767451E0
1.013716729E1,-4.772876900E0,7.277068040E0,-1.546436512E0,8.838978394E0
1.014717729E1,-4.486591667E0,9.035926296E0,-1.518789707E0,1.020216599E1
1.015718829E1,-4.550452909E0,1.093492360E1,-1.383313229E0,1.192445937E1
1.016719917E1,-4.766750772E0,1.210626123E1,-1.233973002E0,1.306928319E1
1.017720917E1,-4.963461632E0,1.298489075E1,-9.350399494E-1,1.393261063E1
1.018722017E1,-4.601576578E0,1.356553914E1,-3.331205535E-1,1.432861921E1
1.019723017E1,-3.422119213E0,1.300368838E1,-7.127358270E-1,1.346531855E1
1.020724017E1,-1.530266330E0,1.065671776E1,-1.829490867E0,1.092036562E1
1.021725117E1,-6.261729155E-1,9.293249393E0,-1.937143954E0,9.513627253E0
1.022726117E1,-7.988093264E-1,9.392635687E0,-1.372439747E0,9.525927375E0
1.023727117E1,-1.131277623E0,9.721115890E0,-4.112416570E-1,9.795356191E0
1.024728217E1,-1.618956020E0,9.850720010E0,7.136936009E-1,1.000834961E1
1.025729217E1,-2.169590803E0,9.827149884E0,1.734892419E0,1.021224024E1
1.026730217E1,-2.790633371E0,9.794875007E0,2.178808208E0,1.041510520E1
1.027731317E1,-3.088230920E0,9.621910860E0,2.178556923E0,1.033752626E1
1.028732317E1,-2.814983516E0,9.317017740E0,2.237812461E0,9.986929277E0
1.029733417E1,-2.180904581E0,9.137347421E0,2.142523896E0,9.635241114E0
1.030734417E1,-1.555817931E0,9.037495689E0,1.584135851E0,9.306255109E0
1.031735417E1,-1.059336844E0,8.824376373E0,7.931561653E-1,8.923054949E0
1.032736517E1,-9.837015013E-1,8.557410632E0,1.184599844E-1,8.614579394E0
1.033737517E1,-9.679347767E-1,8.473136467E0,-3.051240849E-1,8.533700254E0
1.034738517E1,-9.647683632E-1,8.609852555E0,-4.759013736E-1,8.676797862E0
1.035739617E1,-1.108930588E0,8.689223830E0,-4.337077924E-1,8.770429879E0
1.036740617E1,-1.640731782E0,8.747951510E0,-4.806410535E-1,8.913454562E0
1.037741617E1,-2.113065477E0,8.805402158E0,-1.090958221E0,9.120874010E0
1.038742717E1,-2.236527243E0,8.953670590E0,-1.800825330E0,9.402831649E0
1.039743717E1,-2.126915046E0,9.190444817E0,-2.061006693E0,9.655868274E0
1.040744717E1,-2.042674502E0,9.269292181E0,-1.864475927E0,9.673084676E0
1.041745817E1,-1.579912407E0,8.872210690E0,-1.561530515E0,9.146071467E0
1.042746817E1,-1.065068504E0,7.970553664E0,-1.676549925E0,8.214311674E0
1.043747817E1,-1.322750401E0,6.587238096E0,-3.492835732E-1,6.727805985E0
1.044748917E1,-2.128830594E0,4.712152396E0,5.560257697E0,7.592941825E0
1.045749917E1,-1.134670104E0,9.601151490E-1,6.191629518E0,6.367540611E0
1.046751017E1,7.584615650E-1,-3.586116655E0,-3.510596649E-1,3.682219372E0
1.047752017E1,2.013461813E0,-1.091592483E1,-6.678637093E0,1.295436748E1
1.048753017E1,3.431844302E0,-2.293082214E1,-9.190637190E0,2.494129049E1
1.049754117E1,3.829917482E0,-3.216833997E1,-5.674164966E0,3.288869885E1
1.050755117E1,1.969812202E-1,-2.706289274E1,2.343369029E0,2.716487334E1
1.051756117E1,3.154324338E-2,-1.431496391E1,3.226060903E0,1.467401294E1
1.052757217E1,4.635706191E0,-9.600106008E0,-2.642268168E0,1.098332319E1
1.053758217E1,5.722512084E0,-1.249793463E1,-9.525020742E0,1.672338287E1
1.054759217E1,2.758338322E0,-1.464558186E1,-5.545487630E0,1.590138143E1
1.055760317E1,-2.155524887E-1,-1.268896317E1,2.209149702E0,1.288163776E1
1.056761317E1,-3.672499107E-3,-9.432754018E0,2.926115405E0,9.876184143E0
1.057762317E1,1.474278509E0,-7.116331006E0,3.541626361E-1,7.276063172E0
1.058763417E1,2.975323817E0,-7.679838873E0,-1.153138170E-1,8.236854630E0
1.059764417E1,3.771675121E0,-1.235913693E1,2.379749528E-1,1.292402534E1
1.060765417E1,2.914154925E0,-1.726281429E1,-4.539789927E-1,1.751294245E1
1.061766517E1,1.166422167E0,-1.871807868E1,-4.526198074E-1,1.875984741E1
1.062767517E1,1.683955716E-1,-1.801802546E1,-9.887901869E-1,1.804592211E1
1.063768517E1,7.608250827E-2,-1.523827435E1,-1.822729146E0,1.534708882E1
1.064769617E1,7.157695086E-1,-1.274233655E1,-1.786884253E0,1.288690894E1
1.065770617E1,7.940977862E-1,-1.170389444E1,-1.271200909E0,1.179947830E1
1.066771717E1,6.130883087E-1,-1.034255271E1,-1.107275534E0,1.041970887E1
1.067772717E1,-5.570481554E-2,-7.223688224E0,-1.616428853E0,7.402541241E0
1.068773717E1,-3.231465192E-1,-2.946559902E0,-2.267881182E0,3.732281338E0
1.069774817E1,6.327827543E-2,3.227417457E-1,-2.741462381E0,2.761119766E0
1.070775817E1,5.740366557E-1,2.604099591E0,-3.016707194E0,4.026335189E0
1.071776817E1,7.412778407E-1,4.221462244E0,-2.976049165E0,5.217959845E0
1.072777917E1,1.162318298E-1,5.580850421E0,-3.176692277E0,6.422676629E0
1.073778917E1,-1.190213318E0,6.578673095E0,-3.140386915E0,7.386310134E0
1.074779917E1,-2.300824834E0,7.747523902E0,-2.283091545E0,8.398239609E0
1.075781017E1,-2.602933071E0,9.466349196E0,-1.750351726E0,9.972500130E0
1.076782017E1,-1.786685447E0,1.082976961E1,-8.848299086E-1,1.101177001E1
1.077783017E1,-1.016241256E0,1.180215456E1,-7.632429063E-1,1.187038914E1
1.078784117E1,-7.860748217E-2,1.239343787E1,-1.549081208E0,1.249012145E1
1.079785117E1,6.183648361E-1,1.250766674E1,-2.529013156E0,1.277575868E1
1.080786117E1,3.397612363E-2,1.108586246E1,-3.817222592E0,1.172470422E1
1.081787217E1,-1.947997117E0,9.485057362E0,-5.434360127E0,1.110375053E1
1.082788217E1,-3.284409099E0,8.980054981E0,-4.798019342E0,1.069811760E1
1.083789217E1,-3.893219438E0,8.558375423E0,-2.429140373E0,9.711007694E0
1.084790317E1,-4.006704831E0,8.264414257E0,-1.126769785E-1,9.185146854E0
1.085791317E1,-4.036713619E0,8.243822703E0,1.751432877E0,9.344687620E0
1.086792417E1,-3.928790975E0,8.677210141E0,3.281432866E0,1.007458069E1
1.087793417E1,-3.684588152E0,9.412305136E0,4.461561198E0,1.104867441E1
1.088794417E1,-3.194911616E0,1.021638032E1,4.752709268E0,1.171196535E1
1.089795517E1,-3.026720258E0,1.065367487E1,3.950305220E0,1.175868764E1
1.090796517E1,-2.942972050E0,1.090631434E1,2.927347705E0,1.166953905E1
1.091797517E1,-2.360621823E0,1.104764271E1,1.829828836E0,1.144426575E1
1.092798617E1,-2.052473705E0,1.075747815E1,3.535097214E-1,1.095723293E1
1.093799617E1,-1.996377272E0,9.824519806E0,-8.583792246E-1,1.006198422E1
1.094800617E1,-1.767824084E0,8.820077500E0,-1.184905434E0,9.073200647E0
1.095801717E1,-1.433387907E0,8.190466860E0,-8.126529749E-1,8.354564808E0
1.096802717E1,-1.280955088E0,7.880659740E0,-7.389967688E-1,8.018214271E0
1.097803717E1,-1.240204380E0,7.581776973E0,-8.396915234E-1,7.728294173E0
1.098804817E1,-1.434924263E0,7.427430360E0,-1.237565386E0,7.665330879E0
1.099805817E1,-1.759187454E0,7.882029158E0,-1.854404683E0,8.286129426E0
1.100806817E1,-2.563364378E0,8.693340270E0,-2.722430863E0,9.463436574E0
1.101807917E1,-2.549303871E0,9.396331712E0,-4.132163859E0,1.057661468E1
1.102808917E1,-9.890318231E-1,9.821509659E0,-6.238092663E0,1.167707309E1
1.103810017E1,1.850251552E0,8.158998315E0,-8.859531587E0,1.218540046E1
1.104811017E1,5.713555319E0,4.224251366E0,-7.560635780E0,1.037555914E1
1.105812017E1,5.263614414E0,6.736343265E-2,7.432068372E-1,5.316251587E0
1.106813117E1,-4.527294427E-2,-6.344528360E0,9.641838756E0,1.154210312E1
1.107814117E1,-4.974343300E0,-1.443649712E1,1.370231838E1,2.051609294E1
1.108815117E1,-4.075636194E0,-2.517520570E1,6.721500692E0,2.637385759E1
1.109816217E1,1.056494366E0,-4.162632355E1,-1.612478007E1,4.465283334E1
1.110817217E1,-2.735474247E0,-3.904810842E1,-1.824377243E1,4.318648889E1
1.111818217E1,1.904347652E0,-1.882447579E1,-1.838848751E0,1.900970261E1
1.112819317E1,8.863179665E0,-1.376089813E1,3.303087152E0,1.669816325E1
1.113820317E1,5.462599255E0,-1.310245019E1,3.523196814E0,1.462624721E1
1.114821317E1,2.644394508E0,-1.246869972E1,9.716848885E-1,1.278301477E1
1.115822417E1,3.293196002E0,-1.377080097E1,-9.872590935E-1,1.419347666E1
1.116823354E1,3.670702769E0,-1.575342340E1,-1.883459790E0,1.628471149E1
1.117824354E1,5.476614447E0,-1.630612093E1,-2.677148856E0,1.740833168E1
1.118825454E1,6.834088245E0,-1.636950475E1,-2.281936866E0,1.788498487E1
1.119826454E1,7.917819965E0,-1.688007193E1,-1.719221735E0,1.872389983E1
1.120827454E1,8.012694547E0,-1.729315199E1,-1.817701710E0,1.914576765E1
1.121828554E1,6.337900541E0,-1.698254438E1,-2.780378817E0,1.833865599E1
1.122829554E1,3.933055641E0,-1.336830204E1,-4.845182984E0,1.475317675E1
1.123830654E1,1.283104524E0,-6.931105247E0,-6.997271755E0,9.932189546E0
1.124831654E1,-9.031745245E-1,-2.128923272E0,-7.179752830E0,7.543002666E0
1.125832654E1,-2.921792850E0,6.417710942E-1,-4.910534974E0,5.749964985E0
1.126833754E1,-4.924818553E0,1.450678416E0,-2.960527146E0,5.926468310E0
1.127834754E1,-5.418480259E0,1.689543607E0,-3.016641705E0,6.427644444E0
1.128835754E1,-5.246568611E0,2.102624835E0,-3.577135917E0,6.689051857E0
1.129836854E1,-5.733482630E0,4.053769362E0,-2.876550604E0,7.588175834E0
1.130837854E1,-5.104905778E0,6.752136009E0,-1.689057119E0,8.631588362E0
1.131838854E1,-4.479314514E0,9.544501911E0,-8.399501896E-1,1.057673350E1
1.132839954E1,-3.824481325E0,1.180804738E1,-6.703739190E-1,1.243004592E1
1.133840954E1,-2.829500983E0,1.299687637E1,-1.189941130E0,1.335443114E1
1.134841954E1,-2.512048629E0,1.360210529E1,-2.399920667E0,1.403877758E1
1.135843054E1,-2.430891322E0,1.242084143E1,-3.251575813E0,1.306748942E1
1.136844054E1,-1.889665440E0,1.036091063E1,-2.244105234E0,1.076825486E1
1.137845054E1,-1.719279184E0,9.515002708E0,-1.701749524E-1,9.670582038E0
1.138846154E1,-1.810998170E0,9.570800933E0,1.556311290E0,9.864180133E0
1.139847154E1,-2.130914980E0,1.014479286E1,2.699126201E0,1.071181138E1
1.140848154E1,-1.934558315E0,1.043938494E1,3.407445041E0,1.115051369E1
1.141849254E1,-1.858393800E0,1.067001549E1,4.195640355E0,1.161491525E1
1.142850254E1,-2.061819894E0,1.077423042E1,4.576394666E0,1.188606455E1
1.143851254E1,-2.402788727E0,1.080390972E1,4.627701353E0,1.199639440E1
1.144852354E1,-2.653392203E0,1.080181875E1,4.647997330E0,1.205502624E1
1.145853354E1,-2.222239279E0,1.066063890E1,4.038781779E0,1.161461697E1
1.146854454E1,-1.737983404E0,1.025858786E1,2.967925043E0,1.081978698E1
1.147855454E1,-1.386350127E0,9.853033168E0,2.116468556E0,1.017269229E1
1.148856454E1,-1.117795698E0,9.309957812E0,1.581516298E0,9.509257357E0
1.149857554E1,-8.253657719E-1,8.896590071E0,1.249953589E0,9.021802897E0
1.150858554E1,-6.016355136E-1,8.482579721E0,1.052213620E0,8.568738385E0
1.151859554E1,-4.065726918E-1,8.234489962E0,7.906220551E-1,8.282343238E0
1.152860654E1,-3.772313637E-1,8.228356233E0,4.574861526E-1,8.249693532E0
1.153861654E1,-5.981920883E-1,8.397862921E0,3.060666561E-2,8.419196647E0
1.154862654E1,-9.605178760E-1,8.597427807E0,-4.241032290E-1,8.661306081E0
1.155863754E1,-1.557771194E0,8.687441599E0,-9.572595151E-1,8.877760889E0
1.156864754E1,-2.753999396E0,8.805262994E0,-1.523934088E0,9.350911409E0
1.157865754E1,-3.828778152E0,8.942735712E0,-2.676544254E0,1.008939806E1
1.158866854E1,-4.437356064E0,8.971222762E0,-4.647996746E0,1.103525443E1
1.159867854E1,-5.017592230E0,7.873884571E0,-8.000065731E0,1.229533821E1
1.160868854E1,-4.450079606E0,4.332159977E0,-1.167362223E1,1.322286938E1
1.161869954E1,-1.068634501E0,-2.207163695E0,-1.051168693E1,1.079393873E1
1.162870954E1,2.754336488E0,-9.264979275E0,1.275179793E0,9.749476599E0
1.163872054E1,1.902987882E0,-1.389011224E1,9.507562711E0,1.693960831E1
1.164873054E1,-2.044944537E-1,-1.853387501E1,1.049645142E1,2.130074725E1
1.165874054E1,4.138592288E0,-2.437105685E1,2.309003481E0,2.482756240E1
1.166875054E1,1.036675433E1,-2.237716332E1,-1.368749452E1,2.820557640E1
1.167876154E1,9.021687157E0,-1.654396228E1,-1.534456269E1,2.430121666E1
1.168877154E1,7.846564041E0,-1.274898133E1,3.629557959E0,1.540385611E1
1.169878254E1,5.069790909E0,-1.231279541E1,1.101585959E1,1.728169185E1
1.170879254E1,2.284926693E0,-1.307252648E1,5.509744771E0,1.436903358E1
1.171880254E1,-2.204759905E0,-1.287626001E1,2.311310792E-1,1.306569782E1
1.172881354E1,-3.203696473E0,-1.387788688E1,-6.706940541E-1,1.425865512E1
1.173882354E1,-1.072119880E0,-1.483774475E1,-1.211648333E-1,1.487692143E1
1.174883354E1,6.548276344E-1,-1.574941104E1,-2.208200991E0,1.591693749E1
1.175884454E1,1.892705846E0,-1.769700046E1,-4.763988255E0,1.842448764E1
1.176885454E1,2.588593944E0,-1.781510486E1,-3.897042055E0,1.841916710E1
1.177886454E1,2.170732179E0,-1.671239717E1,-2.981530052E0,1.711449149E1
1.178887554E1,2.111264096E0,-1.566580170E1,-3.240872777E0,1.613623362E1
1.179888554E1,1.994751600E0,-1.380531592E1,-2.920991782E0,1.425124466E1
1.180889554E1,2.172220003E0,-1.079186445E1,-1.711290133E0,1.114052925E1
1.181890654E1,2.704378170E0,-7.277503658E0,-1.284891872E0,7.869349903E0
1.182891654E1,3.079006645E0,-4.667939259E0,-1.733414097E0,5.854456703E0
1.183892654E1,3.097063724E0,-2.361247183E0,-1.789232641E0,4.285865772E0
1.184893754E1,2.520857752E0,2.850657964E-1,-1.947158919E0,3.198032859E0
1.185894754E1,1.119478965E0,2.360687605E0,-2.061654564E0,3.328137416E0
1.186895754E1,-1.963935019E-1,3.456254089E0,-1.532969205E0,3.786060924E0
1.187896854E1,-1.056817863E0,4.493126222E0,-1.412214847E0,4.826944999E0
1.188897854E1,-2.796624721E0,6.023327356E0,-1.678073709E0,6.849636022E0
1.189898954E1,-4.247830263E0,6.821134908E0,-1.903328336E0,8.258002309E0
1.190899954E1,-4.687254367E0,7.828832359E0,-1.240746417E0,9.208714421E0
1.191900954E1,-3.926776316E0,9.455441215E0,-6.120982289E-1,1.025668587E1
1.192902054E1,-3.197378556E0,1.076673429E1,4.868391752E-1,1.124201091E1
1.193903054E1,-2.731722089E0,1.156359869E1,1.130773154E0,1.193556735E1
1.194904054E1,-1.669568057E0,1.144611175E1,-2.864141643E-1,1.157078065E1
1.195905154E1,-9.749686848E-1,1.080209240E1,-2.797420235E0,1.120095193E1
1.196906154E1,-5.799723105E-1,9.560688173E0,-5.159784236E0,1.087963692E1
1.197907154E1,-8.934960669E-1,8.545012196E0,-8.232761525E0,1.189932481E1
1.198908254E1,-1.201595361E0,8.837109854E0,-5.750889791E0,1.061183657E1
1.199909254E1,-1.588340876E0,9.873020121E0,-2.423985468E0,1.028956066E1
1.200910254E1,-2.387570909E0,1.037239690E1,-3.272651517E-1,1.064867197E1
1.201911354E1,-3.046791995E0,1.016327240E1,1.398496109E0,1.070190818E1
1.202912354E1,-3.185350834E0,1.019353992E1,3.409367605E0,1.121064243E1
1.203913354E1,-3.039618339E0,1.008042554E1,4.744309158E0,1.154827814E1
1.204914454E1,-3.298951709E0,1.003958157E1,5.144755722E0,1.175350126E1
1.205915454E1,-3.155473316E0,1.042637488E1,5.348907748E0,1.213577847E1
1.206916454E1,-1.679787528E0,1.063787218E1,4.597016627E0,1.170976398E1
1.207917554E1,-2.289472172E-1,1.016458685E1,3.049489024E0,1.061464206E1
1.208918554E1,-6.834883466E-2,9.495295837E0,1.475644273E0,9.609518230E0
1.209919554E1,-6.389074203E-1,8.890204911E0,-5.945339240E-2,8.913331631E0
1.210920654E1,-1.281521098E0,8.806476876E0,-1.081101131E0,8.964658998E0
1.211921654E1,-1.600108982E0,8.850943782E0,-1.936504269E0,9.200521907E0
1.212922654E1,-1.887788776E0,8.781817414E0,-2.867846439E0,9.429136055E0
1.213923754E1,-2.237371873E0,8.603230584E0,-3.162399927E0,9.435156738E0
1.214924754E1,-2.357232923E0,8.586336223E0,-2.494118142E0,9.246747650E0
1.215925854E1,-2.220964001E0,8.459527073E0,-1.679570596E0,8.906022500E0
1.216926867E1,-2.769764366E0,8.163695968E0,-1.133208081E0,8.694923062E0
1.217927867E1,-3.338931753E0,7.714015263E0,-1.187477040E0,8.489087021E0
1.218928967E1,-2.388039271E0,6.356150286E0,9.399621356E-1,6.854699617E0
1.219929967E1,-1.004622985E0,2.785334040E0,2.237637190E0,3.711384277E0
1.220930967E1,1.317899258E0,-1.397254161E0,-6.697446124E-1,2.034142446E0
1.221932067E1,2.187509303E0,-5.882172647E0,-2.888297660E0,6.908503121E0
1.222933067E1,1.721297350E0,-1.443641994E1,-1.900516995E0,1.466236850E1
1.223934067E1,2.756942007E0,-2.798237909E1,-5.270635750E0,2.860758414E1
1.224935167E1,3.438045275E0,-3.830580439E1,-9.763851435E0,3.967981351E1
1.225936167E1,3.888236149E0,-2.799467696E1,-8.982566945E0,2.965648036E1
1.226937167E1,9.604960366E0,-1.262241483E1,-1.231324214E0,1.590901566E1
1.227938267E1,1.119829155E1,-7.450412257E0,3.153906554E0,1.381511864E1
1.228939267E1,7.368457682E0,-5.457241452E0,1.576376595E0,9.303795787E0
1.229940267E1,2.182456285E0,-7.296394258E0,2.132219055E0,7.908656188E0
1.230941367E1,-3.025138586E0,-1.219704159E1,4.345158045E0,1.329660428E1
1.231942367E1,-6.619528175E0,-1.824377827E1,2.063987603E0,1.951700909E1
1.232943367E1,-7.486511797E0,-2.093591588E1,-1.429129964E0,2.228009976E1
1.233944467E1,-4.979547907E0,-1.985535745E1,-2.479929581E0,2.061992162E1
1.234945467E1,-1.048688772E0,-1.832300103E1,-2.140236465E0,1.847735714E1
1.235946467E1,1.856018661E0,-1.698436638E1,-2.314161456E0,1.724148630E1
1.236947567E1,2.669655649E0,-1.533879266E1,-2.875601016E0,1.583270990E1
1.237948567E1,2.377507705E0,-1.359972781E1,-3.527703556E0,1.424955550E1
1.238949567E1,2.031789325E0,-1.229870830E1,-4.433926088E0,1.323049864E1
1.239950667E1,1.485496977E0,-1.085128152E1,-4.660058967E0,1.190265355E1
1.240951667E1,9.329049848E-1,-7.843509455E0,-3.820866576E0,8.774393066E0
1.241952667E1,6.446809611E-1,-3.664625466E0,-2.663757563E0,4.576100709E0
1.242953767E1,1.053577336E0,-1.054475176E-1,-1.871159441E0,2.149972566E0
1.243954767E1,1.438238172E0,2.505654699E0,-1.740092787E0,3.372648427E0
1.244955867E1,9.980188474E-1,4.410895075E0,-1.659374313E0,4.817214972E0
1.245956867E1,-2.068674731E-1,6.271521195E0,-1.042324589E0,6.360912891E0
1.246957867E1,-1.611116219E0,7.620948640E0,-1.116729312E0,7.869030309E0
1.247958967E1,-2.558499202E0,8.642637894E0,-1.419485275E0,9.124475129E0
1.248959967E1,-2.702566995E0,9.480444494E0,-1.734399937E0,1.000953742E1
1.249960967E1,-3.457387864E0,1.039544662E1,-1.276530354E0,1.102943204E1
1.250962067E1,-4.777037194E0,1.124479445E1,-9.688602448E-2,1.221780969E1
1.251963067E1,-6.036387697E0,1.177650984E1,8.420832539E-1,1.326021360E1
1.252964067E1,-6.133754362E0,1.215453935E1,1.270901678E0,1.367373250E1
1.253965167E1,-4.812323678E0,1.178475441E1,6.469043648E-1,1.274587702E1
1.254966167E1,-3.638030575E0,1.096547647E1,-3.846192475E-1,1.155962251E1
1.255967167E1,-3.003604168E0,1.024197826E1,-7.323731891E-1,1.069841704E1
1.256968267E1,-2.839374007E0,1.002965416E1,-3.086838698E-1,1.042838881E1
1.257969267E1,-2.676856495E0,9.978215039E0,3.086849662E-1,1.033564814E1
1.258970267E1,-2.316487332E0,9.900647045E0,1.112784780E0,1.022874457E1
1.259971367E1,-1.923487636E0,1.004650350E1,2.121521866E0,1.044666896E1
1.260972367E1,-1.909573309E0,1.018764359E1,3.017114160E0,1.079525498E1
1.261973367E1,-1.894209896E0,1.008150026E1,3.505084187E0,1.084021650E1
1.262974467E1,-1.448675160E0,9.718579368E0,3.016963302E0,1.027869215E1
1.263975467E1,-1.016534640E0,9.440806219E0,1.937228008E0,9.690976065E0
1.264976467E1,-8.131453836E-1,9.246990901E0,7.331108154E-1,9.311578685E0
1.265977567E1,-9.627798714E-1,9.113763261E0,-1.670337550E-1,9.165998371E0
1.266978567E1,-1.374903617E0,8.902457167E0,-5.899710493E-1,9.027301336E0
1.267979667E1,-1.865733371E0,8.854272602E0,-6.974944016E-1,9.075549722E0
1.268980667E1,-2.176544019E0,8.926554127E0,-8.311993928E-1,9.225595097E0
1.269981667E1,-2.331472869E0,8.923446917E0,-1.043999232E0,9.281896628E0
1.270982767E1,-2.402553961E0,8.869287082E0,-1.442359582E0,9.301447201E0
1.271983767E1,-2.582210247E0,8.828832536E0,-2.030349449E0,9.420106825E0
1.272984767E1,-3.015923959E0,8.610834888E0,-2.564895179E0,9.477392156E0
1.273985867E1,-4.039811473E0,8.513561777E0,-3.250704578E0,9.968344453E0
1.274986867E1,-4.879363175E0,8.789115908E0,-3.312702606E0,1.058445757E1
1.275987867E1,-4.505774627E0,8.670899826E0,-2.321155018E0,1.004361834E1
1.276988967E1,-2.586560575E0,8.202398688E0,9.459986548E-1,8.652430485E0
1.277989967E1,-7.229778830E-2,7.278172579E0,7.696652541E0,1.059318099E1
1.278990967E1,-4.012680612E-1,5.808678408E0,1.111796250E1,1.255033271E1
1.279992067E1,-2.569111606E-1,3.827738224E0,3.536370299E0,5.217614220E0
1.280993067E1,2.444300742E0,4.999486327E-2,-9.132112409E0,9.453707350E0
1.281994067E1,7.370428779E0,-1.040228085E1,-5.534618826E0,1.389829748E1
1.282995167E1,7.947268882E0,-2.801197536E1,3.472544432E-2,2.911753857E1
1.283996167E1,3.689539282E0,-4.319106653E1,-9.676453103E0,4.441525270E1
1.284997167E1,-5.275620502E0,-3.296234040E1,-1.201355129E1,3.547778841E1
1.285998267E1,1.417707136E0,-1.691107387E1,-5.562345153E0,1.785872326E1
1.286999267E1,7.400037909E0,-1.512423961E1,-4.990959917E0,1.756168744E1
1.288000267E1,4.472044671E0,-1.629254136E1,-2.116204701E0,1.702716682E1
1.289001367E1,7.484959361E-1,-1.527129474E1,2.444777144E0,1.548385044E1
1.290002367E1,1.454205456E-1,-1.304393359E1,1.876228831E0,1.317898271E1
1.291003367E1,2.408299874E0,-1.076934449E1,-1.202298051E0,1.110064005E1
1.292004467E1,4.541328037E0,-1.173683765E1,-1.130968305E0,1.263550979E1
1.293005467E1,4.866232960E0,-1.487900972E1,5.722140786E-1,1.566501141E1
1.294006467E1,4.270970035E0,-1.664101086E1,1.548342997E0,1.724997952E1
1.295007567E1,3.040852394E0,-1.582562599E1,1.184287018E0,1.615858153E1
1.296008567E1,1.595202583E0,-1.452370483E1,-5.093285899E-1,1.461992096E1
1.297009567E1,3.580661642E-1,-1.377154006E1,-2.536487067E0,1.400775834E1
1.298010667E1,-6.963124600E-1,-1.247584736E1,-3.531587276E0,1.298474979E1
1.299011667E1,-1.242970406E0,-1.020493966E1,-3.318016263E0,1.080254603E1
1.300012767E1,-1.189012080E0,-6.699861317E0,-2.379054294E0,7.208452727E0
1.301013767E1,-9.172347392E-1,-3.335498561E0,-2.247503636E0,4.125305178E0
1.302014767E1,-4.054174282E-1,-1.943906844E-2,-2.996606805E0,3.023969827E0
1.303015867E1,7.476896051E-1,2.910576721E0,-3.527563223E0,4.634026207E0
1.304016867E1,1.760524420E0,5.335845069E0,-3.030794306E0,6.384074166E0
1.305017867E1,1.370916255E0,6.598377042E0,-1.592838846E0,6.924964011E0
1.306018967E1,5.476585503E-1,7.378335968E0,-2.512595344E-1,7.402898277E0
1.307019967E1,-5.017362727E-1,8.264838181E0,5.181808358E-1,8.296252215E0
1.308020967E1,-1.529163545E0,9.289415959E0,4.553986967E-1,9.425443118E0
1.309022067E1,-1.887674171E0,1.073816362E1,-4.441533315E-1,1.091186253E1
1.310023067E1,-1.581044135E0,1.216362124E1,-1.080201756E0,1.231341619E1
1.311024067E1,-1.263470159E0,1.313766095E1,-2.802540641E0,1.349254336E1
1.312025167E1,-1.795039364E0,1.326037881E1,-4.358472447E0,1.407324037E1
1.313026167E1,-2.506524764E0,1.155858645E1,-4.810537646E0,1.276811888E1
1.314027167E1,-2.122557408E0,9.028204463E0,-4.323213737E0,1.023249250E1
1.315028267E1,-1.726391591E0,8.320958587E0,-3.208678300E0,9.083743511E0
1.316029267E1,-1.672698364E0,8.156865250E0,-1.863652639E0,8.532618103E0
1.317030242E1,-1.762791385E0,8.036219065E0,-5.243069637E-1,8.243976475E0
1.318031342E1,-1.704148636E0,7.792910575E0,7.314387310E-1,8.010529347E0
1.319032342E1,-1.384511324E0,7.796811252E0,1.628696312E0,8.084540122E0
1.320033342E1,-1.249688272E0,8.522319152E0,2.083527828E0,8.861869595E0
1.321034442E1,-1.359095377E0,9.417878702E0,2.052893096E0,9.734369499E0
1.322035442E1,-1.504393132E0,9.991606332E0,1.857078030E0,1.027346751E1
1.323036442E1,-1.686496916E0,1.027151138E1,1.458877966E0,1.051078221E1
1.324037542E1,-1.830339882E0,1.039154302E1,1.099422796E0,1.060863049E1
1.325038542E1,-1.802626565E0,1.032858254E1,8.215560186E-1,1.051684525E1
1.326039642E1,-1.645859059E0,1.013553905E1,6.109239618E-1,1.028645867E1
1.327040642E1,-1.619471013E0,9.805949634E0,2.999517111E-1,9.943304562E0
1.328041642E1,-1.339849121E0,9.357859957E0,1.688933158E-1,9.454801087E0
1.329042742E1,-9.878710046E-1,9.066681481E0,4.359413557E-1,9.130752820E0
1.330043742E1,-2.147063966E-1,8.975764879E0,6.363394694E-1,9.000854511E0
1.331044742E1,-1.129456946E-1,8.761269713E0,1.134790045E0,8.835176974E0
1.332045842E1,-5.766626403E-2,8.928352146E0,1.353206062E0,9.030501874E0
1.333046842E1,8.176600188E-3,8.917894401E0,1.153487248E0,8.992187734E0
1.334047842E1,3.575604531E-1,8.615354785E0,1.135922505E0,8.697270117E0
1.335048942E1,5.072528283E-1,8.259783847E0,2.501757822E0,8.645237234E0
1.336049942E1,-1.399545684E-2,7.571218071E0,3.281966132E0,8.251959806E0
1.337050942E1,6.581834976E-1,4.686771972E0,8.326932102E-2,4.733494566E0
1.338052042E1,1.444796994E0,1.109386379E-1,-3.375194138E0,3.673102395E0
1.339053042E1,1.530194702E0,-6.632121323E0,-2.490542277E0,7.247712046E0
1.340054042E1,-5.379087567E-2,-1.945180250E1,-3.253368277E0,1.972206681E1
1.341055142E1,-2.296898136E-1,-3.879800897E1,-1.278237945E1,4.085006098E1
1.342056142E1,5.983055243E-1,-4.712645784E1,-1.545530428E1,4.959967166E1
1.343057142E1,-9.165704955E-1,-2.576222873E1,-3.113052643E0,2.596581652E1
1.344058242E1,3.057594946E-1,-1.318264007E1,3.224788841E0,1.357478365E1
1.345059242E1,-8.097927363E-1,-1.148328601E1,1.929160166E-1,1.151341993E1
1.346060242E1,-2.269301763E0,-1.203585374E1,-6.512824675E-1,1.226522215E1
1.347061342E1,-2.079604931E0,-1.101820432E1,2.760198906E0,1.154747943E1
1.348062342E1,-6.696566118E-1,-8.546612579E0,2.659963597E0,8.975992028E0
1.349063342E1,1.718641253E0,-8.528931769E0,4.777143028E-1,8.713473235E0
1.350064442E1,4.514872602E0,-1.178708161E1,-1.314815144E0,1.269047305E1
1.351065442E1,6.121795637E0,-1.538719474E1,-1.637447547E0,1.664101494E1
1.352066442E1,5.904169287E0,-1.704747070E1,-1.476898208E0,1.810129002E1
1.353067542E1,4.901553651E0,-1.604188994E1,-2.040597571E0,1.689767734E1
1.354068542E1,3.416849995E0,-1.540037787E1,-3.365837424E0,1.612995239E1
1.355069542E1,1.794815416E0,-1.517109568E1,-4.203568010E0,1.584466758E1
1.356070642E1,-1.512778477E-1,-1.303369863E1,-4.171330849E0,1.368576582E1
1.357071642E1,-1.063467025E0,-8.921022077E0,-3.177986265E0,9.529700610E0
1.358072642E1,-8.287204657E-1,-4.521529073E0,-2.651245691E0,5.306609697E0
1.359073742E1,-1.623211916E-1,-1.009924656E0,-2.409610673E0,2.617731762E0
1.360074742E1,3.506953834E-1,1.603938616E0,-2.612907836E0,3.085918615E0
1.361075742E1,5.871385118E-1,3.693625901E0,-3.064690615E0,4.835279981E0
1.362076842E1,3.285100240E-1,4.705614039E0,-3.265137845E0,5.736884823E0
1.363077842E1,-6.658364797E-1,5.668178002E0,-2.230354922E0,6.127484244E0
1.364078942E1,-2.098086080E0,7.431232220E0,-1.372693516E0,7.842797013E0
1.365079942E1,-3.003708833E0,9.286989949E0,-7.859330267E-1,9.792248965E0
1.366080942E1,-3.861414093E0,1.082424984E1,-4.955573738E-1,1.150306396E1
1.367082042E1,-4.295658733E0,1.195163278E1,-4.718410671E-1,1.270892773E1
1.368083042E1,-4.474879401E0,1.269711185E1,-3.123372102E-1,1.346620768E1
1.369084042E1,-3.950328609E0,1.308473780E1,-1.678466642E-1,1.366907576E1
1.370085142E1,-2.984380570E0,1.252647372E1,-6.147528648E-1,1.289174125E1
1.371086142E1,-2.259549777E0,1.087253147E1,-1.709820582E0,1.123570168E1
1.372087142E1,-1.890900811E0,9.747580388E0,-2.419042232E0,1.021971598E1
1.373088242E1,-1.867849332E0,9.699906285E0,-1.879750024E0,1.005537186E1
1.374089242E1,-2.349556260E0,9.838284152E0,-8.212414384E-1,1.014823567E1
1.375090242E1,-2.567541629E0,9.784540638E0,4.303410752E-1,1.012495427E1
1.376091342E1,-2.243419356E0,9.659279246E0,1.456757766E0,1.002281144E1
1.377092342E1,-2.038212346E0,9.532968863E0,1.962446026E0,9.943993127E0
1.378093342E1,-1.815955293E0,9.343940075E0,2.149701937E0,9.758490056E0
1.379094442E1,-1.369060349E0,9.065255345E0,2.035026344E0,9.391193371E0
1.380095442E1,-7.584617843E-1,8.803965497E0,1.564946458E0,8.974081021E0
1.381096442E1,-3.603941600E-1,8.665236797E0,8.454349510E-1,8.713838016E0
1.382097542E1,-2.203537837E-2,8.662676886E0,5.778991071E-1,8.681959674E0
1.383098542E1,9.110692888E-2,8.599345109E0,4.048822618E-1,8.609353426E0
1.384099542E1,1.407399957E-1,8.571176147E0,4.482497446E-2,8.572448750E0
1.385100642E1,6.047428702E-1,8.716521556E0,-4.169181705E-1,8.747415775E0
1.386101642E1,9.924453545E-1,9.121731262E0,-9.629954144E-1,9.225957358E0
1.387102642E1,1.283994763E0,9.262557943E0,-1.386953706E0,9.453425981E0
1.388103742E1,7.308250657E-1,9.258144464E0,-1.803250902E0,9.460394179E0
1.389104742E1,-8.918057831E-1,9.544159849E0,-2.344553382E0,9.868294449E0
1.390105742E1,-2.194319116E0,9.905758681E0,-4.279063751E0,1.101133407E1
1.391106842E1,-2.665722227E0,9.957429357E0,-6.654843603E0,1.226961359E1
1.392107842E1,-2.696111669E0,9.642106558E0,-8.163035817E0,1.291798710E1
1.393108842E1,-2.627526753E0,8.660602294E0,-9.367846416E0,1.302560845E1
1.394109942E1,-1.867733265E0,6.765429069E0,-5.114945447E0,8.684591238E0
1.395110942E1,-2.373137788E-1,3.232532017E0,4.402178046E0,5.466694853E0
1.396111942E1,1.356085962E0,-2.131144629E0,7.502460077E0,7.916290405E0
1.397113042E1,1.032422987E0,-8.287209628E0,6.071356970E0,1.032497536E1
1.398114042E1,1.843197617E0,-1.855054777E1,-4.322706199E-1,1.864690478E1
1.399115142E1,2.608575927E-1,-3.232899806E1,-1.545242394E1,3.583307925E1
1.400116142E1,-4.010805191E0,-3.157583927E1,-8.556298492E0,3.295952711E1
1.401117142E1,-1.198118095E0,-1.596913654E1,1.103645348E1,1.944870470E1
1.402118242E1,3.756850090E0,-8.104017531E0,1.187958456E1,1.486316090E1
1.403119242E1,2.114363120E0,-8.309429632E0,6.448821053E-1,8.598431551E0
1.404120242E1,-1.352124766E0,-1.424998146E1,-8.907194581E0,1.685907258E1
1.405121342E1,-3.971105228E0,-1.922243027E1,-2.673076563E0,1.980951389E1
1.406122342E1,-1.442984503E0,-1.791211719E1,5.348795482E0,1.874928691E1
1.407123342E1,2.985772207E0,-1.511092199E1,5.119990425E0,1.623173130E1
1.408124442E1,7.259557384E0,-1.368703844E1,7.645623305E-1,1.551195507E1
1.409125442E1,9.155817606E0,-1.286047253E1,-2.949155773E0,1.605983404E1
1.410126442E1,8.376280848E0,-1.348784368E1,-4.630962929E0,1.653873712E1
1.411127542E1,5.722835435E0,-1.482680929E1,-3.295096932E0,1.623092058E1
1.412128542E1,2.989304218E0,-1.419365757E1,-1.594107546E0,1.459236218E1
1.413129542E1,1.549377808E0,-1.314856250E1,-3.716066346E-1,1.324474835E1
1.414130642E1,9.262629864E-1,-1.319842873E1,8.451355004E-1,1.325785571E1
1.415131642E1,-1.211263879E-1,-1.223041282E1,1.229618142E0,1.229266570E1
1.416132642E1,-8.405515757E-1,-9.590287364E0,9.255032869E-1,9.671437070E0
1.417133779E1,-1.062421104E0,-5.501225962E0,-2.391532398E-1,5.607978242E0
1.418134779E1,-5.880495080E-1,-1.332249495E0,-1.714134657E0,2.249210654E0
1.419135779E1,-4.042165563E-1,2.287630738E0,-2.993953339E0,3.789512108E0
1.420136879E1,-9.955219401E-1,4.953454707E0,-3.927450793E0,6.399425536E0
1.421137879E1,-9.473253880E-1,6.573307105E0,-4.476132460E0,8.008842206E0
1.422138879E1,-1.444126318E0,7.797186643E0,-4.054397353E0,8.906164060E0
1.423139979E1,-2.390982029E0,8.808897039E0,-2.909120765E0,9.580002386E0
1.424140979E1,-3.207936289E0,9.940465415E0,-2.063394111E0,1.064712652E1
1.425141979E1,-3.151129419E0,1.084998110E1,-9.025469720E-1,1.133429740E1
1.426143079E1,-2.808879608E0,1.095735469E1,2.042338287E0,1.149454532E1
1.427144079E1,-2.431821029E0,1.118396353E1,2.999460247E0,1.183180272E1
1.428145079E1,-1.702507031E0,1.191469358E1,-2.971981841E-1,1.203938454E1
1.429146179E1,-1.375248311E0,1.160310481E1,-4.044138998E0,1.236440089E1
1.430147179E1,-3.077179098E-1,9.054254978E0,-7.428951221E0,1.171595236E1
1.431148179E1,2.716496524E-1,6.781006637E0,-1.144781095E1,1.330820124E1
1.432149279E1,-1.098182382E-1,6.964120381E0,-1.178031053E1,1.368527489E1
1.433150279E1,-2.619406432E-3,8.933486586E0,-5.438518667E0,1.045871286E1
1.434151279E1,-2.903000776E-1,1.050639637E1,-1.795664724E0,1.066269434E1
1.435152379E1,-8.729461006E-1,1.040569562E1,-4.810445845E-1,1.045332197E1
1.436153379E1,-9.785128284E-1,1.012123092E1,1.647776946E0,1.030106652E1
1.437154479E1,-1.147596325E0,1.014697270E1,3.386333084E0,1.075849822E1
1.438155479E1,-1.234113043E0,1.020378191E1,4.833171633E0,1.135780561E1
1.439156479E1,-1.525111132E0,1.015383967E1,5.507035171E0,1.165134586E1
1.440157579E1,-1.812799990E0,1.014065303E1,5.453619686E0,1.165594506E1
1.441158579E1,-1.515671680E0,1.004508146E1,4.705363194E0,1.119559578E1
1.442159579E1,-8.984738747E-1,9.310709179E0,3.354187431E0,9.937159254E0
1.443160679E1,-1.004638480E0,8.825295555E0,1.942188932E0,9.092152548E0
1.444161679E1,-1.065079102E0,8.763037911E0,6.593063092E-1,8.852113405E0
1.445162679E1,-1.471600046E0,8.997248719E0,1.790687136E-1,9.118561115E0
1.446163779E1,-1.781689733E0,9.456511256E0,5.110209203E-1,9.636449855E0
1.447164779E1,-1.966804833E0,9.836782587E0,3.391325144E-1,1.003721195E1
1.448165779E1,-1.802813822E0,9.947980256E0,-7.251026150E-1,1.013598652E1
1.449166879E1,-1.415397632E0,9.699380620E0,-1.930571684E0,9.990417504E0
1.450167879E1,-3.002051148E-1,8.698483481E0,-1.430392671E0,8.820417290E0
1.451168879E1,1.919737524E0,6.205378661E0,-1.695588459E0,6.713206142E0
1.452169979E1,4.375122686E0,2.491968706E0,-5.031723197E0,7.118275414E0
1.453170979E1,2.264532190E0,-2.065934141E0,-3.863340751E0,4.931692577E0
1.454171979E1,2.110333219E-1,-8.404942730E0,8.745388091E-1,8.452953063E0
1.455173079E1,-1.265784048E0,-1.593398308E1,2.228026853E0,1.613871524E1
1.456174079E1,-4.263085795E-1,-2.761712224E1,-5.896984228E-1,2.762670672E1
1.457175079E1,-1.781723793E0,-3.588470861E1,-8.384934143E0,3.689436234E1
1.458176179E1,-6.502400552E-1,-2.403872684E1,-1.309711636E1,2.738279856E1
1.459177179E1,4.622489145E0,-1.324351193E1,-4.880889883E0,1.485197294E1
1.460178179E1,4.224977006E0,-1.211275748E1,5.297094986E0,1.387906841E1
1.461179279E1,5.063658057E-1,-1.581488231E1,6.463129190E0,1.709207266E1
1.462180279E1,-2.286588910E0,-2.121255233E1,2.332288409E0,2.146253560E1
1.463181279E1,-4.515508195E0,-2.181783037E1,-1.805303274E0,2.235322474E1
1.464182379E1,-2.390361493E0,-1.875991317E1,-4.437690525E0,1.942527393E1
1.465183379E1,1.748591861E0,-1.606855558E1,-3.781375651E0,1.659984499E1
1.466184379E1,5.677418942E0,-1.577729524E1,-3.031390722E0,1.703952642E1
1.467185479E1,6.849440694E0,-1.541591042E1,-3.046482385E0,1.714194233E1
1.468186479E1,6.287685238E0,-1.377771589E1,-3.298199172E0,1.549963092E1
1.469187479E1,5.379213867E0,-1.216490295E1,-3.788131232E0,1.383006666E1
1.470188579E1,3.808123739E0,-1.015337540E1,-4.557766607E0,1.176291099E1
1.471189579E1,2.319757387E0,-6.563994829E0,-4.715009930E0,8.408247207E0
1.472190579E1,1.836600204E0,-2.858113748E0,-3.823826437E0,5.115033052E0
1.473191679E1,1.359093916E0,1.154959577E-1,-2.915330508E0,3.218637531E0
1.474192679E1,4.041925827E-1,1.484183546E0,-2.599370363E0,3.020413668E0
1.475193779E1,-1.136393206E0,2.779209082E0,-2.128558406E0,3.680509954E0
1.476194779E1,-2.479344567E0,4.039593957E0,-1.701383049E0,5.035888512E0
1.477195779E1,-3.393439205E0,5.030325712E0,-2.121221319E0,6.428000178E0
1.478196779E1,-5.223456906E0,6.106764200E0,-2.175447228E0,8.325241239E0
1.479197879E1,-6.397866662E0,7.556647979E0,-1.239520841E0,9.978578978E0
1.480198879E1,-6.407449663E0,9.344922407E0,-1.682974845E-1,1.133187143E1
1.481199879E1,-5.785778373E0,1.069815814E1,6.395859897E-1,1.217928115E1
1.482200979E1,-5.952324032E0,1.184985731E1,1.286894982E0,1.332311444E1
1.483201979E1,-5.565899675E0,1.245933482E1,1.946688949E0,1.378418881E1
1.484203079E1,-4.537159265E0,1.259955573E1,1.945458695E0,1.353216274E1
1.485204079E1,-3.902154276E0,1.246565683E1,1.289686443E0,1.312565043E1
1.486205079E1,-2.880671722E0,1.174055063E1,1.768852901E-1,1.209008218E1
1.487206179E1,-1.623205484E0,1.068592460E1,-8.253263032E-1,1.083996975E1
1.488207179E1,-7.818667267E-1,1.008815673E1,-1.521373007E0,1.023214530E1
1.489208179E1,-3.197066022E-1,9.946855252E0,-1.727555187E0,1.010082119E1
1.490209279E1,-1.100703263E-1,9.706720045E0,-1.650564898E0,9.846669183E0
1.491210279E1,-1.231524481E-1,9.280683142E0,-1.153822879E0,9.352943566E0
1.492211279E1,-9.650390893E-2,8.744847223E0,-3.093446052E-1,8.750849104E0
1.493212379E1,1.170362605E-1,8.196451485E0,4.993136982E-1,8.212480052E0
1.494213379E1,2.999418439E-1,7.810973793E0,9.926888180E-1,7.879511901E0
1.495214379E1,3.314203294E-1,7.801217129E0,1.194590762E0,7.899105976E0
1.496215479E1,1.718539073E-1,7.959406532E0,1.007444778E0,8.024751154E0
1.497216479E1,1.559240453E-2,8.219025246E0,6.938797259E-1,8.248277892E0
1.498217479E1,-1.982105242E-1,8.568505139E0,2.654975045E-1,8.574908551E0
1.499218579E1,-6.158447593E-1,8.820833545E0,-1.482057937E-1,8.843547600E0
1.500219579E1,-1.600550008E0,9.186498531E0,-4.551250470E-1,9.335987061E0
1.501220579E1,-2.582681825E0,9.673506106E0,-8.496845611E-1,1.004832969E1
1.502221679E1,-2.762581939E0,9.755393438E0,-2.422972730E0,1.042450752E1
1.503222679E1,-2.203209808E0,9.675468432E0,-4.189919440E0,1.077145523E1
1.504223679E1,-1.665014099E0,9.887162197E0,-4.506711059E0,1.099266541E1
1.505224779E1,-1.557279004E0,1.004361848E1,-3.015964597E0,1.060167122E1
1.506225779E1,-5.872399610E-1,9.657418662E0,1.572001709E0,9.802131164E0
1.507226779E1,-3.953347088E-1,8.817961977E0,6.697758658E0,1.108028492E1
1.508227879E1,-1.060114377E0,7.295213120E0,7.061912724E0,1.020855466E1
1.509228879E1,-3.950662485E-1,4.622849625E0,3.462363260E0,5.789194706E0
1.510229879E1,-1.417636970E0,7.733299381E-1,-5.178168467E-1,1.695838453E0
1.511230979E1,-2.524040391E0,-6.271693688E0,-2.753979515E0,7.299953752E0
1.512231979E1,-1.177965959E0,-1.944059573E1,-1.596336943E0,1.954156232E1
1.513232979E1,1.460657566E0,-3.814830379E1,-6.657499409E0,3.875240510E1
1.514234079E1,2.384590437E0,-4.590938095E1,-1.094609412E1,4.725647582E1
1.515235079E1,3.168311462E0,-2.536987588E1,-5.268510872E0,2.610413773E1
1.516236079E1,6.748951616E0,-1.187795669E1,-4.893787672E-1,1.367017537E1
1.517237154E1,4.728255628E0,-1.104521144E1,1.556368593E0,1.211508895E1
1.518238154E1,9.889319819E-1,-1.379785019E1,2.234324012E0,1.401252512E1
1.519239154E1,-1.428540273E0,-1.549806380E1,1.720804284E0,1.565860390E1
1.520240254E1,-1.755262949E0,-1.579371422E1,-5.771576071E-1,1.590142974E1
1.521241254E1,-1.071356453E-1,-1.672005936E1,-2.415168744E0,1.689393096E1
1.522242254E1,1.778268819E0,-1.739381765E1,-2.040590408E0,1.760315715E1
1.523243354E1,3.664791527E0,-1.671520851E1,-1.604866423E0,1.718733513E1
1.524244354E1,4.032116245E0,-1.538062832E1,-2.087182484E0,1.603677086E1
1.525245354E1,3.590858747E0,-1.455388114E1,-2.549398888E0,1.520556337E1
1.526246454E1,2.329443739E0,-1.307287731E1,-2.785094304E0,1.356772566E1
1.527247454E1,7.729454105E-1,-1.042480900E1,-2.846737990E0,1.083411300E1
1.528248454E1,-5.973338632E-1,-7.089288803E0,-2.847173023E0,7.662977078E0
1.529249554E1,-1.063218226E0,-3.230204240E0,-2.677323103E0,4.328130246E0
1.530250554E1,-4.809310023E-1,2.861627340E-3,-2.670686513E0,2.713645015E0
1.531251554E1,3.368959545E-1,2.745242021E0,-2.765642956E0,3.911346776E0
1.532252654E1,2.846310559E-1,4.443835949E0,-3.502664609E0,5.665452510E0
1.533253654E1,-7.501142992E-1,5.209062815E0,-3.900075883E0,6.550389208E0
1.534254654E1,-1.359334967E0,6.038904338E0,-2.870309871E0,6.823110428E0
1.535255754E1,-2.231514717E0,7.925546476E0,-6.464131987E-1,8.259043219E0
1.536256754E1,-2.488335246E0,9.692903659E0,1.376014735E0,1.010136675E1
1.537257854E1,-2.705251451E0,1.158606135E1,2.413434168E0,1.214001102E1
1.538258854E1,-2.655522929E0,1.335983293E1,2.448754858E0,1.383955701E1
1.539259854E1,-3.048362850E0,1.419995386E1,1.001486539E0,1.455795937E1
1.540260954E1,-3.498161668E0,1.404760816E1,-3.388952637E-1,1.448058286E1
1.541261954E1,-3.409207392E0,1.319358255E1,-1.276850635E0,1.368662351E1
1.542262954E1,-2.930181266E0,1.100498143E1,-1.549381170E0,1.149330938E1
1.543264054E1,-2.455668021E0,8.991283974E0,-1.449392613E0,9.432615326E0
1.544265054E1,-2.162159723E0,8.250608397E0,-1.367986507E0,8.638220920E0
1.545266054E1,-2.328117298E0,7.999884467E0,-1.231842277E0,8.422334417E0
1.546267154E1,-2.767859636E0,7.860289795E0,-7.906838894E-1,8.370805435E0
1.547268154E1,-3.021309830E0,7.804402692E0,-9.889626067E-2,8.369396331E0
1.548269154E1,-2.836472911E0,8.043164973E0,5.326743293E-1,8.545280762E0
1.549270254E1,-2.444553049E0,8.715233415E0,1.199953902E0,9.130773376E0
1.550271254E1,-1.945743893E0,9.396381998E0,1.779017701E0,9.759242692E0
1.551272254E1,-1.319625356E0,9.820875821E0,1.875069913E0,1.008498389E1
1.552273354E1,-5.972968796E-1,1.001831524E1,1.562359650E0,1.015698634E1
1.553274354E1,-1.086997390E-3,1.006515846E1,1.169128623E0,1.013283167E1
1.554275354E1,1.659103587E-1,9.883733389E0,8.731798431E-1,9.923616024E0
1.555276454E1,-1.391533537E-1,9.483962764E0,7.363983393E-1,9.513526994E0
1.556277454E1,-4.773658088E-1,9.100627491E0,6.078063726E-1,9.133385322E0
1.557278454E1,-6.682969880E-1,8.839834657E0,3.009548740E-1,8.870167499E0
1.558279554E1,-8.420515327E-1,8.681620696E0,-2.031077135E-1,8.724725866E0
1.559280554E1,-1.099604133E0,8.567808736E0,-8.863688958E-1,8.683439733E0
1.560281554E1,-1.920413316E0,8.522654198E0,-2.012695827E0,8.965186355E0
1.561282654E1,-3.302979271E0,8.596838992E0,-4.022094995E0,1.004950550E1
1.562283654E1,-3.735997165E0,7.947163632E0,-6.027558986E0,1.065112914E1
1.563284654E1,-3.516937078E0,7.003295556E0,-3.746235055E0,8.686154048E0
1.564285754E1,-2.949326512E0,5.129031390E0,1.119674262E0,6.021557965E0
1.565286754E1,-1.172276399E0,2.096984611E0,3.077223245E0,3.903956879E0
1.566287754E1,-2.093036424E0,1.277505523E-1,2.627739884E0,3.361865341E0
1.567288854E1,-2.302505908E0,-5.449468163E0,1.532082914E0,6.111097674E0
1.568289854E1,-9.611464517E-1,-1.970734337E1,-1.495618654E0,1.978737123E1
1.569290854E1,3.913298777E-1,-4.019082743E1,-7.651686283E0,4.091459461E1
1.570291954E1,-2.353947373E0,-4.235614494E1,-8.883741399E0,4.334172290E1
1.571292954E1,8.301880438E-2,-1.899152723E1,-5.112694269E0,1.966785808E1
1.572293954E1,7.164160060E0,-8.630449373E0,1.203927962E0,1.128092586E1
1.573295054E1,8.364609806E0,-5.766189616E0,-4.019704361E0,1.092582551E1
1.574296054E1,5.822611154E0,-4.171498956E0,-3.762024876E0,8.090552228E0
1.575297054E1,3.759975134E0,-4.059484431E0,2.030027852E0,5.893881568E0
1.576298154E1,1.588187094E0,-5.958087047E0,-4.404269010E-2,6.166285695E0
1.577299154E1,1.069559165E0,-1.230635178E1,-1.806084462E0,1.248407754E1
1.578300154E1,2.467697864E-1,-1.821378557E1,1.430988210E0,1.827157922E1
1.579301254E1,-1.013833373E0,-2.018482700E1,3.251893609E0,2.047022010E1
1.580302254E1,-5.965941904E-1,-1.845131467E1,1.921616965E0,1.856069905E1
1.581303254E1,-2.307076129E-1,-1.599596591E1,3.724609128E-1,1.600196483E1
1.582304354E1,3.719952917E-1,-1.379135043E1,-2.684956643E-1,1.379897884E1
1.583305354E1,7.581933971E-1,-1.191804754E1,1.602897227E-1,1.194321595E1
1.584306354E1,1.081964033E0,-1.111912727E1,8.056631403E-1,1.120065759E1
1.585307454E1,9.246877465E-1,-1.093744024E1,5.116968584E-1,1.098837932E1
1.586308454E1,-3.735759768E-1,-1.000777622E1,-5.768839574E-1,1.003134782E1
1.587309454E1,-1.827276965E0,-7.057118592E0,-1.287340540E0,7.402642068E0
1.588310554E1,-1.890622191E0,-3.411528152E0,-1.665287018E0,4.241009013E0
1.589311554E1,1.126194200E-1,-3.698685497E-1,-3.009818004E0,3.034549439E0
1.590312554E1,2.049913063E0,2.650874392E0,-5.104447356E0,6.106116722E0
1.591313654E1,3.472737390E0,5.403917769E0,-6.605422937E0,9.213785563E0
1.592314654E1,4.265652577E0,6.985434067E0,-6.226895830E0,1.028427502E1
1.593315654E1,2.996132596E0,7.452602039E0,-4.704043477E0,9.308389373E0
1.594316754E1,7.308667271E-1,8.399480846E0,-2.610243260E0,8.826030508E0
1.595317754E1,-1.923836276E-1,9.684684813E0,-1.266290563E0,9.769013419E0
1.596318754E1,-7.023885942E-1,1.063212554E1,-1.728184347E0,1.079453863E1
1.597319854E1,-7.904767518E-1,1.121965844E1,-2.692266247E0,1.156520154E1
1.598320854E1,-4.671640255E-1,1.169368988E1,-3.890310448E0,1.233268586E1
1.599321854E1,-4.917865044E-1,1.157030895E1,-5.188692870E0,1.269001327E1
1.600322954E1,-2.190900396E0,9.184467208E0,-6.861620445E0,1.167203142E1
1.601323954E1,-4.694168699E0,7.308571669E0,-6.349518374E0,1.075949921E1
1.602324954E1,-5.372716441E0,7.403895902E0,-3.369858554E0,9.748830861E0
1.603326054E1,-5.218534720E0,8.195057509E0,2.431599712E-1,9.718600669E0
1.604327054E1,-4.556020043E0,9.474898410E0,3.840333127E0,1.119281810E1
1.605328154E1,-3.400670749E0,1.066633409E1,5.896653861E0,1.265329092E1
1.606329154E1,-1.990537511E0,1.122024083E1,5.729156860E0,1.275457887E1
1.607330154E1,-1.615688888E0,1.144346647E1,4.858804657E0,1.253680016E1
1.608331254E1,-1.691378756E0,1.104545820E1,3.368732965E0,1.167095843E1
1.609332254E1,-1.996108446E0,1.071560390E1,2.813137550E0,1.125710259E1
1.610333254E1,-1.928509517E0,1.010947334E1,2.770314882E0,1.065810699E1
1.611334354E1,-1.140764146E0,9.234646844E0,2.203782835E0,9.562254125E0
1.612335354E1,-4.077225468E-1,8.347513132E0,1.162971359E0,8.437992388E0
1.613336354E1,4.023549490E-1,7.946342683E0,-9.965921268E-3,7.956528820E0
1.614337454E1,1.186401225E0,8.018410785E0,-8.373084906E-1,8.148837027E0
1.615338454E1,1.884402361E0,8.256725169E0,-1.394184372E0,8.583020030E0
1.616339454E1,2.130674221E0,8.812922262E0,-1.605194013E0,9.207823806E0
1.617340608E1,1.654409004E0,9.517188397E0,-1.369710267E0,9.756538851E0
1.618341608E1,6.188522016E-1,9.603354721E0,-1.610468202E0,9.757100377E0
1.619342608E1,-6.807365008E-1,9.573242145E0,-1.915227420E0,9.786647200E0
1.620343708E1,-1.698472159E0,9.803303769E0,-2.082150224E0,1.016488672E1
1.621344708E1,-2.000509353E0,9.236742486E0,-3.269115121E0,1.000032815E1
1.622345708E1,-2.365583771E0,7.517941750E0,-5.539170299E0,9.633163672E0
1.623346808E1,-2.598208521E0,4.686619359E0,-4.244613125E0,6.836068250E0
1.624347808E1,-4.709586857E-1,-1.133708457E0,-3.892289731E0,4.081300810E0
1.625348808E1,3.782136959E-1,-7.383603725E0,-5.763599299E0,9.374418726E0
1.626349908E1,1.369603555E0,-1.741874784E1,-5.606771128E0,1.835005375E1
1.627350908E1,2.508538838E0,-3.151890376E1,-8.183834363E0,3.266051448E1
1.628351908E1,6.525028399E0,-3.781613282E1,-1.156503008E1,4.007974324E1
1.629353008E1,6.673128431E0,-2.262248910E1,-2.256993667E0,2.369391645E1
1.630354008E1,6.241060125E0,-8.122118171E0,8.178961294E0,1.310782373E1
1.631355008E1,2.620564473E0,-4.394036967E0,1.213363204E1,1.316814131E1
1.632356108E1,-3.178030997E0,-6.307552907E0,6.845825946E0,9.836180030E0
1.633357108E1,-8.866338916E0,-1.132486506E1,2.382753535E0,1.457882192E1
1.634358108E1,-9.947242337E0,-1.448366310E1,4.542107763E0,1.814813681E1
1.635359208E1,-4.421879654E0,-1.864665728E1,1.538958216E0,1.922548412E1
1.636360208E1,2.078462239E0,-2.090694410E1,-1.795900659E0,2.108662078E1
1.637361208E1,6.109939238E0,-1.930025320E1,-2.903153681E0,2.045139194E1
1.638362308E1,6.486166050E0,-1.557945587E1,-2.214167782E0,1.702035059E1
1.639363308E1,5.390139974E0,-1.303562119E1,-2.716019391E0,1.436515890E1
1.640364308E1,4.209340382E0,-1.155778889E1,-3.485043732E0,1.278462203E1
1.641365408E1,3.562236919E0,-1.019122677E1,-4.485738266E0,1.169070069E1
1.642366408E1,3.172070930E0,-9.628236378E0,-5.000330665E0,1.130346303E1
1.643367408E1,2.272801322E0,-9.475058039E0,-4.156800810E0,1.059345759E1
1.644368508E1,1.697271287E-2,-8.970249200E0,-2.567265640E0,9.330407904E0
1.645369508E1,-1.547475709E0,-6.816160097E0,-1.405510429E0,7.129528673E0
1.646370508E1,-1.058846993E0,-2.607818420E0,-1.250466828E0,3.079860574E0
1.647371608E1,1.413976613E-1,1.137893309E0,-2.501065804E0,2.751385948E0
1.648372608E1,3.085010713E-1,3.703857944E0,-3.020451751E0,4.789244759E0
1.649373608E1,-6.419796936E-1,5.656631505E0,-2.140904217E0,6.082194405E0
1.650374708E1,-1.700280557E0,7.192192782E0,-8.889019096E-1,7.443704561E0
1.651375708E1,-2.192632926E0,8.849859708E0,-9.330624211E-1,9.165056545E0
1.652376708E1,-2.721017884E0,9.599987310E0,-1.604836164E0,1.010639371E1
